timestamp,yaw,pitch,roll,accel_x,accel_y,accel_z,gyro_x,gyro_y,gyro_z
1775933723.2915776,-15.17,-0.02,-0.66,-0.019,-0.12,9.786,0.0,0.0,0.0
1775933723.301572,-15.17,-0.01,-0.67,0.007,-0.129,9.778,-0.01,-0.01,0.0
1775933723.3115704,-15.17,-0.02,-0.67,0.0,-0.132,9.784,-0.01,-0.01,0.0
1775933723.3219457,-15.17,-0.01,-0.67,-0.006,-0.126,9.776,0.0,0.0,-0.01
1775933723.3315496,-15.17,-0.02,-0.66,0.001,-0.111,9.774,0.0,-0.01,0.0
1775933723.3415556,-15.17,-0.02,-0.66,-0.013,-0.103,9.774,0.0,0.0,-0.01
1775933723.3515594,-15.17,-0.02,-0.66,-0.006,-0.111,9.772,0.0,-0.01,0.0
1775933723.3615646,-15.17,-0.02,-0.66,-0.007,-0.104,9.781,-0.01,-0.01,-0.01
1775933723.3715615,-15.17,-0.01,-0.66,0.0,-0.116,9.784,-0.01,0.0,-0.01
1775933723.3816333,-15.17,-0.01,-0.67,0.0,-0.119,9.786,0.0,-0.01,-0.01
1775933723.391577,-15.17,-0.01,-0.66,0.007,-0.109,9.791,-0.01,0.0,-0.01
1775933723.4015412,-15.17,-0.02,-0.67,0.008,-0.119,9.796,0.0,-0.01,0.0
1775933723.4115593,-15.17,-0.02,-0.67,0.01,-0.113,9.793,0.0,0.0,0.0
1775933723.4215612,-15.18,-0.02,-0.67,0.0,-0.125,9.796,-0.01,0.0,0.0
1775933723.4315479,-15.18,-0.02,-0.67,0.008,-0.111,9.782,-0.01,0.0,0.0
1775933723.4415565,-15.18,-0.03,-0.67,-0.001,-0.113,9.787,0.0,0.0,0.0
1775933723.4515564,-15.18,-0.02,-0.66,-0.007,-0.107,9.785,-0.01,0.0,-0.01
1775933723.461546,-15.18,-0.03,-0.67,-0.016,-0.107,9.781,0.0,-0.01,-0.01
1775933723.4715858,-15.17,-0.03,-0.67,-0.034,-0.11,9.782,-0.01,0.0,-0.01
1775933723.4815738,-15.17,-0.03,-0.67,-0.022,-0.126,9.781,0.0,-0.01,-0.01
1775933723.491569,-15.17,-0.02,-0.67,-0.013,-0.121,9.785,0.0,-0.01,-0.01
1775933723.501547,-15.17,-0.02,-0.67,0.002,-0.127,9.788,-0.01,-0.01,0.0
1775933723.5115492,-15.17,-0.01,-0.66,0.01,-0.121,9.793,0.0,-0.01,0.0
1775933723.5216439,-15.17,-0.01,-0.66,0.018,-0.11,9.796,0.0,-0.01,0.0
1775933723.531721,-15.17,-0.01,-0.66,0.01,-0.108,9.796,0.0,0.0,-0.01
1775933723.5415688,-15.17,-0.02,-0.66,0.0,-0.095,9.791,0.0,0.0,-0.01
1775933723.55157,-15.17,-0.02,-0.66,-0.012,-0.105,9.772,-0.01,0.0,-0.01
1775933723.5615547,-15.17,-0.03,-0.67,-0.02,-0.121,9.775,-0.01,0.0,0.0
1775933723.5715568,-15.17,-0.02,-0.67,-0.016,-0.113,9.776,-0.01,0.0,0.0
1775933723.581555,-15.17,-0.03,-0.67,-0.01,-0.125,9.776,-0.01,-0.01,0.0
1775933723.5915282,-15.17,-0.02,-0.67,-0.023,-0.116,9.775,0.0,0.0,0.0
1775933723.6016674,-15.17,-0.03,-0.67,-0.018,-0.116,9.779,0.0,-0.01,-0.01
1775933723.6115844,-15.17,-0.02,-0.66,-0.017,-0.127,9.787,0.0,0.0,-0.01
1775933723.6216745,-15.17,-0.02,-0.67,0.0,-0.113,9.78,0.0,0.0,0.0
1775933723.6315439,-15.18,-0.02,-0.66,0.001,-0.091,9.785,-0.01,-0.01,0.0
1775933723.6416605,-15.18,-0.02,-0.66,-0.001,-0.096,9.788,0.0,0.0,0.0
1775933723.6515343,-15.17,-0.02,-0.66,0.0,-0.101,9.792,-0.01,0.0,-0.01
1775933723.661642,-15.17,-0.02,-0.66,0.0,-0.12,9.785,-0.01,0.0,-0.01
1775933723.6715624,-15.17,-0.03,-0.67,-0.01,-0.127,9.782,0.0,0.0,-0.01
1775933723.6815236,-15.17,-0.03,-0.67,-0.01,-0.138,9.781,-0.01,0.0,-0.01
1775933723.6907039,-15.17,-0.02,-0.67,-0.004,-0.117,9.785,-0.01,-0.01,0.0
1775933723.7006884,-15.17,-0.02,-0.67,0.0,-0.131,9.792,0.0,-0.01,0.0
1775933723.7115438,-15.17,-0.02,-0.67,0.002,-0.113,9.796,0.0,-0.01,0.0
1775933723.7215219,-15.17,-0.02,-0.67,-0.001,-0.126,9.798,0.0,0.0,-0.01
1775933723.7306964,-15.17,-0.02,-0.67,0.0,-0.116,9.786,0.0,0.0,-0.01
1775933723.7407062,-15.17,-0.02,-0.67,-0.001,-0.116,9.79,-0.01,0.0,-0.01
1775933723.750666,-15.17,-0.02,-0.67,0.0,-0.125,9.793,-0.01,0.0,0.0
1775933723.7615535,-15.18,-0.02,-0.67,0.01,-0.12,9.798,-0.01,-0.01,0.0
1775933723.7715368,-15.18,-0.02,-0.67,0.012,-0.113,9.79,-0.01,0.0,0.0
1775933723.7815232,-15.18,-0.02,-0.67,0.002,-0.114,9.785,-0.01,0.0,0.0
1775933723.7906852,-15.17,-0.03,-0.67,0.0,-0.115,9.77,0.0,0.0,-0.01
1775933723.800688,-15.17,-0.03,-0.67,-0.018,-0.116,9.774,0.0,-0.01,-0.01
1775933723.8107,-15.17,-0.03,-0.67,-0.026,-0.121,9.767,0.0,-0.01,-0.01
1775933723.8215294,-15.17,-0.02,-0.67,-0.017,-0.113,9.769,-0.01,-0.01,-0.01
1775933723.8315523,-15.17,-0.02,-0.67,-0.007,-0.117,9.776,-0.01,-0.01,0.0
1775933723.8407307,-15.17,-0.01,-0.67,0.002,-0.119,9.785,0.0,-0.01,0.0
1775933723.8507254,-15.17,-0.01,-0.67,0.023,-0.122,9.787,-0.01,-0.01,-0.01
1775933723.8607333,-15.17,-0.01,-0.67,0.014,-0.121,9.786,0.0,0.0,-0.01
1775933723.8706672,-15.17,-0.02,-0.67,0.0,-0.113,9.786,0.0,0.0,0.0
1775933723.8806975,-15.17,-0.02,-0.67,-0.01,-0.103,9.779,-0.01,0.0,0.0
1775933723.8906887,-15.18,-0.03,-0.67,-0.016,-0.103,9.768,0.0,0.0,0.0
1775933723.9006736,-15.18,-0.03,-0.67,-0.03,-0.104,9.774,-0.01,-0.01,0.0
1775933723.9106977,-15.17,-0.03,-0.67,-0.028,-0.123,9.774,-0.01,-0.01,-0.01
1775933723.9207084,-15.17,-0.03,-0.67,-0.019,-0.126,9.775,0.0,-0.01,-0.01
1775933723.9307,-15.17,-0.03,-0.67,-0.002,-0.123,9.779,-0.01,0.0,-0.01
1775933723.9407141,-15.18,-0.02,-0.67,0.001,-0.123,9.778,0.0,-0.01,0.0
1775933723.950686,-15.18,-0.02,-0.67,0.006,-0.113,9.785,0.0,-0.01,0.0
1775933723.9606755,-15.18,-0.03,-0.67,-0.007,-0.097,9.79,-0.01,0.0,0.0
1775933723.9706728,-15.18,-0.03,-0.67,-0.01,-0.095,9.773,0.0,0.0,-0.01
1775933723.9806747,-15.17,-0.03,-0.67,-0.018,-0.099,9.775,0.0,-0.01,-0.01
1775933723.9906712,-15.17,-0.03,-0.67,-0.026,-0.104,9.784,-0.01,0.0,-0.01
1775933724.0006936,-15.17,-0.03,-0.67,-0.016,-0.11,9.781,-0.01,-0.01,-0.01
1775933724.0106688,-15.17,-0.03,-0.67,-0.002,-0.122,9.782,-0.01,-0.01,0.0
1775933724.0206933,-15.17,-0.02,-0.67,-0.002,-0.122,9.788,0.0,-0.01,0.0
1775933724.0306695,-15.17,-0.02,-0.67,0.019,-0.129,9.787,0.0,-0.01,-0.01
1775933724.0406613,-15.17,-0.03,-0.67,0.024,-0.113,9.786,0.0,0.0,0.0
1775933724.0506709,-15.18,-0.02,-0.67,0.004,-0.111,9.782,-0.01,0.0,0.0
1775933724.0606487,-15.18,-0.03,-0.67,0.0,-0.098,9.779,0.0,0.0,0.0
1775933724.0706573,-15.18,-0.03,-0.67,-0.019,-0.096,9.776,-0.01,-0.01,0.0
1775933724.0806682,-15.17,-0.03,-0.67,-0.029,-0.107,9.778,-0.01,0.0,-0.01
1775933724.0906596,-15.17,-0.03,-0.67,-0.02,-0.127,9.772,-0.01,-0.01,-0.01
1775933724.1006804,-15.17,-0.03,-0.67,-0.016,-0.135,9.774,-0.01,-0.01,-0.01
1775933724.1106555,-15.17,-0.02,-0.67,-0.001,-0.135,9.784,0.0,-0.01,-0.01
1775933724.1206636,-15.17,-0.02,-0.67,0.017,-0.137,9.787,0.0,-0.01,0.0
1775933724.1306305,-15.17,-0.02,-0.67,0.028,-0.116,9.788,0.0,0.0,0.0
1775933724.1406257,-15.18,-0.02,-0.67,0.012,-0.108,9.788,-0.01,0.0,0.0
1775933724.1506314,-15.18,-0.03,-0.67,0.002,-0.098,9.782,0.0,0.0,0.0
1775933724.1606517,-15.17,-0.03,-0.67,-0.022,-0.108,9.781,-0.01,0.0,-0.01
1775933724.1706412,-15.17,-0.03,-0.67,-0.028,-0.115,9.782,0.0,0.0,-0.01
1775933724.1806471,-15.17,-0.03,-0.67,-0.041,-0.127,9.784,-0.01,0.0,-0.01
1775933724.190645,-15.17,-0.03,-0.68,-0.01,-0.135,9.787,-0.01,-0.01,0.0
1775933724.2006474,-15.18,-0.03,-0.67,-0.012,-0.127,9.793,-0.01,-0.01,0.0
1775933724.21063,-15.18,-0.03,-0.67,0.001,-0.133,9.787,0.0,-0.01,0.0
1775933724.2206407,-15.18,-0.03,-0.67,0.011,-0.121,9.791,0.0,-0.01,0.0
1775933724.2306013,-15.18,-0.03,-0.67,0.001,-0.11,9.796,0.0,0.0,0.0
1775933724.2406507,-15.19,-0.03,-0.67,0.001,-0.095,9.785,0.0,0.0,0.0
1775933724.2506335,-15.19,-0.03,-0.67,0.0,-0.096,9.776,-0.01,0.0,0.0
1775933724.260626,-15.19,-0.03,-0.67,-0.013,-0.101,9.776,-0.01,0.0,0.0
1775933724.270635,-15.18,-0.03,-0.67,-0.016,-0.107,9.78,-0.01,-0.01,-0.01
1775933724.2806516,-15.18,-0.03,-0.68,-0.016,-0.131,9.781,-0.01,-0.01,-0.01
1775933724.290648,-15.17,-0.03,-0.68,-0.019,-0.146,9.784,0.0,-0.01,-0.01
1775933724.3006713,-15.17,-0.03,-0.68,-0.011,-0.134,9.785,0.0,-0.01,-0.01
1775933724.310646,-15.17,-0.03,-0.67,-0.002,-0.139,9.787,0.0,-0.01,-0.01
1775933724.3206363,-15.17,-0.03,-0.67,0.001,-0.129,9.788,0.0,-0.01,0.0
1775933724.3306463,-15.18,-0.03,-0.67,0.014,-0.107,9.793,-0.01,-0.01,0.0
1775933724.3405993,-15.18,-0.02,-0.67,0.022,-0.114,9.797,0.0,0.0,0.0
1775933724.3506036,-15.18,-0.03,-0.67,0.026,-0.086,9.797,-0.01,0.0,0.0
1775933724.360637,-15.18,-0.03,-0.67,0.008,-0.102,9.793,-0.01,0.0,0.0
1775933724.370635,-15.18,-0.03,-0.68,0.001,-0.113,9.776,0.0,0.0,-0.01
1775933724.3806417,-15.17,-0.03,-0.68,-0.022,-0.126,9.781,-0.01,0.0,-0.01
1775933724.3906069,-15.17,-0.03,-0.68,-0.028,-0.135,9.773,0.0,0.0,-0.01
1775933724.4006128,-15.17,-0.03,-0.68,-0.03,-0.137,9.778,0.0,-0.01,-0.01
1775933724.410626,-15.17,-0.03,-0.68,-0.008,-0.121,9.786,0.0,-0.01,-0.01
1775933724.4206266,-15.17,-0.02,-0.67,0.002,-0.125,9.792,0.0,-0.01,0.0
1775933724.4306068,-15.18,-0.02,-0.67,0.026,-0.101,9.794,0.0,0.0,0.0
1775933724.4406419,-15.18,-0.02,-0.67,0.036,-0.098,9.784,-0.01,-0.01,0.0
1775933724.4506183,-15.18,-0.02,-0.67,0.012,-0.078,9.79,0.0,0.0,0.0
1775933724.4606242,-15.17,-0.03,-0.67,0.011,-0.091,9.779,-0.01,0.0,-0.01
1775933724.4710722,-15.17,-0.03,-0.67,-0.006,-0.113,9.78,-0.01,0.0,-0.01
1775933724.4806223,-15.17,-0.03,-0.67,-0.008,-0.126,9.778,-0.01,0.0,-0.01
1775933724.4906192,-15.17,-0.03,-0.67,-0.012,-0.129,9.782,-0.01,-0.01,0.0
1775933724.5006235,-15.18,-0.03,-0.67,-0.004,-0.134,9.776,-0.01,-0.01,0.0
1775933724.5106163,-15.18,-0.02,-0.67,0.002,-0.121,9.785,0.0,-0.01,0.0
1775933724.5210495,-15.17,-0.02,-0.67,0.004,-0.115,9.792,0.0,-0.01,-0.01
1775933724.5305629,-15.17,-0.02,-0.67,0.0,-0.122,9.784,0.0,0.0,-0.01
1775933724.5406258,-15.17,-0.02,-0.67,0.0,-0.113,9.779,0.0,-0.01,-0.01
1775933724.5506167,-15.17,-0.02,-0.67,-0.008,-0.113,9.787,-0.01,0.0,0.0
1775933724.560627,-15.18,-0.02,-0.67,0.004,-0.113,9.788,-0.01,0.0,0.0
1775933724.570619,-15.18,-0.03,-0.67,0.004,-0.102,9.791,-0.01,-0.01,0.0
1775933724.5807517,-15.18,-0.02,-0.67,-0.002,-0.12,9.785,-0.01,0.0,0.0
1775933724.5905893,-15.17,-0.03,-0.67,0.01,-0.131,9.774,0.0,-0.01,-0.01
1775933724.600582,-15.18,-0.02,-0.67,-0.001,-0.122,9.776,0.0,0.0,-0.01
1775933724.610562,-15.18,-0.03,-0.67,0.0,-0.123,9.774,0.0,-0.01,0.0
1775933724.6206174,-15.19,-0.02,-0.67,-0.008,-0.108,9.778,0.0,0.0,0.0
1775933724.6306124,-15.18,-0.03,-0.67,-0.005,-0.091,9.781,-0.01,-0.01,0.0
1775933724.6407394,-15.18,-0.02,-0.67,-0.016,-0.105,9.785,0.0,0.0,-0.01
1775933724.6507435,-15.17,-0.02,-0.67,0.004,-0.107,9.775,0.0,-0.01,-0.01
1775933724.6605797,-15.17,-0.02,-0.67,-0.006,-0.127,9.784,-0.01,0.0,-0.01
1775933724.6705713,-15.17,-0.02,-0.67,0.007,-0.122,9.786,0.0,-0.01,-0.01
1775933724.680573,-15.18,-0.02,-0.67,0.006,-0.111,9.792,-0.01,-0.01,0.0
1775933724.6905673,-15.18,-0.02,-0.67,0.011,-0.12,9.793,-0.01,0.0,0.0
1775933724.700563,-15.18,-0.02,-0.67,0.013,-0.101,9.791,-0.01,0.0,0.0
1775933724.710582,-15.19,-0.02,-0.67,0.006,-0.101,9.792,-0.01,0.0,0.0
1775933724.7205534,-15.19,-0.02,-0.67,0.004,-0.104,9.79,0.0,0.0,0.0
1775933724.7305338,-15.19,-0.03,-0.67,0.0,-0.098,9.796,-0.01,0.0,0.0
1775933724.7405958,-15.19,-0.02,-0.67,-0.01,-0.107,9.791,-0.01,0.0,0.0
1775933724.7505643,-15.19,-0.03,-0.67,-0.007,-0.121,9.785,0.0,-0.01,0.0
1775933724.7605777,-15.19,-0.02,-0.67,-0.025,-0.113,9.791,-0.01,0.0,-0.01
1775933724.7705545,-15.19,-0.03,-0.67,-0.007,-0.138,9.788,0.0,-0.01,-0.01
1775933724.7805514,-15.19,-0.02,-0.67,0.0,-0.117,9.786,0.0,0.0,-0.01
1775933724.790536,-15.18,-0.02,-0.67,0.006,-0.115,9.782,0.0,-0.01,-0.01
1775933724.800574,-15.19,-0.02,-0.67,0.001,-0.107,9.776,0.0,0.0,0.0
1775933724.810554,-15.18,-0.02,-0.67,0.006,-0.095,9.784,0.0,-0.01,0.0
1775933724.8206909,-15.18,-0.02,-0.67,0.006,-0.092,9.79,-0.01,0.0,-0.01
1775933724.829764,-15.18,-0.01,-0.67,0.008,-0.104,9.784,0.0,-0.01,-0.01
1775933724.8405602,-15.18,-0.01,-0.67,0.004,-0.105,9.791,-0.01,-0.01,-0.01
1775933724.850549,-15.17,-0.01,-0.67,0.007,-0.116,9.784,-0.01,-0.01,-0.01
1775933724.8605573,-15.17,-0.01,-0.67,-0.007,-0.127,9.787,0.0,0.0,-0.01
1775933724.8705306,-15.17,-0.01,-0.68,0.0,-0.123,9.787,-0.01,0.0,-0.01
1775933724.8796895,-15.17,-0.02,-0.67,-0.01,-0.133,9.79,0.0,0.0,0.0
1775933724.8905537,-15.18,-0.02,-0.67,-0.004,-0.126,9.794,0.0,0.0,0.0
1775933724.8997226,-15.18,-0.02,-0.67,0.001,-0.107,9.792,-0.01,0.0,0.0
1775933724.9096966,-15.18,-0.02,-0.67,-0.001,-0.121,9.786,0.0,0.0,0.0
1775933724.9205463,-15.19,-0.01,-0.68,-0.001,-0.108,9.792,-0.01,0.0,0.0
1775933724.9297097,-15.19,-0.02,-0.67,0.007,-0.108,9.786,-0.01,0.0,0.0
1775933724.9397182,-15.19,-0.02,-0.67,-0.002,-0.116,9.781,0.0,0.0,0.0
1775933724.9496953,-15.19,-0.02,-0.67,-0.006,-0.109,9.782,-0.01,-0.01,0.0
1775933724.959695,-15.19,-0.02,-0.67,-0.01,-0.115,9.788,-0.01,0.0,-0.01
1775933724.9697165,-15.18,-0.02,-0.67,-0.025,-0.115,9.788,-0.01,-0.01,-0.01
1775933724.9805439,-15.18,-0.02,-0.67,-0.013,-0.117,9.776,-0.01,-0.01,-0.01
1775933724.9905357,-15.18,-0.02,-0.67,-0.008,-0.116,9.773,0.0,-0.01,-0.01
1775933724.9997144,-15.18,-0.02,-0.67,-0.01,-0.105,9.782,-0.01,-0.01,-0.01
1775933725.0105426,-15.18,-0.01,-0.67,0.004,-0.11,9.785,0.0,-0.01,0.0
1775933725.019754,-15.18,-0.02,-0.67,0.011,-0.093,9.786,-0.01,-0.01,0.0
1775933725.0297186,-15.18,-0.01,-0.67,0.007,-0.101,9.782,-0.01,0.0,0.0
1775933725.039698,-15.18,-0.01,-0.67,0.0,-0.111,9.785,0.0,0.0,-0.01
1775933725.049679,-15.18,-0.02,-0.67,0.0,-0.111,9.781,-0.01,0.0,-0.01
1775933725.059677,-15.18,-0.02,-0.67,-0.006,-0.116,9.779,-0.01,0.0,0.0
1775933725.0696502,-15.19,-0.02,-0.67,-0.005,-0.126,9.779,0.0,-0.01,0.0
1775933725.0796752,-15.18,-0.02,-0.67,-0.011,-0.113,9.778,-0.01,-0.01,0.0
1775933725.0896494,-15.18,-0.02,-0.67,-0.012,-0.127,9.77,-0.01,0.0,-0.01
1775933725.0996807,-15.18,-0.02,-0.67,-0.004,-0.12,9.767,0.0,-0.01,-0.01
1775933725.109665,-15.17,-0.01,-0.67,-0.012,-0.116,9.778,0.0,-0.01,-0.01
1775933725.1196687,-15.17,-0.01,-0.67,-0.001,-0.12,9.778,0.0,-0.01,-0.01
1775933725.1296663,-15.18,-0.01,-0.67,-0.005,-0.111,9.778,0.0,-0.01,0.0
1775933725.13965,-15.18,-0.01,-0.67,0.008,-0.103,9.784,-0.01,0.0,0.0
1775933725.1496956,-15.18,-0.01,-0.67,0.0,-0.102,9.79,-0.01,0.0,0.0
1775933725.1596487,-15.18,-0.01,-0.67,-0.001,-0.114,9.79,0.0,0.0,0.0
1775933725.169635,-15.18,-0.02,-0.67,0.0,-0.11,9.786,-0.01,0.0,0.0
1775933725.1797023,-15.18,-0.02,-0.67,-0.005,-0.12,9.775,-0.01,0.0,-0.01
1775933725.1897027,-15.19,-0.02,-0.67,-0.002,-0.128,9.779,0.0,0.0,0.0
1775933725.1996684,-15.19,-0.03,-0.67,0.008,-0.113,9.784,-0.01,0.0,0.0
1775933725.2096553,-15.2,-0.02,-0.67,-0.005,-0.119,9.784,0.0,0.0,0.0
1775933725.2196941,-15.19,-0.02,-0.67,-0.005,-0.113,9.782,0.0,0.0,0.0
1775933725.2296512,-15.18,-0.02,-0.67,-0.011,-0.103,9.787,-0.01,-0.01,-0.01
1775933725.2396562,-15.18,-0.02,-0.67,-0.012,-0.115,9.778,0.0,-0.01,-0.01
1775933725.249651,-15.18,-0.02,-0.67,-0.006,-0.115,9.778,-0.01,-0.01,-0.01
1775933725.2596529,-15.18,-0.01,-0.67,0.01,-0.107,9.786,-0.01,-0.01,0.0
1775933725.2696373,-15.18,-0.01,-0.67,0.022,-0.117,9.788,0.0,-0.01,0.0
1775933725.2796202,-15.18,-0.01,-0.67,0.024,-0.111,9.794,0.0,-0.01,0.0
1775933725.2896628,-15.18,-0.0,-0.67,0.022,-0.113,9.791,0.0,0.0,-0.01
1775933725.2996683,-15.17,-0.01,-0.67,0.016,-0.113,9.776,0.0,0.0,-0.01
1775933725.3096514,-15.17,-0.01,-0.67,0.005,-0.107,9.778,-0.01,0.0,-0.01
1775933725.31968,-15.17,-0.01,-0.67,-0.001,-0.127,9.774,-0.01,-0.01,-0.01
1775933725.3295898,-15.18,-0.01,-0.67,-0.002,-0.133,9.778,-0.01,0.0,0.0
1775933725.3396716,-15.18,-0.01,-0.68,0.016,-0.137,9.778,-0.01,0.0,0.0
1775933725.3496387,-15.19,-0.01,-0.68,0.002,-0.135,9.78,-0.01,0.0,0.0
1775933725.3596075,-15.19,-0.01,-0.68,0.005,-0.117,9.776,0.0,0.0,0.0
1775933725.3696244,-15.18,-0.02,-0.67,0.008,-0.111,9.767,-0.01,-0.01,-0.01
1775933725.3796074,-15.18,-0.01,-0.67,-0.012,-0.115,9.768,0.0,0.0,-0.01
1775933725.3896236,-15.17,-0.01,-0.67,-0.007,-0.113,9.759,0.0,-0.01,-0.01
1775933725.3996396,-15.17,-0.01,-0.67,-0.017,-0.121,9.757,-0.01,-0.01,-0.01
1775933725.4096384,-15.18,-0.01,-0.68,-0.006,-0.122,9.764,0.0,-0.01,0.0
1775933725.4196544,-15.18,-0.0,-0.67,-0.007,-0.113,9.772,-0.01,-0.01,0.0
1775933725.429645,-15.18,-0.0,-0.67,0.011,-0.135,9.778,0.0,-0.01,0.0
1775933725.4396274,-15.17,-0.01,-0.68,0.018,-0.128,9.784,0.0,0.0,-0.01
1775933725.450293,-15.17,-0.01,-0.68,0.016,-0.122,9.79,-0.01,0.0,-0.01
1775933725.4602206,-15.18,-0.01,-0.68,0.016,-0.114,9.78,0.0,0.0,0.0
1775933725.4696252,-15.19,-0.01,-0.68,-0.012,-0.102,9.788,-0.01,0.0,0.0
1775933725.4796226,-15.19,-0.02,-0.67,-0.013,-0.096,9.793,-0.01,0.0,0.0
1775933725.489613,-15.19,-0.02,-0.67,-0.024,-0.095,9.792,-0.01,-0.01,0.0
1775933725.4996185,-15.18,-0.02,-0.67,-0.018,-0.114,9.79,-0.01,0.0,-0.01
1775933725.5096135,-15.17,-0.01,-0.68,-0.019,-0.127,9.788,0.0,-0.01,-0.01
1775933725.519616,-15.17,-0.01,-0.68,-0.007,-0.141,9.782,0.0,-0.01,-0.01
1775933725.5296195,-15.17,-0.01,-0.68,-0.007,-0.134,9.79,0.0,-0.01,0.0
1775933725.539642,-15.18,-0.01,-0.68,0.012,-0.129,9.792,0.0,-0.01,0.0
1775933725.5496309,-15.18,-0.01,-0.68,0.007,-0.113,9.797,0.0,-0.01,0.0
1775933725.5596206,-15.18,-0.01,-0.68,0.017,-0.11,9.794,-0.01,0.0,0.0
1775933725.569636,-15.18,-0.01,-0.68,0.0,-0.107,9.79,0.0,0.0,-0.01
1775933725.5796063,-15.18,-0.01,-0.68,0.002,-0.113,9.781,0.0,0.0,-0.01
1775933725.5896347,-15.17,-0.01,-0.68,-0.023,-0.119,9.78,-0.01,-0.01,-0.01
1775933725.5996215,-15.17,-0.01,-0.68,-0.012,-0.122,9.767,-0.01,0.0,-0.01
1775933725.6102924,-15.17,-0.01,-0.68,-0.006,-0.133,9.776,0.0,-0.01,-0.01
1775933725.6196442,-15.18,-0.01,-0.68,0.006,-0.125,9.781,-0.01,0.0,0.0
1775933725.629691,-15.18,-0.01,-0.68,0.019,-0.12,9.781,-0.01,-0.01,0.0
1775933725.639655,-15.18,-0.01,-0.68,0.017,-0.117,9.776,0.0,0.0,0.0
1775933725.6497984,-15.18,-0.01,-0.68,0.007,-0.113,9.778,0.0,-0.01,0.0
1775933725.659627,-15.17,-0.01,-0.68,0.004,-0.105,9.776,-0.01,0.0,-0.01
1775933725.6698058,-15.17,-0.01,-0.68,-0.012,-0.107,9.77,0.0,-0.01,-0.01
1775933725.6796196,-15.17,-0.01,-0.68,-0.017,-0.113,9.769,-0.01,0.0,-0.01
1775933725.6897619,-15.17,-0.01,-0.68,0.0,-0.128,9.776,-0.01,-0.01,0.0
1775933725.6995866,-15.18,-0.01,-0.68,0.005,-0.126,9.785,-0.01,0.0,0.0
1775933725.7104187,-15.18,-0.01,-0.68,0.026,-0.133,9.786,0.0,-0.01,0.0
1775933725.7196367,-15.18,-0.01,-0.68,0.01,-0.108,9.79,0.0,0.0,0.0
1775933725.7297647,-15.18,-0.01,-0.68,0.006,-0.107,9.787,-0.01,0.0,-0.01
1775933725.7396014,-15.18,-0.01,-0.68,-0.022,-0.104,9.785,0.0,0.0,-0.01
1775933725.749746,-15.17,-0.01,-0.68,-0.028,-0.096,9.779,-0.01,0.0,-0.01
1775933725.7597747,-15.17,-0.01,-0.68,-0.03,-0.103,9.782,-0.01,-0.01,-0.01
1775933725.7696211,-15.17,-0.01,-0.68,-0.022,-0.115,9.79,-0.01,-0.01,0.0
1775933725.7795758,-15.17,-0.01,-0.68,-0.008,-0.122,9.791,-0.01,-0.01,-0.01
1775933725.789576,-15.17,-0.01,-0.68,0.014,-0.134,9.79,0.0,-0.01,-0.01
1775933725.7995772,-15.17,-0.01,-0.68,0.012,-0.126,9.794,0.0,-0.01,-0.01
1775933725.8097913,-15.17,-0.01,-0.68,0.007,-0.123,9.786,0.0,0.0,0.0
1775933725.819594,-15.18,-0.01,-0.68,0.007,-0.105,9.773,0.0,0.0,0.0
1775933725.8297637,-15.18,-0.01,-0.67,-0.019,-0.096,9.782,-0.01,0.0,0.0
1775933725.8395915,-15.18,-0.01,-0.67,-0.018,-0.092,9.773,-0.01,0.0,-0.01
1775933725.8497505,-15.17,-0.02,-0.67,-0.024,-0.102,9.775,-0.01,-0.01,-0.01
1775933725.8595788,-15.17,-0.01,-0.68,-0.02,-0.116,9.772,-0.01,0.0,-0.01
1775933725.8697531,-15.17,-0.01,-0.68,-0.01,-0.131,9.769,-0.01,-0.01,-0.01
1775933725.8795526,-15.17,-0.01,-0.68,0.01,-0.139,9.773,0.0,0.0,0.0
1775933725.889731,-15.18,-0.01,-0.68,0.008,-0.126,9.782,-0.01,-0.01,0.0
1775933725.899587,-15.18,-0.01,-0.68,0.029,-0.108,9.784,0.0,0.0,0.0
1775933725.9095862,-15.19,-0.01,-0.68,0.011,-0.093,9.784,0.0,-0.01,0.0
1775933725.919582,-15.18,-0.01,-0.67,-0.01,-0.079,9.778,-0.01,0.0,0.0
1775933725.929571,-15.18,-0.02,-0.67,-0.002,-0.093,9.759,0.0,-0.01,-0.01
1775933725.9395516,-15.17,-0.02,-0.67,-0.023,-0.091,9.769,-0.01,0.0,-0.01
1775933725.9495728,-15.17,-0.02,-0.67,-0.032,-0.12,9.773,-0.01,-0.01,-0.01
1775933725.9595714,-15.17,-0.01,-0.68,-0.013,-0.138,9.775,-0.01,-0.01,-0.01
1775933725.9695725,-15.18,-0.01,-0.68,0.008,-0.128,9.776,-0.01,-0.01,0.0
1775933725.9795806,-15.18,-0.01,-0.68,0.006,-0.132,9.785,-0.01,-0.01,0.0
1775933725.9895747,-15.18,-0.01,-0.68,0.018,-0.122,9.788,0.0,-0.01,0.0
1775933725.9987652,-15.18,-0.01,-0.67,0.006,-0.111,9.786,0.0,0.0,-0.01
1775933726.0087376,-15.18,-0.01,-0.67,-0.01,-0.109,9.775,0.0,0.0,-0.01
1775933726.0187387,-15.18,-0.02,-0.67,-0.007,-0.105,9.766,0.0,0.0,-0.01
1775933726.0287209,-15.18,-0.02,-0.67,-0.019,-0.09,9.778,-0.01,0.0,0.0
1775933726.0389056,-15.18,-0.01,-0.67,-0.018,-0.107,9.776,-0.01,-0.01,0.0
1775933726.0487225,-15.18,-0.01,-0.68,-0.008,-0.11,9.779,-0.01,-0.01,-0.01
1775933726.0589232,-15.17,-0.01,-0.68,-0.007,-0.116,9.786,-0.01,-0.01,-0.01
1775933726.0687273,-15.17,-0.01,-0.68,0.0,-0.139,9.778,0.0,-0.01,-0.01
1775933726.078904,-15.17,-0.01,-0.68,0.002,-0.128,9.782,0.0,-0.01,-0.01
1775933726.0887244,-15.18,-0.01,-0.68,0.0,-0.117,9.786,-0.01,0.0,0.0
1775933726.0989063,-15.19,-0.01,-0.68,-0.008,-0.105,9.788,-0.01,0.0,0.0
1775933726.1088235,-15.2,-0.01,-0.68,-0.002,-0.087,9.79,-0.01,0.0,0.0
1775933726.1188982,-15.19,-0.02,-0.67,-0.008,-0.093,9.778,-0.01,0.0,0.0
1775933726.1287837,-15.18,-0.02,-0.67,-0.041,-0.103,9.774,0.0,0.0,-0.01
1775933726.1389048,-15.17,-0.03,-0.67,-0.013,-0.117,9.755,0.0,-0.01,-0.01
1775933726.1487885,-15.17,-0.02,-0.67,-0.032,-0.122,9.768,-0.01,-0.01,-0.01
1775933726.1589243,-15.18,-0.01,-0.68,-0.022,-0.128,9.774,-0.01,-0.01,0.0
1775933726.1687267,-15.18,-0.01,-0.68,-0.005,-0.126,9.774,0.0,-0.01,0.0
1775933726.1787455,-15.18,-0.01,-0.68,0.005,-0.113,9.784,-0.01,-0.01,0.0
1775933726.188762,-15.18,-0.01,-0.67,0.016,-0.109,9.787,0.0,-0.01,0.0
1775933726.1988668,-15.18,-0.01,-0.67,0.029,-0.096,9.787,0.0,0.0,0.0
1775933726.208788,-15.19,-0.01,-0.67,-0.002,-0.098,9.787,0.0,0.0,0.0
1775933726.2189004,-15.18,-0.02,-0.67,-0.004,-0.092,9.778,-0.01,0.0,0.0
1775933726.2287874,-15.18,-0.03,-0.67,-0.025,-0.111,9.769,-0.01,0.0,-0.01
1775933726.2389004,-15.17,-0.02,-0.67,-0.031,-0.117,9.773,-0.01,0.0,-0.01
1775933726.2486973,-15.17,-0.02,-0.67,-0.023,-0.132,9.762,-0.01,-0.01,-0.01
1775933726.2586749,-15.17,-0.01,-0.68,-0.018,-0.139,9.774,0.0,-0.01,-0.01
1775933726.2687716,-15.17,-0.01,-0.68,0.006,-0.138,9.784,0.0,-0.01,0.0
1775933726.2792733,-15.17,-0.01,-0.68,0.02,-0.123,9.79,0.0,-0.01,0.0
1775933726.2887034,-15.18,-0.0,-0.67,0.035,-0.119,9.794,0.0,-0.01,0.0
1775933726.298837,-15.18,-0.0,-0.67,0.031,-0.091,9.798,-0.01,0.0,0.0
1775933726.3087597,-15.18,-0.01,-0.67,0.019,-0.097,9.787,-0.01,0.0,0.0
1775933726.3186944,-15.18,-0.01,-0.68,0.0,-0.096,9.785,-0.01,0.0,0.0
1775933726.3287098,-15.18,-0.02,-0.67,-0.01,-0.098,9.784,-0.01,0.0,0.0
1775933726.33885,-15.18,-0.02,-0.67,-0.023,-0.127,9.774,-0.01,0.0,-0.01
1775933726.3486927,-15.17,-0.02,-0.68,-0.032,-0.128,9.782,0.0,-0.01,-0.01
1775933726.358869,-15.17,-0.02,-0.68,-0.024,-0.141,9.774,-0.01,-0.01,-0.01
1775933726.3686948,-15.17,-0.02,-0.68,-0.017,-0.147,9.774,0.0,-0.01,0.0
1775933726.378673,-15.18,-0.01,-0.68,-0.007,-0.121,9.782,-0.01,0.0,0.0
1775933726.388677,-15.18,-0.01,-0.68,0.005,-0.117,9.79,0.0,-0.01,0.0
1775933726.3986917,-15.18,-0.01,-0.68,0.016,-0.092,9.792,0.0,0.0,0.0
1775933726.4086905,-15.18,-0.01,-0.68,0.005,-0.091,9.793,-0.01,0.0,0.0
1775933726.418705,-15.18,-0.01,-0.68,-0.002,-0.097,9.781,-0.01,0.0,-0.01
1775933726.4286966,-15.18,-0.02,-0.68,-0.005,-0.114,9.773,-0.01,0.0,-0.01
1775933726.4386864,-15.18,-0.02,-0.68,-0.017,-0.108,9.775,-0.01,0.0,-0.01
1775933726.4487,-15.18,-0.02,-0.68,-0.017,-0.135,9.769,-0.01,-0.01,0.0
1775933726.4586754,-15.19,-0.02,-0.68,-0.004,-0.133,9.775,0.0,-0.01,0.0
1775933726.4686766,-15.19,-0.02,-0.68,-0.011,-0.128,9.785,-0.01,-0.01,0.0
1775933726.478659,-15.19,-0.01,-0.68,-0.004,-0.115,9.774,0.0,0.0,-0.01
1775933726.488647,-15.18,-0.02,-0.67,0.011,-0.107,9.769,0.0,-0.01,0.0
1775933726.4986434,-15.18,-0.01,-0.68,-0.001,-0.096,9.78,0.0,0.0,-0.01
1775933726.5086458,-15.18,-0.01,-0.68,0.001,-0.104,9.784,0.0,-0.01,-0.01
1775933726.5186455,-15.18,-0.01,-0.68,0.018,-0.091,9.775,-0.01,-0.01,-0.01
1775933726.5286477,-15.18,-0.01,-0.68,-0.001,-0.108,9.779,-0.01,0.0,0.0
1775933726.5386467,-15.18,-0.01,-0.68,-0.008,-0.099,9.78,-0.01,0.0,-0.01
1775933726.5486505,-15.18,-0.02,-0.67,-0.006,-0.125,9.78,0.0,-0.01,-0.01
1775933726.5586796,-15.18,-0.02,-0.67,-0.019,-0.119,9.781,0.0,0.0,-0.01
1775933726.5686846,-15.18,-0.01,-0.68,-0.004,-0.116,9.781,-0.01,-0.01,0.0
1775933726.5786679,-15.18,-0.01,-0.68,-0.002,-0.111,9.788,0.0,-0.01,0.0
1775933726.588651,-15.18,-0.01,-0.68,0.006,-0.115,9.781,0.0,0.0,0.0
1775933726.5986466,-15.19,-0.01,-0.67,0.01,-0.09,9.784,-0.01,0.0,0.0
1775933726.6086857,-15.18,-0.01,-0.67,0.006,-0.101,9.78,0.0,-0.01,0.0
1775933726.6186666,-15.18,-0.01,-0.68,-0.002,-0.099,9.785,-0.01,0.0,-0.01
1775933726.6289198,-15.18,-0.02,-0.67,0.0,-0.115,9.785,-0.01,0.0,-0.01
1775933726.6386502,-15.18,-0.02,-0.67,-0.004,-0.127,9.79,0.0,0.0,-0.01
1775933726.648653,-15.18,-0.01,-0.68,-0.002,-0.126,9.788,-0.01,0.0,0.0
1775933726.6586502,-15.19,-0.01,-0.68,0.01,-0.121,9.778,0.0,-0.01,0.0
1775933726.6686544,-15.19,-0.01,-0.68,-0.001,-0.101,9.782,-0.01,-0.01,0.0
1775933726.678618,-15.19,-0.01,-0.67,0.004,-0.092,9.774,0.0,0.0,0.0
1775933726.6886027,-15.18,-0.01,-0.67,0.004,-0.096,9.773,0.0,-0.01,-0.01
1775933726.6986496,-15.18,-0.01,-0.67,-0.013,-0.093,9.778,0.0,0.0,-0.01
1775933726.7086527,-15.18,-0.01,-0.67,-0.004,-0.109,9.774,-0.01,-0.01,-0.01
1775933726.7186172,-15.18,-0.01,-0.67,-0.006,-0.116,9.779,-0.01,-0.01,0.0
1775933726.7286549,-15.18,-0.01,-0.67,0.001,-0.119,9.782,-0.01,-0.01,0.0
1775933726.7386978,-15.18,-0.0,-0.67,-0.002,-0.125,9.79,0.0,0.0,0.0
1775933726.7486706,-15.17,-0.01,-0.67,0.001,-0.123,9.778,-0.01,0.0,-0.01
1775933726.758642,-15.18,-0.01,-0.68,-0.005,-0.116,9.77,0.0,0.0,-0.01
1775933726.7686281,-15.18,-0.01,-0.67,-0.018,-0.105,9.775,-0.01,0.0,0.0
1775933726.7785952,-15.18,-0.01,-0.67,-0.014,-0.11,9.78,0.0,-0.01,0.0
1775933726.788633,-15.18,-0.01,-0.67,-0.013,-0.097,9.782,-0.01,-0.01,0.0
1775933726.7986128,-15.18,-0.01,-0.67,-0.006,-0.105,9.781,-0.01,0.0,-0.01
1775933726.8093598,-15.17,-0.01,-0.67,0.007,-0.117,9.781,0.0,-0.01,-0.01
1775933726.81867,-15.18,-0.01,-0.68,0.018,-0.123,9.781,-0.01,0.0,-0.01
1775933726.8292897,-15.18,-0.01,-0.68,0.011,-0.133,9.787,-0.01,0.0,0.0
1775933726.8393283,-15.19,-0.01,-0.68,0.024,-0.114,9.782,-0.01,0.0,0.0
1775933726.849526,-15.19,-0.01,-0.68,-0.011,-0.11,9.79,-0.01,0.0,0.0
1775933726.858627,-15.19,-0.02,-0.67,-0.016,-0.108,9.782,0.0,0.0,0.0
1775933726.8686244,-15.18,-0.02,-0.67,-0.025,-0.109,9.774,0.0,-0.01,-0.01
1775933726.878608,-15.17,-0.02,-0.67,-0.029,-0.117,9.775,0.0,0.0,-0.01
1775933726.8886065,-15.18,-0.01,-0.68,-0.007,-0.121,9.784,0.0,-0.01,-0.01
1775933726.8986049,-15.18,-0.01,-0.68,0.0,-0.121,9.791,-0.01,-0.01,0.0
1775933726.9086065,-15.18,-0.01,-0.68,0.023,-0.113,9.786,0.0,-0.01,0.0
1775933726.9185927,-15.18,-0.0,-0.67,0.014,-0.11,9.792,0.0,0.0,0.0
1775933726.9285903,-15.18,-0.01,-0.67,0.006,-0.115,9.792,-0.01,0.0,-0.01
1775933726.9377615,-15.18,-0.01,-0.67,-0.002,-0.11,9.781,0.0,0.0,-0.01
1775933726.9485726,-15.18,-0.02,-0.67,-0.012,-0.102,9.772,-0.01,0.0,-0.01
1775933726.9577925,-15.18,-0.02,-0.67,-0.025,-0.107,9.77,-0.01,0.0,0.0
1775933726.967766,-15.18,-0.02,-0.67,-0.019,-0.109,9.779,-0.01,-0.01,0.0
1775933726.9785805,-15.18,-0.02,-0.67,-0.006,-0.113,9.782,-0.01,-0.01,-0.01
1775933726.9886053,-15.18,-0.01,-0.68,-0.005,-0.127,9.785,-0.01,-0.01,-0.01
1775933726.9985864,-15.18,-0.01,-0.68,0.01,-0.128,9.786,0.0,-0.01,-0.01
1775933727.008574,-15.18,-0.01,-0.68,0.008,-0.11,9.792,-0.01,-0.01,0.0
1775933727.0177295,-15.19,-0.01,-0.67,0.011,-0.105,9.787,0.0,0.0,0.0
1775933727.02859,-15.18,-0.01,-0.67,0.008,-0.087,9.784,0.0,0.0,0.0
1775933727.0385833,-15.18,-0.02,-0.67,-0.008,-0.083,9.784,-0.01,0.0,-0.01
1775933727.0477421,-15.18,-0.02,-0.67,-0.014,-0.104,9.775,0.0,0.0,-0.01
1775933727.0577416,-15.18,-0.02,-0.67,-0.016,-0.104,9.782,-0.01,0.0,-0.01
1775933727.0677538,-15.17,-0.02,-0.67,-0.012,-0.132,9.778,-0.01,-0.01,-0.01
1775933727.0777411,-15.18,-0.01,-0.68,-0.007,-0.134,9.784,0.0,-0.01,-0.01
1775933727.087746,-15.17,-0.01,-0.68,-0.001,-0.128,9.791,-0.01,-0.01,0.0
1775933727.097741,-15.17,-0.01,-0.67,0.001,-0.12,9.784,0.0,-0.01,-0.01
1775933727.1077669,-15.18,-0.01,-0.67,0.01,-0.101,9.788,0.0,-0.01,-0.01
1775933727.1177294,-15.18,-0.01,-0.67,0.013,-0.096,9.793,0.0,0.0,0.0
1775933727.128573,-15.18,-0.01,-0.67,0.01,-0.095,9.781,-0.01,0.0,0.0
1775933727.1377454,-15.18,-0.01,-0.67,0.0,-0.101,9.784,-0.01,0.0,0.0
1775933727.1477644,-15.18,-0.01,-0.67,-0.005,-0.107,9.781,-0.01,0.0,-0.01
1775933727.1577272,-15.17,-0.02,-0.67,-0.012,-0.122,9.787,0.0,0.0,-0.01
1775933727.167731,-15.17,-0.02,-0.67,-0.023,-0.125,9.787,0.0,0.0,-0.01
1775933727.1777291,-15.17,-0.02,-0.67,-0.024,-0.131,9.781,0.0,-0.01,-0.01
1775933727.187728,-15.17,-0.01,-0.68,-0.022,-0.129,9.786,0.0,-0.01,0.0
1775933727.1977334,-15.17,-0.01,-0.67,-0.006,-0.116,9.787,0.0,-0.01,0.0
1775933727.2076843,-15.17,-0.01,-0.67,0.0,-0.101,9.793,0.0,-0.01,0.0
1775933727.217751,-15.17,-0.0,-0.67,0.012,-0.103,9.788,0.0,-0.01,0.0
1775933727.2277107,-15.17,-0.0,-0.67,0.014,-0.104,9.794,0.0,0.0,-0.01
1775933727.237696,-15.18,-0.01,-0.67,0.023,-0.107,9.79,-0.01,0.0,0.0
1775933727.2477007,-15.18,-0.01,-0.67,0.01,-0.101,9.784,-0.01,0.0,0.0
1775933727.257712,-15.18,-0.01,-0.67,0.004,-0.108,9.784,-0.01,0.0,0.0
1775933727.2676961,-15.18,-0.02,-0.67,-0.026,-0.121,9.788,0.0,0.0,0.0
1775933727.277699,-15.17,-0.02,-0.67,-0.011,-0.111,9.78,-0.01,0.0,-0.01
1775933727.2877138,-15.17,-0.02,-0.67,-0.019,-0.132,9.776,0.0,-0.01,-0.01
1775933727.297714,-15.18,-0.01,-0.68,-0.01,-0.114,9.767,0.0,0.0,-0.01
1775933727.3077116,-15.18,-0.01,-0.67,0.011,-0.122,9.77,-0.01,-0.01,0.0
1775933727.3176997,-15.18,-0.01,-0.67,0.019,-0.121,9.772,0.0,0.0,0.0
1775933727.327697,-15.18,-0.01,-0.68,0.016,-0.11,9.773,-0.01,-0.01,0.0
1775933727.3376853,-15.18,-0.0,-0.67,0.022,-0.101,9.779,-0.01,0.0,-0.01
1775933727.3476977,-15.18,-0.01,-0.67,0.01,-0.107,9.77,0.0,-0.01,-0.01
1775933727.3576987,-15.18,-0.01,-0.68,-0.02,-0.092,9.779,-0.01,0.0,-0.01
1775933727.367685,-15.17,-0.02,-0.67,-0.016,-0.117,9.769,-0.01,0.0,-0.01
1775933727.3776984,-15.17,-0.02,-0.67,-0.023,-0.131,9.776,0.0,-0.01,-0.01
1775933727.3877122,-15.17,-0.01,-0.68,-0.014,-0.14,9.785,-0.01,-0.01,0.0
1775933727.3976977,-15.18,-0.01,-0.68,0.001,-0.139,9.775,-0.01,-0.01,0.0
1775933727.4076843,-15.18,-0.01,-0.68,0.018,-0.128,9.77,0.0,0.0,0.0
1775933727.4176698,-15.18,-0.01,-0.68,0.006,-0.111,9.781,0.0,-0.01,0.0
1775933727.4276407,-15.18,-0.01,-0.68,0.007,-0.096,9.788,0.0,0.0,-0.01
1775933727.4376833,-15.17,-0.01,-0.68,0.001,-0.095,9.776,0.0,0.0,-0.01
1775933727.4476964,-15.17,-0.01,-0.68,-0.013,-0.104,9.768,-0.01,0.0,-0.01
1775933727.4576745,-15.17,-0.01,-0.68,-0.005,-0.11,9.774,-0.01,-0.01,-0.01
1775933727.4676564,-15.17,-0.01,-0.68,-0.012,-0.12,9.776,-0.01,-0.01,0.0
1775933727.4776716,-15.17,-0.01,-0.68,-0.002,-0.12,9.776,-0.01,-0.01,0.0
1775933727.4876456,-15.17,-0.01,-0.68,0.0,-0.113,9.779,0.0,-0.01,-0.01
1775933727.4977148,-15.17,-0.01,-0.68,0.0,-0.121,9.782,0.0,0.0,-0.01
1775933727.5076828,-15.17,-0.01,-0.68,-0.005,-0.111,9.786,0.0,-0.01,-0.01
1775933727.5176888,-15.17,-0.01,-0.68,0.0,-0.102,9.792,-0.01,0.0,0.0
1775933727.527671,-15.18,-0.01,-0.67,-0.004,-0.095,9.793,-0.01,-0.01,0.0
1775933727.5376709,-15.18,-0.01,-0.68,0.0,-0.096,9.792,-0.01,0.0,0.0
1775933727.5476859,-15.18,-0.01,-0.68,-0.004,-0.097,9.787,-0.01,-0.01,-0.01
1775933727.5576732,-15.17,-0.01,-0.68,-0.011,-0.125,9.785,0.0,0.0,-0.01
1775933727.5676715,-15.17,-0.02,-0.67,-0.001,-0.113,9.78,0.0,-0.01,-0.01
1775933727.5776582,-15.17,-0.01,-0.68,-0.019,-0.127,9.787,-0.01,0.0,-0.01
1775933727.587655,-15.17,-0.01,-0.68,-0.004,-0.139,9.77,0.0,-0.01,0.0
1775933727.5976577,-15.17,-0.01,-0.68,-0.012,-0.119,9.781,-0.01,-0.01,0.0
1775933727.6076562,-15.17,-0.01,-0.67,-0.006,-0.113,9.788,-0.01,-0.01,0.0
1775933727.6176586,-15.17,-0.01,-0.68,0.0,-0.109,9.792,0.0,-0.01,-0.01
1775933727.6276557,-15.17,-0.01,-0.67,-0.001,-0.096,9.797,-0.01,0.0,-0.01
1775933727.6376922,-15.17,-0.0,-0.67,0.011,-0.102,9.776,-0.01,0.0,0.0
1775933727.6476567,-15.17,-0.01,-0.68,0.018,-0.104,9.78,-0.01,-0.01,-0.01
1775933727.6580744,-15.17,-0.01,-0.68,-0.01,-0.102,9.786,-0.01,0.0,-0.01
1775933727.6676733,-15.17,-0.01,-0.68,0.002,-0.127,9.766,0.0,0.0,-0.01
1775933727.6776931,-15.17,-0.01,-0.68,-0.014,-0.126,9.773,-0.01,-0.01,-0.01
1775933727.6876595,-15.17,-0.01,-0.68,-0.001,-0.113,9.773,0.0,0.0,0.0
1775933727.6976628,-15.17,-0.01,-0.68,0.004,-0.114,9.779,0.0,-0.01,0.0
1775933727.7076597,-15.18,-0.01,-0.68,-0.005,-0.102,9.784,0.0,0.0,0.0
1775933727.7176301,-15.17,-0.01,-0.67,0.01,-0.098,9.778,0.0,-0.01,0.0
1775933727.7276623,-15.17,-0.01,-0.67,-0.005,-0.092,9.779,0.0,0.0,-0.01
1775933727.7376606,-15.17,-0.01,-0.67,0.004,-0.11,9.778,0.0,-0.01,-0.01
1775933727.747658,-15.17,-0.01,-0.67,0.007,-0.109,9.779,-0.01,0.0,-0.01
1775933727.7576938,-15.17,-0.01,-0.67,0.007,-0.116,9.786,0.0,-0.01,0.0
1775933727.7676702,-15.17,-0.01,-0.68,-0.002,-0.107,9.792,-0.01,0.0,0.0
1775933727.7776425,-15.17,-0.01,-0.68,0.006,-0.11,9.787,-0.01,0.0,0.0
1775933727.7876675,-15.17,-0.01,-0.67,-0.002,-0.104,9.788,0.0,0.0,0.0
1775933727.7976499,-15.17,-0.0,-0.67,-0.005,-0.105,9.793,0.0,0.0,0.0
1775933727.8076441,-15.17,-0.01,-0.67,-0.005,-0.102,9.793,0.0,-0.01,0.0
1775933727.8176472,-15.17,-0.0,-0.67,-0.004,-0.105,9.796,0.0,-0.01,-0.01
1775933727.8276663,-15.17,-0.0,-0.67,0.001,-0.103,9.793,-0.01,-0.01,-0.01
1775933727.8383374,-15.17,-0.0,-0.67,0.006,-0.11,9.794,-0.01,-0.01,-0.01
1775933727.8484244,-15.17,-0.0,-0.67,0.026,-0.119,9.792,-0.01,0.0,-0.01
1775933727.8576615,-15.17,-0.0,-0.67,0.006,-0.123,9.791,-0.01,0.0,0.0
1775933727.8676279,-15.18,-0.0,-0.67,0.002,-0.114,9.782,-0.01,0.0,0.0
1775933727.877656,-15.18,-0.01,-0.67,-0.017,-0.105,9.786,0.0,0.0,0.0
1775933727.8876534,-15.17,-0.01,-0.67,-0.028,-0.108,9.773,-0.01,0.0,0.0
1775933727.8976676,-15.17,-0.01,-0.67,-0.03,-0.113,9.768,0.0,-0.01,-0.01
1775933727.9076593,-15.17,-0.01,-0.67,-0.02,-0.116,9.778,0.0,-0.01,-0.01
1775933727.9176686,-15.17,-0.01,-0.67,-0.014,-0.123,9.787,0.0,-0.01,-0.01
1775933727.927634,-15.17,-0.0,-0.67,0.008,-0.129,9.792,0.0,-0.01,0.0
1775933727.937634,-15.17,-0.0,-0.67,0.026,-0.105,9.788,-0.01,-0.01,0.0
1775933727.9476116,-15.17,-0.0,-0.67,0.02,-0.108,9.79,0.0,0.0,0.0
1775933727.957636,-15.17,-0.0,-0.67,0.005,-0.105,9.787,0.0,0.0,0.0
1775933727.967615,-15.17,-0.01,-0.67,0.004,-0.108,9.786,-0.01,0.0,0.0
1775933727.977596,-15.18,-0.01,-0.67,-0.006,-0.107,9.77,-0.01,0.0,0.0
1775933727.987604,-15.19,-0.01,-0.68,-0.019,-0.122,9.773,-0.01,0.0,0.0
1775933727.9976125,-15.19,-0.01,-0.68,-0.004,-0.122,9.774,-0.01,-0.01,0.0
1775933728.0075843,-15.19,-0.01,-0.68,0.005,-0.132,9.782,-0.01,-0.01,0.0
1775933728.0176156,-15.18,-0.01,-0.68,0.002,-0.122,9.79,-0.01,-0.01,-0.01
1775933728.0275855,-15.17,0.0,-0.68,0.023,-0.17,9.776,0.0,-0.01,-0.01
1775933728.0367756,-15.17,0.01,-0.67,0.012,-0.099,9.776,0.0,-0.01,-0.01
1775933728.047619,-15.18,0.01,-0.66,0.026,-0.137,9.762,0.0,-0.01,0.0
1775933728.057619,-15.2,0.01,-0.67,-0.031,-0.09,9.77,0.0,-0.01,0.0
1775933728.067603,-15.2,0.0,-0.66,0.041,-0.043,9.676,-0.01,0.0,0.01
1775933728.0768075,-15.2,-0.0,-0.66,-0.002,-0.08,9.683,-0.01,0.0,0.0
1775933728.0867963,-15.18,-0.01,-0.68,-0.007,-0.174,9.702,0.0,0.0,-0.01
1775933728.0967948,-15.17,-0.01,-0.71,0.005,-0.186,9.731,-0.02,0.0,-0.01
1775933728.1067605,-15.17,-0.02,-0.72,0.005,-0.175,9.715,-0.02,0.0,-0.01
1775933728.11676,-15.18,-0.03,-0.72,0.03,-0.15,9.632,-0.01,0.0,0.0
1775933728.1276276,-15.2,-0.02,-0.72,0.028,-0.117,9.663,-0.01,0.0,0.0
1775933728.137629,-15.2,-0.03,-0.7,-0.037,-0.063,9.701,0.0,-0.01,0.0
1775933728.146803,-15.2,-0.03,-0.69,-0.029,-0.049,9.721,0.0,0.0,0.0
1775933728.1567662,-15.2,-0.03,-0.68,-0.056,-0.031,9.707,0.0,-0.01,-0.01
1775933728.1667886,-15.2,-0.01,-0.67,-0.002,-0.025,9.682,0.0,-0.01,-0.01
1775933728.1767516,-15.2,0.0,-0.66,0.001,-0.092,9.715,0.0,-0.02,0.0
1775933728.1867712,-15.2,0.01,-0.67,0.044,-0.105,9.741,-0.01,-0.01,0.0
1775933728.196752,-15.2,0.02,-0.68,0.047,-0.137,9.76,-0.01,-0.01,0.0
1775933728.206749,-15.2,0.01,-0.69,0.069,-0.152,9.736,-0.01,0.0,-0.01
1775933728.216756,-15.2,0.02,-0.69,0.062,-0.175,9.747,-0.01,0.0,-0.01
1775933728.2300284,-15.2,0.02,-0.7,0.035,-0.148,9.763,-0.01,-0.01,-0.01
1775933728.2568557,-15.21,0.02,-0.68,0.011,-0.09,9.742,0.0,-0.01,0.0
1775933728.268926,-15.23,0.01,-0.65,-0.026,-0.035,9.621,0.01,-0.01,0.01
1775933728.2746625,-15.25,0.02,-0.62,-0.05,0.077,9.569,0.01,0.0,0.01
1775933728.2816675,-15.24,0.03,-0.55,-0.054,0.141,9.632,0.01,-0.01,0.0
1775933728.288144,-15.22,0.05,-0.49,-0.053,0.138,9.678,0.02,-0.02,-0.01
1775933728.2947283,-15.17,0.07,-0.45,-0.044,0.061,9.713,0.02,-0.02,-0.02
1775933728.301274,-15.15,0.08,-0.43,-0.04,-0.102,9.714,0.02,-0.02,-0.02
1775933728.3080542,-15.13,0.08,-0.44,-0.055,-0.231,9.679,0.01,-0.01,-0.02
1775933728.3179817,-15.14,0.07,-0.46,-0.065,-0.321,9.697,0.0,-0.01,-0.01
1775933728.3284607,-15.15,0.08,-0.48,-0.08,-0.389,9.729,0.0,-0.01,0.0
1775933728.338726,-15.16,0.08,-0.5,-0.081,-0.426,9.75,0.0,-0.01,0.0
1775933728.3483286,-15.16,0.08,-0.51,-0.047,-0.383,9.741,0.0,-0.01,0.0
1775933728.3567967,-15.16,0.09,-0.51,0.007,-0.344,9.712,0.0,-0.01,0.0
1775933728.367576,-15.15,0.1,-0.51,0.073,-0.304,9.738,0.0,-0.01,-0.01
1775933728.376793,-15.16,0.11,-0.54,0.081,-0.307,9.757,0.0,-0.01,-0.01
1775933728.3868127,-15.18,0.09,-0.57,0.09,-0.277,9.77,-0.02,0.0,0.0
1775933728.3967354,-15.22,0.06,-0.62,0.078,-0.251,9.737,-0.02,0.01,0.02
1775933728.4067552,-15.26,0.01,-0.68,0.011,-0.199,9.683,-0.03,0.02,0.02
1775933728.4174423,-15.28,-0.07,-0.77,-0.078,-0.129,9.594,-0.03,0.02,0.02
1775933728.4281387,-15.27,-0.12,-0.82,-0.127,-0.114,9.642,-0.05,0.03,0.0
1775933728.4375231,-15.25,-0.15,-0.84,-0.143,-0.105,9.687,-0.03,0.02,-0.02
1775933728.4467316,-15.24,-0.15,-0.83,-0.122,-0.096,9.699,-0.02,0.0,-0.02
1775933728.4588609,-15.25,-0.15,-0.81,-0.096,-0.222,9.652,0.0,-0.01,-0.01
1775933728.4673905,-15.29,-0.16,-0.85,-0.012,-0.235,9.654,0.01,-0.01,0.01
1775933728.476832,-15.33,-0.16,-0.86,0.038,-0.126,9.695,-0.02,0.0,0.02
1775933728.487897,-15.37,-0.17,-0.86,0.109,-0.068,9.726,-0.02,0.0,0.02
1775933728.497476,-15.39,-0.17,-0.86,0.14,-0.03,9.742,-0.01,0.01,0.02
1775933728.5067275,-15.4,-0.18,-0.84,0.14,-0.056,9.741,-0.01,0.01,0.01
1775933728.5169675,-15.41,-0.2,-0.83,0.135,-0.102,9.666,0.0,0.01,0.0
1775933728.5275884,-15.42,-0.22,-0.82,0.126,-0.066,9.634,0.0,0.02,0.0
1775933728.536693,-15.45,-0.23,-0.79,0.049,-0.04,9.681,0.0,0.01,0.01
1775933728.547503,-15.49,-0.24,-0.74,0.084,-0.051,9.714,0.02,0.0,0.02
1775933728.5580857,-15.54,-0.26,-0.7,0.059,-0.087,9.739,0.02,0.01,0.02
1775933728.5679135,-15.6,-0.27,-0.65,0.063,-0.074,9.741,0.02,0.01,0.02
1775933728.5766768,-15.66,-0.27,-0.58,0.101,0.09,9.654,0.02,0.0,0.03
1775933728.586853,-15.7,-0.21,-0.42,0.12,0.17,9.626,0.03,-0.01,0.02
1775933728.596871,-15.72,-0.17,-0.27,0.168,-0.017,9.675,0.08,-0.03,0.02
1775933728.6070778,-15.75,-0.13,-0.19,0.196,-0.038,9.702,0.07,-0.02,0.01
1775933728.6166773,-15.76,-0.11,-0.11,0.18,0.061,9.73,0.04,-0.02,0.01
1775933728.6268451,-15.75,-0.13,-0.06,0.182,-0.019,9.751,0.04,0.0,0.0
1775933728.6366765,-15.75,-0.13,-0.05,0.109,-0.037,9.767,0.02,0.01,-0.01
1775933728.6466944,-15.74,-0.14,-0.04,0.057,-0.11,9.778,0.01,0.0,-0.01
1775933728.6566756,-15.73,-0.16,-0.06,0.001,-0.216,9.786,0.0,0.0,-0.01
1775933728.6666744,-15.72,-0.17,-0.13,-0.056,-0.329,9.792,-0.01,0.0,-0.01
1775933728.6766844,-15.7,-0.17,-0.21,-0.117,-0.396,9.79,-0.03,0.0,-0.01
1775933728.686709,-15.69,-0.17,-0.29,-0.143,-0.433,9.75,-0.04,-0.01,-0.01
1775933728.6966805,-15.67,-0.16,-0.37,-0.147,-0.471,9.642,-0.03,-0.01,-0.02
1775933728.706674,-15.65,-0.13,-0.41,-0.117,-0.489,9.598,-0.03,-0.02,-0.02
1775933728.716997,-15.63,-0.11,-0.44,-0.037,-0.505,9.611,-0.02,-0.02,-0.02
1775933728.7266722,-15.63,-0.08,-0.46,0.024,-0.484,9.665,-0.01,-0.02,-0.02
1775933728.736692,-15.62,-0.05,-0.46,0.085,-0.42,9.703,0.0,-0.02,-0.01
1775933728.7470982,-15.62,-0.04,-0.44,0.186,-0.35,9.682,0.01,-0.01,-0.01
1775933728.756679,-15.63,-0.03,-0.43,0.204,-0.283,9.664,0.01,0.0,0.0
1775933728.7667184,-15.65,-0.04,-0.44,0.214,-0.23,9.689,0.0,0.0,0.01
1775933728.7768853,-15.68,-0.06,-0.46,0.14,-0.231,9.723,-0.01,0.01,0.01
1775933728.7867832,-15.7,-0.1,-0.47,0.086,-0.195,9.737,-0.02,0.02,0.02
1775933728.8026223,-15.73,-0.13,-0.47,0.023,-0.175,9.713,-0.01,0.02,0.02
1775933728.8088272,-15.73,-0.14,-0.43,-0.022,0.023,9.517,0.0,0.01,0.01
1775933729.1749165,-15.72,-0.14,-0.33,-0.029,-0.054,9.452,0.02,-0.01,-0.01
1775933730.023506,-15.7,-0.12,-0.23,-0.019,-0.09,9.399,0.04,-0.01,-0.02
1775933730.0256603,-15.68,-0.11,-0.13,0.04,-0.15,9.434,0.05,-0.02,-0.02
1775933730.0319872,-15.68,-0.09,-0.03,0.063,-0.153,9.488,0.05,0.0,-0.02
1775933730.0362535,-15.7,-0.07,0.08,0.049,-0.177,9.567,0.06,-0.02,0.0
1775933730.061575,-15.72,-0.08,0.19,0.079,-0.206,9.591,0.06,-0.01,0.01
1775933730.0629754,-15.74,-0.08,0.29,0.069,-0.296,9.647,0.07,0.0,0.01
1775933730.0644026,-15.76,-0.1,0.37,0.254,-0.341,9.434,0.05,0.01,0.01
1775933730.0661018,-15.79,-0.06,0.4,0.208,-0.46,9.375,0.05,0.01,0.01
1775933730.0675318,-15.84,-0.03,0.41,0.054,-0.519,9.384,0.03,-0.02,0.02
1775933730.0689664,-15.91,-0.05,0.44,0.16,-0.48,9.41,0.02,-0.01,0.02
1775933730.0703454,-16.01,-0.06,0.55,0.177,-0.496,9.464,0.04,0.01,0.04
1775933730.0717185,-16.1,-0.07,0.67,0.188,-0.481,9.53,0.07,0.01,0.05
1775933730.0731254,-16.23,-0.11,0.83,0.105,-0.472,9.605,0.08,0.01,0.05
1775933730.0745068,-16.38,-0.16,0.96,0.128,-0.52,9.659,0.09,0.02,0.07
1775933730.0758784,-16.52,-0.21,1.04,0.137,-0.509,9.699,0.08,0.03,0.08
1775933730.1047747,-16.66,-0.27,1.08,0.226,-0.511,9.729,0.05,0.03,0.08
1775933730.1077235,-16.79,-0.33,1.1,0.116,-0.491,9.751,0.03,0.04,0.07
1775933730.117362,-16.91,-0.42,1.12,0.144,-0.553,9.735,0.02,0.04,0.07
1775933730.1196997,-17.04,-0.48,1.16,0.147,-0.607,9.687,0.03,0.05,0.06
1775933730.1299353,-17.17,-0.5,1.24,0.22,-0.659,9.563,0.05,0.03,0.07
1775933730.1328313,-17.3,-0.49,1.33,0.224,-0.753,9.489,0.07,0.02,0.07
1775933730.1346173,-17.46,-0.46,1.4,0.237,-0.895,9.408,0.07,0.0,0.07
1775933730.1369212,-17.63,-0.44,1.45,0.194,-1.077,9.512,0.07,-0.02,0.08
1775933730.1395628,-17.87,-0.44,1.52,0.207,-1.324,9.439,0.07,-0.01,0.1
1775933730.141905,-18.16,-0.45,1.64,0.154,-1.431,9.436,0.09,0.01,0.14
1775933730.1441462,-18.5,-0.51,1.8,0.172,-1.605,9.476,0.11,0.02,0.16
1775933730.1464787,-18.9,-0.61,1.92,0.273,-1.924,9.362,0.13,0.05,0.19
1775933730.1492534,-19.36,-0.69,1.99,0.402,-2.054,9.325,0.13,0.07,0.23
1775933730.1516073,-19.87,-0.78,2.04,0.536,-2.105,9.172,0.1,0.08,0.25
1775933730.1539216,-20.44,-0.85,2.04,0.478,-2.302,9.133,0.08,0.08,0.28
1775933730.1567366,-21.09,-0.99,2.04,0.473,-2.415,9.264,0.06,0.07,0.31
1775933730.1592627,-21.83,-1.08,2.03,0.606,-2.451,9.33,0.06,0.08,0.36
1775933730.1621234,-22.65,-1.21,2.11,0.672,-2.415,9.329,0.07,0.09,0.41
1775933730.1649036,-23.54,-1.3,2.17,0.872,-2.308,9.405,0.08,0.1,0.45
1775933730.166348,-24.51,-1.37,2.28,0.881,-2.627,9.3,0.11,0.1,0.5
1775933730.1677458,-25.54,-1.42,2.4,0.946,-2.753,9.181,0.12,0.09,0.53
1775933730.1691635,-26.62,-1.43,2.54,1.049,-2.578,9.175,0.12,0.08,0.56
1775933730.1705408,-27.76,-1.46,2.67,0.176,-2.825,9.183,0.12,0.06,0.6
1775933730.17192,-28.94,-1.64,2.85,0.2,-2.668,8.676,0.15,0.09,0.63
1775933730.1733236,-30.18,-1.55,2.98,0.406,-2.674,8.494,0.15,0.04,0.66
1775933730.1746957,-31.46,-1.44,3.11,0.589,-2.848,8.489,0.13,0.01,0.69
1775933730.1760795,-32.73,-1.33,3.12,0.72,-3.03,8.48,0.12,0.0,0.69
1775933730.17745,-34.03,-1.2,3.05,0.735,-3.181,8.599,0.08,0.01,0.7
1775933730.1788445,-35.33,-1.1,2.88,0.772,-3.199,8.793,0.03,-0.01,0.7
1775933730.1802545,-36.62,-1.01,2.7,0.86,-2.818,8.717,-0.02,0.01,0.7
1775933730.182998,-37.88,-0.86,2.74,0.641,-2.818,9.01,-0.02,0.0,0.69
1775933730.1848044,-39.16,-0.83,2.78,0.362,-2.832,9.224,0.08,-0.02,0.69
1775933730.1861804,-40.43,-0.88,2.76,0.31,-2.876,9.384,0.08,0.02,0.69
1775933730.188382,-41.7,-0.96,2.7,0.414,-2.893,9.496,0.06,0.07,0.69
1775933730.1905825,-42.99,-1.03,2.6,0.611,-2.905,9.556,0.03,0.09,0.69
1775933730.192569,-44.27,-1.07,2.44,0.72,-2.885,9.624,0.01,0.09,0.69
1775933730.194091,-45.55,-1.1,2.25,0.709,-2.872,9.673,-0.02,0.08,0.69
1775933730.1954958,-46.84,-1.16,2.0,0.632,-2.837,9.712,-0.05,0.07,0.69
1775933730.2056587,-144.35,-1.85,0.75,0.353,-2.025,9.729,-0.09,0.08,0.69
1775933730.2148142,-145.14,-2.06,0.76,0.593,-1.928,9.72,0.04,0.18,0.44
1775933730.225679,-145.88,-2.23,0.72,0.642,-1.892,9.732,0.02,0.15,0.42
1775933730.2356465,-146.62,-2.46,0.62,0.382,-2.053,9.694,0.0,0.12,0.4
1775933730.2456644,-147.36,-2.67,0.52,0.321,-2.015,9.563,-0.02,0.14,0.4
1775933730.2556293,-148.08,-2.94,0.35,0.248,-2.112,9.494,-0.03,0.12,0.4
1775933730.2656467,-148.73,-3.19,0.13,0.418,-2.069,9.426,-0.06,0.15,0.38
1775933730.2756188,-149.35,-3.43,-0.15,0.527,-1.815,9.533,-0.11,0.15,0.35
1775933730.2856474,-149.97,-3.56,-0.31,0.74,-1.565,9.614,-0.12,0.15,0.34
1775933730.2948115,-150.55,-3.67,-0.49,0.816,-1.535,9.66,-0.08,0.11,0.33
1775933730.3057716,-151.11,-3.76,-0.69,0.684,-1.547,9.693,-0.09,0.08,0.31
1775933730.3156462,-151.71,-3.85,-0.83,0.643,-1.485,9.719,-0.09,0.08,0.31
1775933730.3248117,-152.29,-3.89,-0.97,0.55,-1.571,9.733,-0.06,0.05,0.32
1775933730.3356268,-152.84,-3.99,-1.17,0.374,-1.806,9.63,-0.06,0.04,0.31
1775933730.3448112,-153.37,-4.11,-1.47,0.269,-2.051,9.371,-0.09,0.06,0.29
1775933730.3556263,-153.9,-4.26,-1.79,0.232,-1.941,9.403,-0.12,0.07,0.28
1775933730.3647952,-154.42,-4.35,-2.03,0.407,-1.586,9.521,-0.15,0.08,0.27
1775933730.3756125,-154.89,-4.48,-2.18,0.406,-1.256,9.61,-0.13,0.08,0.27
1775933730.3847964,-155.35,-4.6,-2.26,0.407,-1.031,9.675,-0.09,0.08,0.25
1775933730.3948069,-155.78,-4.74,-2.28,0.428,-0.891,9.721,-0.06,0.08,0.24
1775933730.4056115,-156.22,-4.85,-2.19,0.451,-0.753,9.759,-0.02,0.08,0.24
1775933730.4147944,-156.61,-4.93,-2.06,0.568,-0.734,9.782,0.04,0.08,0.24
1775933730.4247847,-156.98,-5.05,-1.97,0.256,-1.223,9.703,0.06,0.06,0.22
1775933730.4348128,-157.33,-5.23,-2.05,0.002,-1.691,9.423,0.05,0.08,0.2
1775933730.444801,-157.68,-5.51,-2.27,-0.022,-1.775,9.403,-0.02,0.11,0.19
1775933730.4548337,-158.03,-5.74,-2.47,0.426,-1.342,9.508,-0.1,0.15,0.18
1775933730.4648097,-158.35,-5.78,-2.52,0.584,-0.878,9.604,-0.11,0.14,0.18
1775933730.4747865,-158.62,-5.89,-2.51,0.675,-0.483,9.676,-0.05,0.08,0.16
1775933730.484793,-158.85,-5.89,-2.39,0.713,-0.28,9.727,-0.02,0.08,0.14
1775933730.4947937,-159.05,-5.86,-2.16,0.639,-0.281,9.762,0.05,0.04,0.13
1775933730.5048058,-159.21,-5.86,-1.96,-0.066,-1.019,9.762,0.11,0.01,0.11
1775933730.5148022,-159.35,-6.16,-2.13,-0.182,-1.578,9.469,0.11,0.03,0.08
1775933730.52478,-159.51,-6.41,-2.46,0.299,-1.529,9.222,-0.05,0.14,0.08
1775933730.5347428,-159.67,-6.51,-2.8,0.778,-1.095,9.4,-0.16,0.17,0.08
1775933730.5447779,-159.79,-6.57,-3.18,0.862,-0.776,9.533,-0.21,0.11,0.06
1775933730.554788,-159.88,-6.61,-3.58,0.798,-0.456,9.633,-0.22,0.08,0.04
1775933730.5647938,-159.97,-6.64,-3.97,0.564,-0.345,9.578,-0.25,0.06,0.02
1775933730.5747848,-160.03,-6.7,-4.35,0.596,-0.424,9.326,-0.23,0.05,0.02
1775933730.5847502,-160.11,-6.62,-4.83,0.829,-0.413,9.041,-0.22,0.05,0.01
1775933730.594763,-160.18,-6.47,-5.36,1.056,-0.436,8.823,-0.27,0.0,0.01
1775933730.6048012,-160.27,-6.15,-5.9,1.336,-0.317,8.717,-0.3,-0.05,0.0
1775933730.6147487,-160.37,-5.74,-6.47,1.181,-0.157,8.664,-0.32,-0.12,0.01
1775933730.6247637,-160.46,-5.35,-6.98,0.873,0.084,8.839,-0.33,-0.17,0.01
1775933730.6347818,-160.51,-5.05,-7.41,0.371,0.352,9.131,-0.31,-0.18,0.0
1775933730.644962,-160.53,-4.83,-7.75,0.424,0.586,9.347,-0.28,-0.15,-0.02
1775933730.654798,-160.5,-4.77,-7.94,-0.327,0.959,9.506,-0.24,-0.09,-0.03
1775933730.6651607,-160.49,-5.03,-7.96,-1.079,1.263,9.624,-0.16,0.0,-0.05
1775933730.674787,-160.45,-5.35,-7.75,0.445,1.183,8.778,-0.05,0.13,-0.01
1775933730.6849494,-160.44,-5.27,-7.68,0.745,1.106,8.219,0.04,0.19,-0.01
1775933730.6947699,-160.47,-5.34,-7.6,0.183,1.515,7.917,-0.02,0.03,0.02
1775933730.7047915,-160.47,-5.32,-7.41,0.553,1.503,7.241,-0.02,0.03,0.01
1775933730.714749,-160.5,-5.23,-7.3,0.541,1.595,7.706,0.02,0.01,0.01
1775933730.725135,-160.55,-5.08,-7.2,0.568,1.844,8.29,-0.01,-0.03,0.02
1775933730.7347295,-160.61,-4.98,-7.06,0.58,2.159,8.719,-0.04,-0.05,0.03
1775933730.7447674,-160.64,-4.88,-6.92,0.599,2.357,9.033,-0.03,-0.03,0.03
1775933730.7547174,-160.66,-4.78,-6.8,0.654,2.478,9.264,-0.04,-0.02,0.02
1775933730.7647557,-160.65,-4.64,-6.74,0.868,2.412,9.366,-0.05,-0.02,0.01
1775933730.7747018,-160.63,-4.48,-6.8,1.006,2.214,9.396,-0.08,-0.03,-0.02
1775933730.785207,-160.66,-4.39,-6.96,0.836,2.132,9.193,-0.11,-0.03,-0.02
1775933730.795514,-160.65,-4.36,-7.15,0.918,1.982,9.318,-0.18,-0.01,0.0
1775933730.8047411,-160.62,-4.31,-7.28,0.938,1.826,9.478,-0.18,0.02,-0.02
1775933730.8147738,-160.6,-4.26,-7.34,0.969,1.649,9.556,-0.12,0.02,-0.02
1775933730.8247485,-160.55,-4.18,-7.32,0.984,1.34,9.642,-0.08,0.02,-0.02
1775933730.8347657,-160.51,-4.11,-7.32,0.959,0.992,9.636,-0.04,0.0,-0.02
1775933730.844706,-160.45,-4.06,-7.35,0.92,0.715,9.629,-0.04,0.01,-0.03
1775933730.8547206,-160.39,-4.01,-7.37,0.898,0.604,9.64,-0.05,0.01,-0.03
1775933730.864767,-160.31,-3.96,-7.35,0.798,0.463,9.712,-0.04,0.02,-0.04
1775933730.8747046,-160.26,-3.94,-7.29,0.703,0.347,9.763,-0.02,0.01,-0.04
1775933730.884705,-160.24,-3.92,-7.19,0.655,0.296,9.782,0.0,0.02,-0.02
1775933730.894734,-160.25,-3.89,-7.05,0.602,0.281,9.729,0.02,0.02,-0.01
1775933730.9050279,-160.29,-3.87,-6.89,0.571,0.29,9.685,0.04,0.01,0.02
1775933730.914701,-160.36,-3.84,-6.73,0.509,0.278,9.682,0.05,0.0,0.03
1775933730.924702,-160.45,-3.81,-6.59,0.43,0.401,9.723,0.04,0.0,0.05
1775933730.9347,-160.54,-3.79,-6.41,0.383,0.672,9.757,0.03,0.0,0.06
1775933730.9447043,-160.6,-3.73,-6.26,0.382,0.825,9.79,0.03,0.0,0.05
1775933730.954706,-160.64,-3.68,-6.12,0.39,0.984,9.761,0.02,-0.02,0.04
1775933730.9647079,-160.63,-3.6,-5.99,0.377,1.273,9.774,0.01,-0.02,0.02
1775933730.9750173,-160.61,-3.53,-5.83,0.514,1.499,9.658,-0.01,-0.02,0.0
1775933730.984708,-160.55,-3.42,-5.67,0.551,1.546,9.69,0.01,-0.02,-0.02
1775933730.9947033,-160.5,-3.33,-5.56,0.596,1.439,9.737,0.01,-0.02,-0.03
1775933731.0047174,-160.46,-3.26,-5.5,0.63,1.365,9.772,-0.01,-0.02,-0.03
1775933731.014717,-160.44,-3.2,-5.46,0.677,1.268,9.794,-0.02,-0.01,-0.02
1775933731.0247245,-160.44,-3.15,-5.41,0.717,1.152,9.755,-0.03,0.0,-0.02
1775933731.034672,-160.45,-3.1,-5.37,0.723,1.017,9.712,-0.02,0.0,0.0
1775933731.0446928,-160.46,-3.05,-5.34,0.698,0.914,9.726,-0.02,0.0,0.01
1775933731.0547047,-160.47,-3.01,-5.28,0.651,0.838,9.762,-0.02,0.0,0.01
1775933731.0647056,-160.46,-2.98,-5.22,0.589,0.728,9.787,-0.02,0.0,0.0
1775933731.0747063,-160.43,-2.96,-5.16,0.53,0.647,9.806,-0.01,0.01,-0.01
1775933731.0846765,-160.39,-2.93,-5.1,0.455,0.57,9.793,0.0,0.01,-0.02
1775933731.0946717,-160.35,-2.9,-5.04,0.398,0.469,9.729,0.0,0.01,-0.02
1775933731.1046734,-160.32,-2.88,-4.98,0.351,0.386,9.67,0.0,0.0,-0.02
1775933731.1146686,-160.31,-2.84,-4.92,0.311,0.346,9.675,0.0,0.0,-0.02
1775933731.1246727,-160.32,-2.79,-4.85,0.287,0.346,9.721,0.01,-0.01,0.0
1775933731.1346982,-160.34,-2.75,-4.78,0.286,0.387,9.756,0.01,-0.01,0.01
1775933731.1447048,-160.37,-2.71,-4.7,0.314,0.463,9.781,0.0,-0.01,0.02
1775933731.1546555,-160.39,-2.67,-4.63,0.36,0.576,9.775,0.0,-0.01,0.02
1775933731.1646736,-160.4,-2.61,-4.54,0.4,0.677,9.754,0.0,-0.01,0.01
1775933731.1746676,-160.41,-2.56,-4.45,0.448,0.781,9.743,0.0,-0.01,0.01
1775933731.1846752,-160.4,-2.49,-4.36,0.465,0.835,9.77,0.0,-0.01,0.0
1775933731.1946692,-160.38,-2.44,-4.28,0.491,0.848,9.79,0.0,-0.01,-0.01
1775933731.204656,-160.35,-2.4,-4.21,0.493,0.818,9.803,-0.01,-0.01,-0.02
1775933731.2146544,-160.34,-2.36,-4.15,0.495,0.753,9.812,-0.01,0.0,-0.02
1775933731.2246745,-160.34,-2.33,-4.1,0.495,0.693,9.787,-0.01,0.0,-0.01
1775933731.2346854,-160.33,-2.3,-4.06,0.465,0.637,9.774,-0.01,0.0,-0.01
1775933731.2446423,-160.33,-2.28,-4.01,0.426,0.586,9.78,-0.01,0.0,-0.01
1775933731.254655,-160.32,-2.26,-3.98,0.366,0.526,9.796,-0.01,0.0,-0.01
1775933731.2646697,-160.31,-2.24,-3.94,0.314,0.469,9.805,-0.01,0.0,-0.01
1775933731.274657,-160.31,-2.22,-3.9,0.283,0.437,9.79,-0.01,0.0,-0.01
1775933731.2846613,-160.31,-2.2,-3.86,0.254,0.389,9.767,-0.01,0.0,-0.01
1775933731.2947478,-160.3,-2.16,-3.81,0.245,0.371,9.757,0.0,-0.01,-0.01
1775933731.3046858,-160.3,-2.12,-3.75,0.243,0.365,9.77,0.0,-0.01,0.0
1775933731.3146544,-160.31,-2.08,-3.69,0.257,0.382,9.787,0.0,-0.01,0.0
1775933731.3246646,-160.31,-2.04,-3.62,0.28,0.401,9.798,0.0,-0.01,0.0
1775933731.334662,-160.32,-2.0,-3.56,0.317,0.442,9.79,0.0,-0.01,0.0
1775933731.3446445,-160.33,-1.96,-3.5,0.348,0.504,9.788,0.0,-0.01,0.0
1775933731.354642,-160.33,-1.92,-3.45,0.362,0.544,9.799,0.0,-0.01,0.0
1775933731.3646362,-160.32,-1.89,-3.38,0.365,0.572,9.806,0.0,-0.01,0.0
1775933731.374662,-160.32,-1.86,-3.34,0.358,0.57,9.812,-0.01,0.0,-0.01
1775933731.384648,-160.3,-1.84,-3.3,0.339,0.541,9.815,-0.01,0.0,-0.01
1775933731.394663,-160.29,-1.82,-3.26,0.331,0.514,9.788,-0.01,0.0,-0.01
1775933731.4038925,-160.28,-1.79,-3.23,0.311,0.466,9.774,-0.01,0.0,-0.01
1775933731.4138074,-160.28,-1.77,-3.19,0.28,0.412,9.78,-0.01,0.0,-0.01
1775933731.4238074,-160.27,-1.75,-3.15,0.25,0.357,9.793,-0.01,0.0,-0.01
1775933731.4337893,-160.27,-1.73,-3.11,0.22,0.316,9.803,0.0,0.0,0.0
1775933731.4438071,-160.28,-1.71,-3.08,0.222,0.309,9.8,0.0,-0.01,0.0
1775933731.4537876,-160.28,-1.68,-3.03,0.22,0.321,9.78,0.0,-0.01,0.0
1775933731.463787,-160.28,-1.65,-2.99,0.23,0.338,9.772,0.0,-0.01,0.0
1775933731.4738076,-160.27,-1.62,-2.94,0.241,0.34,9.78,0.0,-0.01,-0.01
1775933731.4838076,-160.27,-1.6,-2.9,0.25,0.329,9.792,0.0,-0.01,-0.01
1775933731.4938035,-160.27,-1.57,-2.87,0.251,0.337,9.802,0.0,-0.01,-0.01
1775933731.5038083,-160.26,-1.54,-2.83,0.268,0.354,9.806,-0.01,-0.01,-0.01
1775933731.5138109,-160.27,-1.52,-2.79,0.269,0.378,9.802,-0.01,0.0,0.0
1775933731.5238092,-160.27,-1.49,-2.75,0.273,0.394,9.802,-0.01,0.0,0.0
1775933731.5338533,-160.27,-1.47,-2.7,0.26,0.389,9.805,0.0,0.0,0.0
1775933731.5438085,-160.27,-1.45,-2.66,0.241,0.37,9.808,0.0,0.0,0.0
1775933731.553786,-160.27,-1.43,-2.62,0.225,0.339,9.804,0.0,0.0,-0.01
1775933731.5638087,-160.27,-1.41,-2.59,0.218,0.313,9.799,0.0,0.0,-0.01
1775933731.573787,-160.26,-1.39,-2.56,0.214,0.302,9.791,0.0,0.0,-0.01
1775933731.5837896,-160.26,-1.37,-2.53,0.206,0.296,9.797,-0.01,0.0,-0.01
1775933731.5938141,-160.25,-1.35,-2.5,0.198,0.283,9.803,-0.01,-0.01,-0.01
1775933731.6037881,-160.25,-1.33,-2.47,0.195,0.253,9.808,-0.01,0.0,-0.01
1775933731.6137886,-160.25,-1.31,-2.44,0.196,0.232,9.802,-0.01,0.0,0.0
1775933731.623792,-160.26,-1.3,-2.42,0.2,0.235,9.793,-0.01,0.0,0.0
1775933731.633776,-160.26,-1.27,-2.39,0.2,0.247,9.787,-0.01,0.0,0.0
1775933731.6437743,-160.25,-1.25,-2.36,0.18,0.268,9.794,-0.01,-0.01,0.0
1775933731.6538162,-160.25,-1.24,-2.32,0.172,0.273,9.8,0.0,-0.01,-0.01
1775933731.6637855,-160.25,-1.22,-2.28,0.169,0.261,9.794,0.0,-0.01,0.0
1775933731.6737835,-160.25,-1.2,-2.25,0.166,0.266,9.786,0.0,0.0,0.0
1775933731.6837845,-160.25,-1.18,-2.22,0.178,0.285,9.774,-0.01,-0.01,0.0
1775933731.6937604,-160.25,-1.17,-2.19,0.172,0.279,9.786,-0.01,-0.01,-0.01
1775933731.7037756,-160.25,-1.15,-2.16,0.175,0.262,9.794,-0.01,0.0,-0.01
1775933731.7137794,-160.24,-1.13,-2.14,0.17,0.241,9.8,-0.01,0.0,-0.01
1775933731.723794,-160.24,-1.11,-2.12,0.164,0.223,9.805,-0.01,0.0,-0.01
1775933731.7337916,-160.24,-1.1,-2.1,0.158,0.212,9.808,-0.01,0.0,-0.01
1775933731.7437959,-160.24,-1.09,-2.07,0.157,0.19,9.791,-0.01,0.0,0.0
1775933731.753776,-160.24,-1.08,-2.05,0.15,0.177,9.796,0.0,0.0,0.0
1775933731.7637572,-160.24,-1.06,-2.02,0.151,0.194,9.785,0.0,0.0,0.0
1775933731.7737641,-160.24,-1.04,-1.99,0.141,0.212,9.793,0.0,-0.01,0.0
1775933731.7837453,-160.25,-1.02,-1.96,0.145,0.21,9.787,0.0,-0.01,0.0
1775933731.793761,-160.25,-1.01,-1.93,0.148,0.214,9.792,0.0,-0.01,0.0
1775933731.8037422,-160.25,-0.99,-1.91,0.156,0.21,9.792,0.0,-0.01,0.0
1775933731.8138933,-160.24,-0.97,-1.88,0.151,0.204,9.798,-0.01,-0.01,-0.01
1775933731.8237157,-160.24,-0.96,-1.86,0.152,0.201,9.803,-0.01,-0.01,-0.01
1775933731.8337467,-160.23,-0.95,-1.85,0.154,0.199,9.796,-0.01,0.0,-0.01
1775933731.8437731,-160.23,-0.93,-1.82,0.143,0.182,9.797,-0.01,0.0,-0.01
1775933731.8541842,-160.23,-0.92,-1.8,0.14,0.163,9.796,-0.01,0.0,-0.01
1775933731.8637643,-160.24,-0.91,-1.78,0.131,0.16,9.798,-0.01,0.0,0.0
1775933731.8737535,-160.23,-0.9,-1.76,0.128,0.176,9.802,-0.01,0.0,0.0
1775933731.8837192,-160.23,-0.88,-1.74,0.121,0.172,9.799,0.0,0.0,0.0
1775933731.8937333,-160.23,-0.87,-1.71,0.108,0.148,9.799,0.0,-0.01,-0.01
1775933731.903754,-160.23,-0.86,-1.69,0.111,0.139,9.787,0.0,-0.01,-0.01
1775933731.9137497,-160.23,-0.84,-1.67,0.11,0.143,9.79,0.0,-0.01,0.0
1775933731.9238646,-160.23,-0.83,-1.65,0.116,0.157,9.792,-0.01,-0.01,0.0
1775933731.9337525,-160.23,-0.82,-1.63,0.114,0.166,9.798,-0.01,-0.01,0.0
1775933731.9437475,-160.23,-0.81,-1.61,0.126,0.159,9.793,-0.01,-0.01,0.0
1775933731.953719,-160.23,-0.79,-1.59,0.127,0.159,9.799,-0.01,0.0,-0.01
1775933731.9643443,-160.23,-0.78,-1.58,0.127,0.146,9.797,-0.01,0.0,-0.01
1775933731.973717,-160.22,-0.77,-1.56,0.121,0.134,9.796,-0.01,0.0,-0.01
1775933731.983718,-160.22,-0.77,-1.55,0.105,0.12,9.798,-0.01,0.0,0.0
1775933731.993721,-160.23,-0.76,-1.53,0.102,0.11,9.794,-0.01,0.0,0.0
1775933732.0037682,-160.24,-0.75,-1.51,0.099,0.114,9.784,0.0,0.0,0.0
1775933732.013743,-160.24,-0.73,-1.49,0.097,0.108,9.781,0.0,-0.01,0.0
1775933732.0239599,-160.23,-0.72,-1.48,0.085,0.127,9.786,-0.01,-0.01,0.0
1775933732.0337043,-160.22,-0.71,-1.45,0.083,0.134,9.791,0.0,-0.01,-0.01
1775933732.0437224,-160.22,-0.71,-1.43,0.086,0.104,9.793,0.0,-0.01,-0.01
1775933732.0537217,-160.22,-0.7,-1.42,0.085,0.086,9.798,0.0,-0.01,-0.01
1775933732.0638824,-160.23,-0.68,-1.41,0.103,0.08,9.787,-0.01,-0.01,0.0
1775933732.0737221,-160.24,-0.67,-1.4,0.105,0.098,9.787,-0.01,0.0,0.0
1775933732.0837207,-160.24,-0.66,-1.38,0.117,0.122,9.784,-0.01,0.0,0.0
1775933732.0937164,-160.24,-0.65,-1.36,0.109,0.139,9.791,-0.01,0.0,0.0
1775933732.1039152,-160.24,-0.65,-1.34,0.097,0.129,9.797,0.0,0.0,-0.01
1775933732.1137238,-160.24,-0.64,-1.33,0.095,0.129,9.798,0.0,0.0,-0.01
1775933732.1237204,-160.23,-0.63,-1.31,0.09,0.128,9.794,-0.01,0.0,-0.01
1775933732.1337292,-160.23,-0.63,-1.29,0.073,0.113,9.791,-0.01,0.0,-0.01
1775933732.1437185,-160.23,-0.62,-1.28,0.069,0.093,9.781,-0.01,0.0,0.0
1775933732.1537192,-160.24,-0.61,-1.28,0.061,0.077,9.785,-0.01,0.0,0.0
1775933732.1637268,-160.24,-0.6,-1.26,0.062,0.063,9.788,-0.01,-0.01,0.0
1775933732.1736717,-160.24,-0.59,-1.25,0.071,0.049,9.794,-0.01,-0.01,0.0
1775933732.1836717,-160.23,-0.58,-1.24,0.067,0.041,9.798,0.0,-0.01,-0.01
1775933732.1937041,-160.23,-0.57,-1.23,0.078,0.053,9.792,0.0,-0.01,-0.01
1775933732.203689,-160.22,-0.56,-1.21,0.074,0.056,9.794,-0.01,0.0,-0.01
1775933732.21369,-160.22,-0.55,-1.19,0.066,0.056,9.797,0.0,-0.01,-0.01
1775933732.2236965,-160.23,-0.55,-1.18,0.073,0.061,9.79,0.0,-0.01,0.0
1775933732.2336762,-160.23,-0.54,-1.17,0.068,0.075,9.781,0.0,0.0,0.0
1775933732.2436733,-160.23,-0.53,-1.15,0.072,0.086,9.782,-0.01,-0.01,0.0
1775933732.2536561,-160.24,-0.52,-1.13,0.075,0.091,9.79,0.0,-0.01,0.0
1775933732.2636762,-160.23,-0.51,-1.13,0.084,0.101,9.796,-0.01,-0.01,0.0
1775933732.273672,-160.23,-0.51,-1.12,0.078,0.105,9.799,-0.01,0.0,-0.01
1775933732.2836885,-160.22,-0.5,-1.1,0.075,0.087,9.794,-0.01,0.0,-0.01
1775933732.2936692,-160.21,-0.49,-1.09,0.068,0.068,9.792,-0.01,0.0,-0.01
1775933732.3036735,-160.21,-0.49,-1.09,0.068,0.051,9.775,-0.01,0.0,-0.01
1775933732.3136888,-160.21,-0.48,-1.08,0.063,0.03,9.781,-0.01,0.0,-0.01
1775933732.3236752,-160.22,-0.47,-1.08,0.048,0.001,9.79,0.0,-0.01,0.0
1775933732.3337271,-160.23,-0.47,-1.07,0.04,-0.007,9.796,0.0,-0.01,0.0
1775933732.3436751,-160.24,-0.47,-1.05,0.041,0.008,9.785,0.0,-0.01,0.0
1775933732.353677,-160.24,-0.46,-1.04,0.046,0.037,9.773,0.0,-0.01,0.0
1775933732.3636727,-160.23,-0.45,-1.02,0.044,0.066,9.773,0.0,-0.01,0.0
1775933732.3736753,-160.23,-0.44,-1.01,0.038,0.077,9.782,0.0,-0.01,-0.01
1775933732.3836734,-160.21,-0.44,-0.99,0.049,0.071,9.781,0.0,-0.01,-0.01
1775933732.3928242,-160.21,-0.43,-0.99,0.06,0.057,9.788,-0.01,-0.01,-0.01
1775933732.4037428,-160.22,-0.42,-0.99,0.062,0.046,9.796,-0.01,0.0,-0.01
1775933732.4136565,-160.23,-0.43,-0.98,0.083,0.047,9.797,-0.01,0.0,0.0
1775933732.423657,-160.25,-0.42,-0.97,0.079,0.05,9.799,-0.01,0.0,0.0
1775933732.4336572,-160.25,-0.41,-0.97,0.084,0.061,9.786,-0.01,0.0,0.0
1775933732.443646,-160.25,-0.41,-0.96,0.047,0.057,9.788,-0.01,0.0,0.0
1775933732.4536512,-160.23,-0.41,-0.94,0.031,0.046,9.778,0.0,0.0,-0.01
1775933732.463669,-160.22,-0.4,-0.94,0.017,0.016,9.77,0.0,-0.01,-0.02
1775933732.4728687,-160.2,-0.4,-0.93,0.005,-0.006,9.77,0.0,-0.01,-0.02
1775933732.4828582,-160.2,-0.39,-0.93,0.005,-0.026,9.772,0.0,-0.01,-0.01
1775933732.4928286,-160.22,-0.39,-0.92,0.017,-0.037,9.772,0.0,-0.01,0.0
1775933732.5028532,-160.23,-0.38,-0.92,0.028,-0.032,9.778,0.0,-0.01,0.0
1775933732.512836,-160.24,-0.37,-0.91,0.055,0.004,9.78,0.0,-0.01,0.01
1775933732.5228326,-160.25,-0.36,-0.89,0.066,0.037,9.788,-0.01,-0.01,0.0
1775933732.5328066,-160.24,-0.35,-0.88,0.077,0.065,9.793,-0.01,-0.01,-0.01
1775933732.5428016,-160.22,-0.35,-0.86,0.071,0.06,9.798,0.0,0.0,-0.01
1775933732.5536783,-160.22,-0.34,-0.85,0.071,0.048,9.791,0.0,0.0,-0.01
1775933732.5628252,-160.22,-0.34,-0.85,0.057,0.038,9.792,0.0,0.0,-0.01
1775933732.5728617,-160.22,-0.34,-0.85,0.051,0.048,9.785,-0.01,0.0,-0.01
1775933732.582842,-160.22,-0.34,-0.84,0.036,0.032,9.782,-0.01,0.0,0.0
1775933732.592842,-160.22,-0.33,-0.84,0.031,0.011,9.778,-0.01,0.0,0.0
1775933732.60281,-160.22,-0.32,-0.83,0.034,-0.01,9.776,-0.01,-0.01,0.0
1775933732.6128256,-160.22,-0.32,-0.83,0.029,-0.02,9.779,-0.01,-0.01,0.0
1775933732.6228013,-160.22,-0.32,-0.83,0.02,-0.029,9.786,-0.01,-0.01,0.0
1775933732.632827,-160.22,-0.31,-0.82,0.028,-0.014,9.784,-0.01,-0.01,0.0
1775933732.6428018,-160.22,-0.31,-0.81,0.024,0.0,9.782,-0.01,0.0,-0.01
1775933732.652805,-160.21,-0.3,-0.8,0.024,-0.002,9.774,0.0,0.0,-0.01
1775933732.662789,-160.21,-0.3,-0.79,0.028,-0.022,9.77,0.0,-0.01,-0.01
1775933732.6727896,-160.22,-0.3,-0.79,0.023,-0.034,9.776,0.0,-0.01,0.0
1775933732.682797,-160.22,-0.29,-0.78,0.028,-0.022,9.782,0.0,-0.01,0.0
1775933732.692816,-160.23,-0.28,-0.77,0.03,0.01,9.786,-0.01,0.0,0.0
1775933732.7027717,-160.24,-0.28,-0.76,0.03,0.034,9.785,0.0,-0.01,0.0
1775933732.712782,-160.24,-0.28,-0.75,0.042,0.046,9.782,0.0,0.0,0.0
1775933732.7227764,-160.22,-0.28,-0.74,0.037,0.041,9.772,-0.01,0.0,-0.01
1775933732.7327752,-160.22,-0.27,-0.74,0.026,0.026,9.774,-0.01,0.0,-0.01
1775933732.7427807,-160.2,-0.27,-0.74,0.019,0.004,9.774,-0.01,-0.01,-0.01
1775933732.7528093,-160.2,-0.27,-0.74,0.017,-0.026,9.775,-0.01,-0.01,-0.01
1775933732.7628036,-160.21,-0.27,-0.74,0.022,-0.04,9.78,-0.01,0.0,0.0
1775933732.7728393,-160.22,-0.27,-0.75,0.03,-0.04,9.788,-0.01,0.0,0.0
1775933732.782787,-160.23,-0.26,-0.74,0.029,-0.034,9.794,-0.01,0.0,0.0
1775933732.792776,-160.24,-0.26,-0.73,0.031,-0.036,9.786,0.0,0.0,0.0
1775933732.802764,-160.24,-0.26,-0.73,0.02,-0.032,9.791,0.0,0.0,0.0
1775933732.8127635,-160.23,-0.25,-0.72,0.01,-0.017,9.79,0.0,0.0,0.0
1775933732.8229833,-160.23,-0.25,-0.7,0.001,0.013,9.794,0.0,-0.01,-0.01
1775933732.8327668,-160.22,-0.25,-0.69,0.004,0.026,9.798,0.0,-0.01,-0.01
1775933732.8427565,-160.22,-0.24,-0.68,0.012,0.019,9.798,0.0,-0.01,-0.01
1775933732.85278,-160.22,-0.24,-0.68,0.025,0.018,9.796,-0.01,-0.01,-0.01
1775933732.8627582,-160.22,-0.24,-0.69,0.036,0.012,9.787,-0.01,-0.01,-0.01
1775933732.872775,-160.22,-0.23,-0.68,0.036,-0.002,9.791,-0.01,0.0,0.0
1775933732.8827567,-160.22,-0.22,-0.68,0.042,-0.029,9.792,-0.01,-0.01,0.0
1775933732.8927886,-160.22,-0.22,-0.68,0.04,-0.049,9.786,0.0,0.0,0.0
1775933732.9027748,-160.22,-0.22,-0.68,0.032,-0.038,9.785,-0.01,0.0,0.0
1775933732.9127932,-160.22,-0.22,-0.67,0.005,-0.02,9.788,-0.01,0.0,-0.01
1775933732.9228897,-160.21,-0.22,-0.66,-0.005,-0.02,9.781,0.0,0.0,-0.01
1775933732.932782,-160.21,-0.23,-0.66,-0.008,-0.03,9.774,0.0,-0.01,-0.01
1775933732.942797,-160.21,-0.22,-0.66,-0.011,-0.041,9.782,0.0,-0.01,-0.01
1775933732.9527307,-160.22,-0.21,-0.65,-0.01,-0.03,9.785,-0.01,-0.01,0.0
1775933732.9627678,-160.22,-0.21,-0.65,0.002,-0.018,9.784,-0.01,-0.01,0.0
1775933732.9727657,-160.22,-0.21,-0.65,0.017,-0.019,9.784,-0.01,-0.01,0.0
1775933732.9827669,-160.22,-0.2,-0.64,0.026,-0.014,9.791,-0.01,0.0,0.0
1775933732.993243,-160.22,-0.19,-0.64,0.03,-0.006,9.794,-0.01,0.0,-0.01
1775933733.0027375,-160.22,-0.2,-0.63,0.029,-0.005,9.794,-0.01,-0.01,-0.01
1775933733.0128682,-160.22,-0.2,-0.62,0.02,-0.024,9.793,0.0,0.0,-0.01
1775933733.0227664,-160.22,-0.2,-0.63,0.011,-0.028,9.774,0.0,0.0,0.0
1775933733.0329785,-160.22,-0.2,-0.62,-0.006,-0.019,9.78,-0.01,0.0,0.0
1775933733.0427392,-160.21,-0.2,-0.62,-0.014,-0.029,9.774,-0.01,-0.01,-0.01
1775933733.0527368,-160.21,-0.2,-0.62,-0.011,-0.05,9.782,0.0,-0.01,-0.01
1775933733.0627496,-160.21,-0.2,-0.62,-0.002,-0.06,9.788,0.0,-0.01,-0.01
1775933733.0727663,-160.21,-0.19,-0.62,0.002,-0.053,9.791,-0.01,-0.01,0.0
1775933733.082763,-160.22,-0.18,-0.61,0.011,-0.04,9.797,-0.01,-0.01,0.0
1775933733.0927534,-160.21,-0.18,-0.61,0.024,-0.048,9.797,0.0,-0.01,0.0
1775933733.1027336,-160.21,-0.18,-0.61,0.042,-0.041,9.796,0.0,0.0,0.0
1775933733.1127462,-160.21,-0.17,-0.6,0.031,-0.019,9.796,-0.01,0.0,0.0
1775933733.1228065,-160.22,-0.17,-0.6,0.024,-0.011,9.792,-0.01,-0.01,-0.01
1775933733.1327403,-160.21,-0.17,-0.59,0.006,-0.022,9.791,0.0,0.0,-0.01
1775933733.1427345,-160.21,-0.17,-0.59,0.005,-0.032,9.776,0.0,0.0,-0.01
1775933733.1527402,-160.21,-0.17,-0.59,-0.004,-0.017,9.781,-0.01,0.0,-0.01
1775933733.1627347,-160.21,-0.17,-0.58,-0.011,-0.017,9.786,-0.01,0.0,0.0
1775933733.1727371,-160.21,-0.17,-0.58,-0.017,-0.032,9.79,0.0,-0.01,0.0
1775933733.182733,-160.21,-0.17,-0.58,-0.012,-0.056,9.788,0.0,-0.01,0.0
1775933733.1927793,-160.21,-0.17,-0.58,-0.012,-0.068,9.792,-0.01,-0.01,-0.01
1775933733.2027376,-160.21,-0.17,-0.58,-0.007,-0.079,9.797,0.0,-0.01,-0.01
1775933733.2127037,-160.21,-0.16,-0.58,-0.001,-0.067,9.799,0.0,0.0,0.0
1775933733.2227502,-160.22,-0.16,-0.58,0.007,-0.032,9.799,-0.01,-0.01,0.0
1775933733.2327175,-160.22,-0.16,-0.57,0.012,0.001,9.8,0.0,0.0,0.0
1775933733.2426856,-160.21,-0.16,-0.56,0.008,0.004,9.791,0.0,0.0,-0.01
1775933733.2527068,-160.21,-0.16,-0.55,0.004,0.004,9.796,0.0,-0.01,-0.01
1775933733.2627468,-160.21,-0.16,-0.55,0.005,-0.002,9.791,-0.01,-0.01,-0.01
1775933733.2727442,-160.2,-0.15,-0.55,-0.001,-0.016,9.796,-0.01,0.0,-0.01
1775933733.2826843,-160.2,-0.15,-0.55,-0.008,-0.043,9.799,-0.01,-0.01,-0.01
1775933733.292693,-160.21,-0.15,-0.55,0.0,-0.055,9.798,-0.01,-0.01,0.0
1775933733.3026912,-160.21,-0.15,-0.55,0.001,-0.049,9.786,-0.01,-0.01,0.0
1775933733.312691,-160.21,-0.15,-0.55,-0.002,-0.054,9.78,-0.01,0.0,0.0
1775933733.3226876,-160.21,-0.15,-0.55,0.002,-0.049,9.788,0.0,-0.01,0.0
1775933733.332703,-160.21,-0.15,-0.54,0.001,-0.061,9.793,-0.01,-0.01,0.0
1775933733.3426888,-160.22,-0.15,-0.54,0.012,-0.055,9.792,-0.01,0.0,0.0
1775933733.3526938,-160.21,-0.15,-0.54,0.013,-0.051,9.791,0.0,-0.01,0.0
1775933733.3626816,-160.21,-0.14,-0.54,0.0,-0.053,9.787,0.0,0.0,0.0
1775933733.3726873,-160.22,-0.14,-0.54,0.004,-0.034,9.785,-0.01,0.0,0.0
1775933733.3826716,-160.21,-0.14,-0.54,0.001,-0.013,9.79,-0.01,-0.01,0.0
1775933733.392691,-160.21,-0.14,-0.53,0.011,-0.011,9.794,0.0,-0.01,-0.01
1775933733.4026873,-160.21,-0.14,-0.52,0.005,-0.02,9.799,0.0,-0.01,-0.01
1775933733.4127219,-160.2,-0.13,-0.53,0.013,-0.031,9.8,-0.01,-0.01,-0.01
1775933733.4227223,-160.2,-0.13,-0.53,0.005,-0.05,9.802,-0.01,0.0,-0.01
1775933733.4318745,-160.21,-0.13,-0.53,0.007,-0.066,9.803,-0.01,0.0,0.0
1775933733.442757,-160.21,-0.13,-0.53,0.004,-0.08,9.802,0.0,0.0,0.0
1775933733.4527125,-160.22,-0.13,-0.53,0.016,-0.067,9.798,-0.01,0.0,0.0
1775933733.4626992,-160.22,-0.13,-0.53,0.001,-0.035,9.797,-0.01,0.0,0.0
1775933733.472695,-160.22,-0.13,-0.52,-0.001,-0.023,9.793,0.0,0.0,0.0
1775933733.4827135,-160.21,-0.13,-0.51,-0.013,-0.028,9.791,0.0,-0.01,-0.01
1775933733.4918432,-160.21,-0.13,-0.51,-0.026,-0.043,9.793,0.0,0.0,-0.01
1775933733.5018911,-160.21,-0.13,-0.51,-0.019,-0.043,9.787,-0.01,0.0,-0.01
1775933733.512708,-160.21,-0.13,-0.51,-0.023,-0.051,9.784,-0.01,-0.01,-0.01
1775933733.522919,-160.21,-0.13,-0.51,-0.013,-0.06,9.786,0.0,-0.01,0.0
1775933733.5326824,-160.21,-0.12,-0.51,0.002,-0.05,9.787,-0.01,-0.01,0.0
1775933733.5418432,-160.21,-0.12,-0.51,0.025,-0.035,9.79,-0.01,-0.01,0.0
1775933733.552011,-160.21,-0.11,-0.5,0.025,-0.044,9.794,-0.01,-0.01,0.0
1775933733.5619895,-160.21,-0.11,-0.5,0.019,-0.047,9.792,0.0,0.0,0.0
1775933733.571844,-160.21,-0.12,-0.5,0.016,-0.038,9.788,-0.01,0.0,-0.01
1775933733.5818484,-160.2,-0.12,-0.5,0.007,-0.046,9.778,-0.01,0.0,-0.01
1775933733.5918524,-160.2,-0.12,-0.5,-0.001,-0.056,9.78,0.0,0.0,-0.01
1775933733.601845,-160.2,-0.12,-0.5,-0.018,-0.075,9.787,0.0,0.0,-0.01
1775933733.611867,-160.21,-0.12,-0.5,-0.013,-0.085,9.78,-0.01,-0.01,0.0
1775933733.6219826,-160.22,-0.12,-0.5,-0.002,-0.071,9.78,-0.01,0.0,0.0
1775933733.6319754,-160.23,-0.11,-0.5,0.0,-0.041,9.787,-0.01,-0.01,0.0
1775933733.6426613,-160.24,-0.11,-0.5,0.004,-0.035,9.794,0.0,-0.01,0.0
1775933733.652672,-160.23,-0.11,-0.49,0.0,-0.041,9.793,0.0,0.0,-0.01
1775933733.671121,-160.21,-0.11,-0.49,0.001,-0.032,9.787,0.0,0.0,-0.01
1775933733.6726825,-160.21,-0.11,-0.48,0.0,-0.035,9.79,-0.01,-0.01,-0.01
1775933733.6818466,-160.2,-0.11,-0.48,-0.01,-0.049,9.793,-0.01,0.0,-0.01
1775933733.6918569,-160.21,-0.11,-0.49,-0.001,-0.05,9.794,-0.01,-0.01,-0.01
1775933733.7018614,-160.21,-0.11,-0.49,-0.001,-0.053,9.798,-0.01,-0.01,0.0
1775933733.7118278,-160.21,-0.11,-0.49,-0.001,-0.056,9.8,-0.01,-0.01,0.0
1775933733.721844,-160.21,-0.11,-0.49,-0.004,-0.071,9.8,-0.01,-0.01,0.0
1775933733.7318416,-160.21,-0.11,-0.49,-0.005,-0.065,9.797,-0.01,0.0,0.0
1775933733.7418275,-160.21,-0.11,-0.48,-0.002,-0.047,9.792,0.0,0.0,-0.01
1775933733.7518442,-160.21,-0.1,-0.48,-0.011,-0.051,9.793,0.0,-0.01,-0.01
1775933733.7618206,-160.2,-0.1,-0.47,-0.014,-0.056,9.792,0.0,0.0,-0.01
1775933733.7718196,-160.2,-0.1,-0.47,-0.019,-0.065,9.794,0.0,-0.01,-0.01
1775933733.781849,-160.2,-0.1,-0.47,-0.013,-0.054,9.793,-0.01,0.0,-0.01
1775933733.7918205,-160.21,-0.1,-0.47,-0.01,-0.054,9.793,-0.01,-0.01,0.0
1775933733.8018506,-160.21,-0.1,-0.47,-0.007,-0.051,9.796,-0.01,0.0,0.0
1775933733.811793,-160.21,-0.1,-0.48,0.007,-0.06,9.797,-0.01,-0.01,0.0
1775933733.8218315,-160.22,-0.09,-0.48,0.012,-0.044,9.797,-0.01,0.0,0.0
1775933733.8318315,-160.22,-0.1,-0.47,0.007,-0.034,9.8,-0.01,0.0,0.0
1775933733.841793,-160.21,-0.1,-0.46,0.006,-0.031,9.8,0.0,-0.01,-0.01
1775933733.851869,-160.21,-0.1,-0.46,-0.004,-0.034,9.798,0.0,0.0,-0.01
1775933733.8617818,-160.2,-0.1,-0.46,-0.008,-0.037,9.791,0.0,0.0,-0.01
1775933733.8717787,-160.2,-0.1,-0.46,-0.011,-0.044,9.794,-0.01,-0.01,-0.01
1775933733.881818,-160.2,-0.1,-0.46,-0.016,-0.057,9.799,-0.01,0.0,-0.01
1775933733.8918145,-160.21,-0.1,-0.46,-0.001,-0.074,9.799,-0.01,0.0,0.0
1775933733.9018548,-160.21,-0.1,-0.47,0.007,-0.091,9.794,-0.01,0.0,0.0
1775933733.911804,-160.22,-0.1,-0.47,0.006,-0.083,9.797,-0.01,0.0,0.0
1775933733.9218187,-160.22,-0.1,-0.47,0.006,-0.05,9.799,-0.01,-0.01,0.0
1775933733.9318023,-160.22,-0.1,-0.46,-0.001,-0.031,9.802,0.0,0.0,0.0
1775933733.9418387,-160.21,-0.1,-0.46,-0.006,-0.028,9.804,0.0,0.0,-0.01
1775933733.9517922,-160.21,-0.1,-0.46,-0.012,-0.036,9.805,0.0,0.0,-0.01
1775933733.9630082,-160.21,-0.1,-0.46,-0.014,-0.035,9.804,-0.01,-0.01,-0.01
1775933733.9718528,-160.21,-0.09,-0.46,-0.016,-0.038,9.799,-0.01,-0.01,-0.01
1775933733.9818077,-160.21,-0.1,-0.46,-0.008,-0.065,9.787,-0.01,-0.01,0.0
1775933733.9917994,-160.21,-0.09,-0.46,-0.01,-0.065,9.79,-0.01,0.0,0.0
1775933734.0018198,-160.21,-0.09,-0.46,-0.002,-0.055,9.792,-0.01,-0.01,0.0
1775933734.0117488,-160.21,-0.09,-0.46,-0.004,-0.05,9.796,-0.01,-0.01,-0.01
1775933734.02192,-160.21,-0.09,-0.46,-0.006,-0.063,9.794,0.0,0.0,-0.01
1775933734.0317488,-160.2,-0.09,-0.46,-0.018,-0.068,9.792,0.0,0.0,-0.01
1775933734.0417469,-160.2,-0.09,-0.46,-0.011,-0.063,9.779,0.0,0.0,-0.01
1775933734.0517523,-160.2,-0.09,-0.45,-0.018,-0.053,9.785,-0.01,0.0,-0.01
1775933734.0617492,-160.21,-0.09,-0.45,-0.006,-0.053,9.784,-0.01,0.0,0.0
1775933734.071786,-160.21,-0.09,-0.45,-0.006,-0.061,9.784,-0.01,-0.01,0.0
1775933734.081752,-160.22,-0.09,-0.46,0.0,-0.062,9.788,0.0,0.0,0.0
1775933734.0926898,-160.23,-0.09,-0.45,-0.001,-0.053,9.787,-0.01,-0.01,0.0
1775933734.1020653,-160.22,-0.09,-0.45,-0.005,-0.036,9.793,0.0,0.0,0.0
1775933734.1117816,-160.21,-0.09,-0.44,-0.008,-0.037,9.796,-0.01,0.0,-0.01
1775933734.121825,-160.21,-0.09,-0.44,-0.014,-0.05,9.794,0.0,0.0,-0.01
1775933734.1318066,-160.2,-0.09,-0.44,-0.012,-0.055,9.788,-0.01,-0.01,-0.01
1775933734.141877,-160.2,-0.09,-0.44,-0.016,-0.071,9.79,-0.01,-0.01,-0.01
1775933734.1519146,-160.21,-0.09,-0.45,-0.014,-0.075,9.786,0.0,0.0,0.0
1775933734.1620357,-160.21,-0.09,-0.45,-0.005,-0.065,9.79,-0.01,-0.01,0.0
1775933734.1717477,-160.21,-0.09,-0.45,-0.004,-0.057,9.794,-0.01,-0.01,0.0
1775933734.181991,-160.21,-0.08,-0.44,-0.002,-0.08,9.799,0.0,-0.01,0.0
1775933734.1917582,-160.21,-0.08,-0.45,0.008,-0.087,9.787,0.0,-0.01,-0.01
1775933734.2017457,-160.21,-0.08,-0.45,0.005,-0.086,9.791,0.0,0.0,-0.01
1775933734.2117453,-160.21,-0.08,-0.45,-0.002,-0.068,9.792,-0.01,0.0,0.0
1775933734.221723,-160.21,-0.08,-0.44,0.0,-0.048,9.797,0.0,0.0,0.0
1775933734.2317498,-160.21,-0.08,-0.44,-0.005,-0.037,9.799,-0.01,-0.01,0.0
1775933734.2417536,-160.21,-0.08,-0.44,-0.007,-0.035,9.802,-0.01,0.0,-0.01
1775933734.2517505,-160.21,-0.08,-0.43,-0.006,-0.054,9.798,-0.01,-0.01,-0.01
1775933734.261718,-160.2,-0.08,-0.44,-0.011,-0.066,9.796,-0.01,0.0,-0.01
1775933734.2717397,-160.21,-0.08,-0.44,-0.011,-0.075,9.79,-0.01,0.0,-0.01
1775933734.2817488,-160.21,-0.08,-0.44,-0.014,-0.068,9.793,-0.01,-0.01,0.0
1775933734.2917473,-160.21,-0.08,-0.44,-0.017,-0.062,9.794,-0.01,-0.01,0.0
1775933734.3017623,-160.21,-0.08,-0.44,-0.006,-0.056,9.796,0.0,-0.01,0.0
1775933734.3117547,-160.21,-0.08,-0.44,-0.018,-0.072,9.791,0.0,-0.01,-0.01
1775933734.3217187,-160.21,-0.08,-0.43,-0.022,-0.077,9.791,0.0,0.0,-0.01
1775933734.3317184,-160.21,-0.07,-0.43,-0.016,-0.073,9.794,0.0,-0.01,-0.01
1775933734.3419678,-160.21,-0.07,-0.43,-0.007,-0.062,9.793,0.0,-0.01,0.0
1775933734.35195,-160.21,-0.07,-0.43,-0.006,-0.046,9.794,-0.01,0.0,0.0
1775933734.3616989,-160.21,-0.07,-0.43,-0.005,-0.02,9.796,-0.01,0.0,0.0
1775933734.3717008,-160.21,-0.07,-0.42,0.0,-0.01,9.794,-0.01,-0.01,0.0
1775933734.3817015,-160.21,-0.07,-0.42,0.006,-0.025,9.799,-0.01,0.0,-0.01
1775933734.391722,-160.2,-0.07,-0.43,-0.001,-0.046,9.803,-0.01,0.0,-0.01
1775933734.401719,-160.2,-0.07,-0.43,-0.007,-0.075,9.804,-0.01,0.0,-0.01
1775933734.4117012,-160.2,-0.08,-0.43,-0.013,-0.109,9.8,0.0,0.0,0.0
1775933734.4216943,-160.21,-0.08,-0.44,-0.014,-0.103,9.794,0.0,0.0,0.0
1775933734.4317002,-160.22,-0.08,-0.44,-0.013,-0.065,9.781,-0.01,0.0,0.0
1775933734.4417028,-160.23,-0.08,-0.43,-0.014,-0.029,9.782,-0.01,0.0,0.0
1775933734.4550462,-160.22,-0.08,-0.43,-0.023,-0.024,9.79,0.0,-0.01,0.0
1775933734.4618933,-160.21,-0.08,-0.43,-0.023,-0.023,9.794,0.0,-0.01,-0.01
1775933734.4717023,-160.2,-0.08,-0.43,-0.025,-0.038,9.794,-0.01,-0.01,-0.01
1775933734.481728,-160.2,-0.08,-0.43,-0.028,-0.063,9.798,-0.01,-0.01,-0.01
1775933734.4917834,-160.2,-0.08,-0.43,-0.018,-0.087,9.787,0.0,-0.01,-0.01
1775933734.5017188,-160.21,-0.08,-0.43,-0.006,-0.089,9.792,0.0,-0.01,0.0
1775933734.511726,-160.21,-0.07,-0.43,-0.001,-0.06,9.787,-0.01,0.0,0.0
1775933734.5217152,-160.22,-0.07,-0.42,0.001,-0.037,9.792,0.0,-0.01,0.0
1775933734.5316885,-160.21,-0.07,-0.42,0.002,-0.025,9.797,0.0,-0.01,0.0
1775933734.5416956,-160.21,-0.07,-0.42,0.0,-0.023,9.798,0.0,0.0,-0.01
1775933734.551693,-160.21,-0.07,-0.41,0.0,-0.035,9.794,-0.01,0.0,-0.01
1775933734.5616825,-160.2,-0.08,-0.42,-0.013,-0.059,9.794,0.0,0.0,-0.01
1775933734.5716956,-160.2,-0.07,-0.42,-0.011,-0.069,9.791,-0.01,0.0,-0.01
1775933734.5816944,-160.2,-0.08,-0.43,-0.017,-0.056,9.784,-0.01,-0.01,0.0
1775933734.5917654,-160.21,-0.07,-0.42,-0.014,-0.059,9.778,-0.01,0.0,0.0
1775933734.6018014,-160.21,-0.07,-0.42,-0.012,-0.072,9.785,-0.01,-0.01,0.0
1775933734.6116905,-160.21,-0.07,-0.42,-0.02,-0.085,9.79,0.0,-0.01,0.0
1775933734.6216948,-160.21,-0.07,-0.42,-0.007,-0.091,9.791,0.0,-0.01,0.0
1775933734.6316953,-160.21,-0.07,-0.42,-0.006,-0.095,9.791,0.0,-0.01,0.0
1775933734.6416738,-160.21,-0.07,-0.42,-0.01,-0.081,9.782,0.0,0.0,0.0
1775933734.6516986,-160.21,-0.07,-0.42,-0.008,-0.047,9.769,0.0,-0.01,-0.01
1775933734.6608725,-160.21,-0.07,-0.42,-0.011,-0.026,9.774,-0.01,-0.01,-0.01
1775933734.671686,-160.21,-0.06,-0.41,-0.002,-0.03,9.784,-0.01,-0.01,-0.01
1775933734.6808963,-160.21,-0.07,-0.42,0.006,-0.037,9.79,-0.01,0.0,0.0
1775933734.6908739,-160.21,-0.06,-0.42,0.005,-0.041,9.794,-0.01,0.0,0.0
1775933734.7008524,-160.21,-0.07,-0.42,0.004,-0.046,9.794,-0.01,0.0,0.0
1775933734.7108731,-160.21,-0.07,-0.42,-0.005,-0.053,9.784,-0.01,0.0,0.0
1775933734.7208993,-160.21,-0.07,-0.42,-0.022,-0.065,9.772,-0.01,0.0,-0.01
1775933734.7316747,-160.2,-0.07,-0.42,-0.032,-0.067,9.768,-0.01,0.0,-0.01
1775933734.7408414,-160.2,-0.07,-0.42,-0.037,-0.085,9.763,0.0,-0.01,-0.01
1775933734.750837,-160.2,-0.08,-0.42,-0.046,-0.098,9.776,0.0,-0.01,-0.01
1775933734.7608495,-160.21,-0.07,-0.42,-0.03,-0.099,9.781,0.0,-0.01,0.0
1775933734.770902,-160.22,-0.07,-0.42,-0.016,-0.069,9.788,-0.01,-0.01,0.0
1775933734.7809603,-160.22,-0.07,-0.42,0.002,-0.049,9.791,-0.01,-0.01,0.0
1775933734.7908425,-160.22,-0.06,-0.42,0.019,-0.038,9.796,-0.01,-0.01,0.0
1775933734.800852,-160.21,-0.06,-0.42,0.024,-0.041,9.798,0.0,-0.01,-0.01
1775933734.810841,-160.21,-0.06,-0.42,0.03,-0.035,9.799,0.0,0.0,-0.01
1775933734.8208253,-160.21,-0.06,-0.42,0.008,-0.032,9.803,-0.01,0.0,-0.01
1775933734.8308845,-160.21,-0.06,-0.41,0.0,-0.04,9.805,-0.01,0.0,-0.01
1775933734.8411434,-160.21,-0.06,-0.41,-0.011,-0.048,9.805,-0.01,0.0,-0.01
1775933734.851368,-160.21,-0.07,-0.42,-0.013,-0.059,9.796,-0.01,0.0,0.0
1775933734.86118,-160.21,-0.07,-0.42,-0.018,-0.072,9.786,-0.01,0.0,0.0
1775933734.8711624,-160.21,-0.07,-0.42,-0.013,-0.067,9.779,-0.01,-0.01,0.0
1775933734.881835,-160.21,-0.06,-0.42,-0.011,-0.072,9.782,-0.01,-0.01,-0.01
1775933734.8910718,-160.2,-0.06,-0.42,-0.001,-0.071,9.779,-0.01,-0.01,-0.01
1775933734.901002,-160.2,-0.06,-0.42,-0.002,-0.081,9.784,-0.01,-0.01,-0.01
1775933734.9110613,-160.2,-0.06,-0.42,-0.004,-0.097,9.791,0.0,-0.01,-0.01
1775933734.9208546,-160.2,-0.06,-0.42,-0.002,-0.109,9.792,0.0,0.0,0.0
1775933734.9308178,-160.21,-0.06,-0.42,-0.005,-0.102,9.79,0.0,0.0,0.0
1775933734.9407992,-160.23,-0.06,-0.42,0.0,-0.066,9.782,-0.01,0.0,0.0
1775933734.9508176,-160.24,-0.06,-0.42,-0.005,-0.031,9.784,-0.01,-0.01,0.0
1775933734.960822,-160.24,-0.06,-0.4,-0.005,-0.026,9.788,0.0,0.0,0.0
1775933734.970828,-160.23,-0.06,-0.4,-0.012,-0.026,9.794,0.0,-0.01,-0.01
1775933734.9811745,-160.21,-0.06,-0.4,-0.024,-0.025,9.797,-0.01,0.0,-0.01
1775933734.9908013,-160.21,-0.07,-0.4,-0.019,-0.032,9.788,-0.01,-0.01,-0.01
1775933735.0008168,-160.2,-0.07,-0.41,-0.025,-0.061,9.791,-0.01,0.0,-0.01
1775933735.0108314,-160.2,-0.07,-0.42,-0.014,-0.074,9.776,-0.01,-0.01,-0.01
1775933735.0208306,-160.21,-0.07,-0.42,-0.008,-0.073,9.778,-0.01,0.0,0.0
1775933735.0308297,-160.21,-0.07,-0.42,-0.011,-0.067,9.772,-0.01,-0.01,0.0
1775933735.040846,-160.21,-0.07,-0.42,-0.096,-0.029,9.778,0.0,-0.01,0.0
1775933735.0508,-160.19,-0.11,-0.41,-0.079,-0.023,9.614,0.0,-0.01,-0.01
1775933735.0608165,-160.18,0.05,-0.56,0.545,-0.946,9.543,-0.01,0.02,-0.02
1775933735.070786,-160.16,0.23,-0.77,0.635,-0.204,9.615,-0.07,-0.08,-0.01
1775933735.0807998,-160.14,0.15,-0.83,0.77,-0.759,9.666,-0.08,-0.06,-0.02
1775933735.0908213,-160.13,-0.26,-0.81,-0.408,0.314,9.705,-0.05,0.05,-0.01
1775933735.1008716,-160.11,-0.85,-0.7,-0.331,-0.213,9.733,0.06,0.24,-0.01
1775933735.1107976,-160.1,-1.32,-0.14,-0.008,0.35,9.64,0.15,0.29,0.02
1775933735.1208196,-160.09,-1.62,0.4,-0.119,-0.521,8.312,0.24,0.25,-0.02
1775933735.130816,-160.02,-1.82,0.43,0.608,-0.576,6.281,0.29,0.15,0.0
1775933735.1407657,-159.91,-0.69,0.36,1.688,0.184,6.354,0.02,0.07,-0.07
1775933735.1508274,-159.7,-0.16,0.28,-0.132,1.139,7.269,-0.08,-0.54,-0.08
1775933735.1608007,-159.3,-0.23,0.39,-0.257,0.03,7.476,-0.02,-0.37,-0.14
1775933735.1708026,-159.0,-0.0,0.2,-0.35,0.757,6.609,0.0,0.0,-0.23
1775933735.1807694,-158.79,0.17,0.44,-0.563,-0.453,6.152,-0.02,-0.11,-0.15
1775933735.1908007,-158.77,-0.05,0.14,-0.411,-0.72,5.94,0.08,-0.07,-0.08
1775933735.2007675,-158.93,-0.04,0.06,-0.345,-0.589,6.234,-0.13,0.08,-0.02
1775933735.2107809,-159.3,-0.35,0.07,-0.608,-0.79,7.183,-0.02,0.05,0.11
1775933735.2208009,-159.67,-0.66,-0.02,-0.57,-1.007,7.881,0.05,0.13,0.22
1775933735.2307646,-159.92,-0.73,-0.12,-0.166,-0.952,8.392,-0.02,0.14,0.19
1775933735.2408116,-160.09,-0.69,-0.22,-0.396,-0.66,8.767,-0.05,0.02,0.11
1775933735.250769,-160.13,-0.64,-0.28,-0.396,-0.207,8.832,-0.06,-0.02,0.08
1775933735.2607656,-160.04,-0.52,-0.4,0.478,0.297,8.31,-0.06,-0.05,-0.02
1775933735.2707503,-159.87,-0.23,-0.44,0.046,0.644,8.213,-0.08,-0.08,-0.07
1775933735.2807744,-159.7,-0.2,-0.38,-0.057,0.448,8.299,-0.05,-0.08,-0.1
1775933735.290771,-159.58,-0.21,-0.39,-0.59,0.206,8.7,0.0,-0.05,-0.09
1775933735.3007724,-159.52,-0.37,-0.28,-0.357,0.271,8.854,0.0,0.02,-0.05
1775933735.310769,-159.47,-0.43,-0.17,-0.17,-0.153,9.006,0.05,0.06,-0.04
1775933735.320759,-159.46,-0.46,-0.17,0.164,-0.344,9.22,0.05,0.03,-0.02
1775933735.3307776,-159.47,-0.38,-0.18,0.277,-0.521,9.375,0.02,0.02,0.0
1775933735.3407705,-159.45,-0.31,-0.23,0.21,-0.539,9.49,0.01,-0.03,-0.01
1775933735.3507571,-159.43,-0.25,-0.32,0.322,-0.521,9.512,-0.02,-0.04,-0.02
1775933735.3607738,-159.43,-0.13,-0.36,0.589,-0.453,9.199,-0.03,-0.02,-0.02
1775933735.3707547,-159.48,-0.04,-0.31,0.386,-0.293,9.16,-0.02,-0.05,0.01
1775933735.3807745,-159.56,-0.09,-0.29,0.134,-0.45,9.332,0.04,-0.02,0.03
1775933735.39077,-159.67,-0.25,-0.41,-0.032,-0.393,9.354,0.0,0.03,0.05
1775933735.4007525,-159.76,-0.37,-0.41,-0.093,-0.125,9.476,-0.06,0.07,0.06
1775933735.4107716,-159.8,-0.44,-0.38,0.065,-0.031,9.557,-0.01,0.05,0.05
1775933735.4207768,-159.83,-0.47,-0.36,-0.154,0.113,9.624,-0.01,0.02,0.02
1775933735.4307733,-159.8,-0.49,-0.34,-0.162,0.23,9.629,0.0,0.01,0.01
1775933735.4407465,-159.7,-0.43,-0.33,-0.22,0.26,9.466,-0.01,-0.01,-0.04
1775933735.4507732,-159.59,-0.37,-0.34,-0.101,0.158,9.264,-0.02,-0.05,-0.06
1775933735.4607346,-159.5,-0.28,-0.34,-0.105,0.097,9.272,-0.01,-0.05,-0.06
1775933735.47074,-159.45,-0.24,-0.31,-0.214,-0.071,9.415,0.0,-0.05,-0.05
1775933735.4807754,-159.46,-0.27,-0.33,-0.14,-0.168,9.444,0.02,-0.02,-0.02
1775933735.4907713,-159.48,-0.27,-0.33,-0.017,-0.219,9.542,0.0,0.01,0.01
1775933735.500779,-159.5,-0.24,-0.34,0.188,-0.249,9.611,0.0,0.0,0.01
1775933735.5107434,-159.52,-0.18,-0.37,0.26,-0.297,9.665,-0.01,-0.01,0.01
1775933735.5207438,-159.54,-0.17,-0.42,0.325,-0.289,9.702,-0.02,-0.02,0.02
1775933735.530706,-159.56,-0.11,-0.47,0.433,-0.273,9.651,-0.02,-0.01,0.0
1775933735.5407286,-159.6,-0.07,-0.51,0.352,-0.257,9.665,-0.02,-0.02,0.02
1775933735.5507798,-159.63,-0.08,-0.53,0.169,-0.267,9.693,-0.02,-0.01,0.02
1775933735.5607321,-159.73,-0.14,-0.51,-0.004,0.025,9.707,-0.01,0.01,0.02
1775933735.5707214,-159.84,-0.24,-0.51,0.04,-0.068,9.527,0.02,0.02,0.06
1775933735.5798912,-159.9,-0.25,-0.54,0.004,-0.002,9.525,-0.03,0.05,0.06
1775933735.5898948,-159.92,-0.3,-0.54,-0.129,0.016,9.602,-0.03,0.0,0.02
1775933735.5999138,-159.89,-0.31,-0.54,0.086,-0.005,9.657,-0.01,0.02,0.0
1775933735.610709,-159.84,-0.26,-0.56,-0.097,-0.117,9.697,0.0,-0.01,-0.02
1775933735.6207297,-159.76,-0.26,-0.53,-0.207,-0.122,9.463,0.0,-0.02,-0.03
1775933735.6299055,-159.63,-0.25,-0.53,-0.144,-0.205,9.348,0.02,-0.02,-0.05
1775933735.640711,-159.48,-0.21,-0.48,-0.283,-0.2,9.39,0.0,-0.02,-0.08
1775933735.6507444,-159.36,-0.22,-0.45,-0.196,-0.332,9.35,0.03,-0.02,-0.08
1775933735.6607118,-159.28,-0.22,-0.42,-0.126,-0.317,9.472,0.02,-0.01,-0.07
1775933735.670712,-159.25,-0.2,-0.35,0.137,-0.316,9.56,0.03,0.0,-0.04
1775933735.6807353,-159.27,-0.15,-0.31,0.158,-0.388,9.626,0.04,-0.01,-0.02
1775933735.68991,-159.31,-0.12,-0.33,0.245,-0.263,9.675,0.02,-0.02,0.01
1775933735.7007113,-159.35,-0.08,-0.33,0.297,-0.077,9.711,-0.01,-0.01,0.02
1775933735.7098536,-159.4,-0.04,-0.31,0.313,0.099,9.727,-0.02,-0.02,0.02
1775933735.7198937,-159.45,-0.04,-0.31,0.199,0.217,9.733,-0.02,-0.01,0.02
1775933735.7307088,-159.48,-0.09,-0.29,0.126,0.237,9.672,-0.02,0.01,0.02
1775933735.739873,-159.49,-0.15,-0.29,0.05,0.162,9.61,-0.01,0.02,0.01
1775933735.7498562,-159.5,-0.18,-0.32,-0.002,0.034,9.629,-0.01,0.02,0.01
1775933735.7598774,-159.5,-0.22,-0.37,-0.104,-0.036,9.677,-0.02,0.02,0.0
1775933735.7698896,-159.49,-0.24,-0.4,-0.129,-0.123,9.711,-0.02,0.01,-0.01
1775933735.779857,-159.48,-0.22,-0.44,-0.122,-0.263,9.697,-0.02,-0.01,-0.01
1775933735.7899,-159.49,-0.18,-0.48,-0.194,-0.359,9.696,-0.02,-0.02,-0.01
1775933735.8007152,-159.51,-0.16,-0.51,-0.17,-0.408,9.639,-0.02,-0.03,0.0
1775933735.8098564,-159.55,-0.13,-0.53,-0.096,-0.388,9.575,-0.01,-0.02,0.01
1775933735.819888,-159.59,-0.11,-0.52,-0.01,-0.287,9.569,0.0,-0.02,0.02
1775933735.8298807,-159.62,-0.08,-0.48,0.061,-0.156,9.633,0.01,-0.02,0.02
1775933735.8398619,-159.63,-0.06,-0.44,0.139,-0.067,9.679,0.01,-0.01,0.01
1775933735.850153,-159.61,-0.04,-0.43,0.208,-0.001,9.714,0.01,-0.01,0.0
1775933735.8598626,-159.6,-0.02,-0.42,0.231,0.025,9.741,0.0,-0.01,-0.01
1775933735.8698592,-159.57,-0.01,-0.42,0.198,0.05,9.757,-0.01,-0.01,-0.02
1775933735.8798647,-159.55,-0.03,-0.43,0.144,0.092,9.721,-0.02,0.0,-0.02
1775933735.8898427,-159.53,-0.06,-0.43,0.108,0.08,9.627,-0.02,0.01,-0.02
1775933735.8998263,-159.51,-0.09,-0.45,0.044,0.016,9.586,-0.02,0.02,-0.02
1775933735.909844,-159.51,-0.12,-0.46,0.0,-0.108,9.618,-0.01,0.01,-0.01
1775933735.9198556,-159.53,-0.14,-0.49,-0.025,-0.247,9.669,-0.01,0.01,0.0
1775933735.9298384,-159.57,-0.14,-0.52,-0.083,-0.32,9.706,-0.01,0.0,0.01
1775933735.9398377,-159.6,-0.14,-0.55,-0.08,-0.313,9.727,-0.01,-0.01,0.02
1775933735.949857,-159.63,-0.11,-0.55,-0.108,-0.244,9.749,-0.01,-0.02,0.02
1775933735.9598632,-159.64,-0.1,-0.54,-0.089,-0.146,9.707,-0.01,-0.02,0.01
1775933735.9698415,-159.63,-0.09,-0.52,-0.061,-0.069,9.657,0.0,-0.02,0.0
1775933735.9798126,-159.6,-0.07,-0.5,-0.029,-0.023,9.664,0.01,-0.01,-0.02
1775933735.9898398,-159.56,-0.07,-0.47,0.007,-0.019,9.702,0.0,-0.01,-0.02
1775933735.9998522,-159.53,-0.06,-0.47,0.059,-0.054,9.731,0.0,-0.01,-0.02
1775933736.0098515,-159.5,-0.05,-0.47,0.101,-0.114,9.751,0.0,-0.01,-0.02
1775933736.0198634,-159.5,-0.04,-0.48,0.132,-0.166,9.766,0.0,0.0,-0.02
1775933736.0297973,-159.53,-0.02,-0.49,0.146,-0.177,9.762,-0.01,-0.01,0.0
1775933736.0398123,-159.58,-0.03,-0.51,0.139,-0.132,9.733,-0.01,0.0,0.02
1775933736.049811,-159.61,-0.04,-0.5,0.115,-0.038,9.707,-0.01,0.0,0.02
1775933736.0598269,-159.64,-0.06,-0.49,0.059,-0.005,9.711,-0.01,0.01,0.02
1775933736.0698457,-159.64,-0.08,-0.48,0.041,0.005,9.73,0.0,0.01,0.01
1775933736.079826,-159.63,-0.11,-0.48,-0.035,-0.068,9.75,0.0,0.01,0.0
1775933736.089883,-159.62,-0.11,-0.51,-0.089,-0.117,9.766,-0.01,0.0,-0.01
1775933736.0998116,-159.6,-0.12,-0.53,-0.174,-0.103,9.778,-0.02,-0.01,-0.02
1775933736.1098802,-159.58,-0.12,-0.53,-0.102,-0.056,9.697,-0.02,-0.01,-0.02
1775933736.1198096,-159.56,-0.11,-0.52,-0.05,-0.079,9.36,-0.01,-0.02,-0.02
1775933736.12985,-159.53,-0.04,-0.5,-0.134,-0.217,9.326,0.01,-0.02,-0.02
1775933736.139811,-159.52,0.0,-0.5,-0.18,-0.277,9.253,0.0,-0.04,-0.02
1775933736.1498466,-159.53,0.04,-0.46,-0.569,-0.542,9.246,0.02,-0.05,-0.02
1775933736.1597974,-159.58,0.07,-0.46,-0.51,-0.769,9.156,0.04,-0.04,0.0
1775933736.1698146,-159.67,0.18,-0.43,-0.686,-0.88,9.33,0.04,-0.07,0.04
1775933736.1798286,-159.81,0.29,-0.37,-0.526,-0.871,9.349,0.05,-0.07,0.05
1775933736.1898,-159.93,0.41,-0.33,-0.177,-0.859,9.41,0.05,-0.08,0.07
1775933736.1998172,-160.02,0.53,-0.32,0.111,-0.295,9.515,0.02,-0.06,0.06
1775933736.209815,-160.06,0.61,-0.2,0.625,0.03,9.593,0.0,-0.05,0.04
1775933736.2198117,-160.06,0.66,-0.11,0.857,0.256,9.651,0.02,-0.01,0.01
1775933736.2297828,-160.02,0.63,-0.07,0.913,0.35,9.693,0.02,0.02,-0.01
1775933736.2397807,-159.98,0.55,-0.07,0.754,0.345,9.724,-0.01,0.05,-0.02
1775933736.249783,-159.95,0.43,-0.09,0.368,0.278,9.66,-0.02,0.05,-0.02
1775933736.2598133,-159.95,0.29,-0.12,-0.115,0.109,9.536,-0.02,0.05,-0.02
1775933736.2698374,-159.96,0.17,-0.17,-0.542,0.005,9.394,-0.02,0.04,0.0
1775933736.2797897,-159.99,0.1,-0.18,-0.878,-0.09,9.357,-0.02,0.01,0.01
1775933736.2897856,-160.0,0.08,-0.18,-0.962,-0.186,9.38,0.0,-0.02,0.01
1775933736.2997806,-160.0,0.12,-0.18,-0.827,-0.206,9.442,0.01,-0.04,0.0
1775933736.3098173,-159.99,0.2,-0.17,-0.516,-0.208,9.538,0.01,-0.05,-0.01
1775933736.3197896,-159.98,0.29,-0.17,-0.102,-0.202,9.61,0.01,-0.05,-0.01
1775933736.3297832,-159.96,0.37,-0.18,0.271,-0.272,9.663,0.0,-0.03,-0.02
1775933736.3397884,-159.96,0.41,-0.22,0.53,-0.244,9.702,-0.01,-0.02,-0.01
1775933736.3498023,-159.96,0.41,-0.25,0.545,-0.245,9.731,-0.02,0.01,-0.01
1775933736.3597865,-159.97,0.36,-0.28,0.4,-0.32,9.683,-0.02,0.02,0.0
1775933736.369783,-159.99,0.29,-0.32,0.131,-0.37,9.634,-0.02,0.03,0.0
1775933736.3797832,-160.0,0.21,-0.34,-0.152,-0.364,9.603,-0.02,0.02,0.01
1775933736.389791,-160.02,0.14,-0.34,-0.426,-0.338,9.573,0.0,0.02,0.01
1775933736.399783,-160.03,0.1,-0.32,-0.604,-0.257,9.55,0.01,0.0,0.01
1775933736.409751,-160.01,0.1,-0.29,-0.639,-0.126,9.561,0.01,-0.02,0.0
1775933736.4197905,-159.99,0.12,-0.26,-0.505,-0.046,9.618,0.01,-0.03,-0.01
1775933736.429787,-159.97,0.17,-0.25,-0.289,-0.023,9.669,0.01,-0.03,-0.02
1775933736.4401343,-159.95,0.22,-0.26,-0.035,-0.071,9.706,0.0,-0.02,-0.02
1775933736.450067,-159.94,0.26,-0.3,0.213,-0.145,9.733,-0.01,-0.02,-0.02
1775933736.4597597,-159.95,0.29,-0.33,0.298,-0.223,9.754,-0.02,-0.01,-0.01
1775933736.4697556,-159.97,0.27,-0.37,0.303,-0.286,9.721,-0.02,0.01,0.0
1775933736.4797928,-159.99,0.23,-0.41,0.18,-0.357,9.677,-0.02,0.02,0.01
1775933736.4898016,-160.0,0.19,-0.42,-0.007,-0.364,9.667,-0.01,0.02,0.01
1775933736.499787,-160.0,0.14,-0.42,-0.193,-0.354,9.635,0.0,0.01,0.0
1775933736.5097966,-160.01,0.09,-0.42,-0.351,-0.286,9.635,0.01,0.01,0.0
1775933736.519916,-160.0,0.08,-0.39,-0.424,-0.193,9.628,0.01,-0.01,0.0
1775933736.5297887,-160.0,0.08,-0.37,-0.394,-0.121,9.669,0.01,-0.02,-0.01
1775933736.53974,-159.99,0.11,-0.36,-0.262,-0.071,9.705,0.0,-0.02,-0.01
1775933736.5497546,-159.95,0.13,-0.36,-0.115,-0.219,9.701,-0.01,-0.02,-0.01
1775933736.5597866,-159.84,0.16,-0.28,-0.25,-0.237,9.673,-0.01,-0.02,-0.03
1775933736.5697393,-159.72,0.18,-0.27,0.018,-1.716,9.282,0.06,-0.03,-0.08
1775933736.5797558,-159.65,0.22,-0.34,0.429,-2.212,9.028,0.11,0.0,-0.05
1775933736.5897877,-159.52,0.2,-0.25,0.793,-2.558,9.236,0.08,0.02,-0.04
1775933736.5997384,-159.41,0.18,-0.29,0.717,-2.534,9.387,0.09,0.02,-0.08
1775933736.60976,-159.43,0.25,-0.41,0.966,-3.264,9.432,0.05,0.04,-0.07
1775933736.6197562,-159.65,0.21,-0.6,0.154,-2.761,9.532,0.03,0.0,0.05
1775933736.6297715,-159.89,0.07,-0.81,0.466,-2.821,8.942,0.0,0.03,0.13
1775933736.6397278,-160.24,0.1,-1.2,0.01,-1.813,8.66,-0.12,0.03,0.15
1775933736.6497452,-160.7,0.05,-1.4,-0.657,-2.351,8.829,-0.2,-0.04,0.2
1775933736.6597197,-161.27,-0.16,-1.72,-0.674,-1.898,8.574,-0.1,-0.03,0.25
1775933736.6697423,-161.85,-0.05,-1.94,-0.867,-0.732,8.548,-0.11,0.04,0.31
1775933736.6797218,-162.34,-0.24,-1.93,-0.569,0.82,8.618,-0.15,-0.07,0.31
1775933736.6897402,-162.75,-0.21,-1.9,-1.063,1.239,8.474,-0.06,0.03,0.24
1775933736.6989284,-162.98,-0.24,-1.74,-0.833,1.254,8.689,-0.02,-0.03,0.22
1775933736.7097235,-163.08,-0.09,-1.36,-0.748,2.134,8.985,0.01,-0.01,0.11
1775933736.7197468,-163.08,0.01,-1.12,-0.805,1.487,9.199,0.09,-0.09,0.03
1775933736.7289069,-163.11,0.0,-1.3,-0.061,1.752,9.101,0.01,-0.05,-0.01
1775933736.739726,-163.19,0.09,-1.27,0.454,2.179,9.102,-0.1,0.01,0.01
1775933736.7497416,-163.33,0.26,-1.03,0.507,2.308,9.289,-0.04,-0.03,0.05
1775933736.7588902,-163.47,0.27,-0.8,0.724,2.151,9.424,0.06,-0.05,0.08
1775933736.7688906,-163.53,0.29,-0.71,0.547,2.054,9.526,0.05,0.01,0.07
1775933736.7797222,-163.47,0.23,-0.64,0.384,2.132,9.567,-0.02,0.02,0.02
1775933736.7888718,-163.34,0.18,-0.54,0.067,1.831,9.559,-0.02,0.02,-0.05
1775933736.7988982,-163.18,0.1,-0.56,-0.168,1.077,9.487,0.01,0.02,-0.08
1775933736.8097029,-163.06,0.03,-0.72,-0.491,0.435,9.529,-0.02,0.02,-0.08
1775933736.818898,-163.02,-0.05,-0.93,-0.568,-0.143,9.445,-0.07,0.01,-0.06
1775933736.829712,-163.06,-0.06,-1.07,-0.581,-0.558,9.482,-0.08,0.01,-0.02
1775933736.838897,-163.11,-0.04,-1.14,-0.483,-0.699,9.541,-0.03,-0.02,0.02
1775933736.848893,-163.16,-0.0,-1.15,-0.271,-0.721,9.58,-0.01,-0.03,0.03
1775933736.8597336,-163.19,0.05,-1.14,-0.01,-0.616,9.596,0.02,-0.02,0.02
1775933736.8688877,-163.21,0.12,-1.08,0.2,-0.366,9.653,0.02,-0.02,0.01
1775933736.8791885,-163.22,0.15,-0.97,0.357,-0.158,9.694,0.02,-0.02,0.01
1775933736.888885,-163.26,0.15,-0.89,0.345,0.114,9.725,0.04,0.0,0.01
1775933736.8988736,-163.28,0.1,-0.81,0.268,0.334,9.714,0.02,0.02,0.02
1775933736.9088743,-163.3,0.05,-0.76,0.014,0.583,9.724,0.0,0.02,0.01
1775933736.9188726,-163.28,-0.02,-0.71,-0.232,0.655,9.645,-0.01,0.02,0.0
1775933736.9297173,-163.23,-0.07,-0.72,-0.404,0.525,9.587,-0.02,0.01,-0.02
1775933736.9388814,-163.17,-0.09,-0.76,-0.465,0.29,9.596,-0.03,-0.01,-0.03
1775933736.948918,-163.15,-0.08,-0.82,-0.404,-0.056,9.587,-0.02,-0.02,-0.03
1775933736.9588742,-163.15,-0.04,-0.9,-0.254,-0.307,9.645,-0.02,-0.02,-0.02
1775933736.9690695,-163.17,0.02,-0.94,-0.066,-0.325,9.689,-0.02,-0.02,0.0
1775933736.9788725,-163.18,0.05,-0.93,0.109,-0.333,9.72,-0.01,-0.02,0.01
1775933736.9888732,-163.18,0.08,-0.91,0.24,-0.346,9.736,0.01,-0.01,0.0
1775933736.999014,-163.2,0.08,-0.89,0.257,-0.248,9.753,0.01,0.0,0.0
1775933737.0088642,-163.22,0.07,-0.85,0.188,-0.132,9.768,0.01,0.01,0.01
1775933737.0190659,-163.25,0.03,-0.8,0.074,0.01,9.769,0.02,0.01,0.01
1775933737.0288484,-163.26,-0.02,-0.76,-0.081,0.137,9.712,0.01,0.02,0.02
1775933737.0388677,-163.26,-0.05,-0.75,-0.238,0.219,9.711,0.0,0.01,0.0
1775933737.0488527,-163.24,-0.08,-0.73,-0.329,0.273,9.731,-0.02,0.0,-0.01
1775933737.0590441,-163.21,-0.07,-0.74,-0.299,0.15,9.693,-0.01,-0.01,-0.02
1775933737.0688512,-163.18,-0.05,-0.77,-0.194,0.084,9.67,-0.02,-0.02,-0.02
1775933737.0788708,-163.16,-0.0,-0.79,-0.024,0.01,9.586,-0.02,-0.02,-0.02
1775933737.0888245,-163.14,0.04,-0.84,-0.066,0.02,9.574,-0.02,-0.02,-0.02
1775933737.099017,-163.11,0.1,-0.8,-0.41,-0.132,9.636,-0.03,-0.02,-0.01
1775933737.1091316,-163.08,-0.04,-0.79,-0.029,-0.79,9.481,0.02,-0.03,-0.03
1775933737.1188192,-163.05,0.25,-1.06,0.148,-0.655,9.568,0.03,0.02,-0.03
1775933737.1288576,-162.96,0.18,-1.09,-0.443,-0.238,9.444,-0.1,-0.12,-0.02
1775933737.138878,-162.82,0.13,-1.04,-0.251,-0.25,8.997,-0.02,0.0,-0.06
1775933737.1488435,-162.71,0.17,-1.06,-0.19,-0.401,8.783,0.01,0.02,-0.08
1775933737.1588328,-162.64,0.16,-1.04,0.001,-0.423,8.943,0.0,-0.02,-0.06
1775933737.1688387,-162.63,0.24,-1.02,-0.087,-0.366,9.173,0.02,0.0,-0.03
1775933737.178852,-162.67,0.22,-0.96,-0.02,-0.202,9.342,0.02,-0.03,0.0
1775933737.1890512,-162.72,0.22,-0.91,0.016,-0.144,9.466,0.02,0.0,0.02
1775933737.1988692,-162.78,0.21,-0.92,0.108,0.044,9.557,0.01,0.0,0.02
1775933737.2090278,-162.84,0.2,-0.92,0.044,0.159,9.596,-0.02,0.01,0.03
1775933737.218883,-162.89,0.12,-0.92,0.079,0.484,9.465,-0.03,0.01,0.03
1775933737.228848,-162.91,0.15,-0.85,0.279,0.503,9.193,-0.02,0.04,0.02
1775933737.2390134,-162.91,0.16,-0.85,-0.002,0.528,9.295,0.0,-0.01,0.01
1775933737.2488618,-162.89,0.13,-0.81,-0.168,0.542,9.432,-0.02,-0.02,-0.01
1775933737.2588727,-162.87,0.04,-0.81,-0.229,0.332,9.532,-0.01,0.0,-0.02
1775933737.2688382,-162.85,0.02,-0.82,-0.17,0.122,9.503,-0.01,0.02,-0.02
1775933737.2788372,-162.85,0.02,-0.89,-0.381,-0.036,9.566,-0.02,0.0,-0.01
1775933737.288868,-162.86,-0.02,-0.93,-0.417,-0.074,9.549,-0.03,-0.02,0.0
1775933737.2988217,-162.87,-0.04,-0.96,-0.472,-0.154,9.602,-0.02,-0.01,0.0
1775933737.30884,-162.87,-0.04,-0.98,-0.314,-0.219,9.538,-0.02,0.0,0.0
1775933737.3188372,-162.88,0.01,-0.98,-0.284,-0.267,9.597,0.0,-0.02,0.0
1775933737.3288426,-162.88,0.03,-0.97,-0.212,-0.261,9.653,0.0,-0.03,0.0
1775933737.3388045,-162.87,0.05,-0.96,-0.11,-0.182,9.694,0.0,-0.02,-0.01
1775933737.348809,-162.85,0.08,-0.92,0.007,-0.105,9.697,0.0,-0.02,-0.02
1775933737.3588033,-162.85,0.09,-0.89,0.043,-0.084,9.683,0.01,-0.01,-0.01
1775933737.368808,-162.86,0.09,-0.87,0.055,0.007,9.717,0.01,-0.01,0.0
1775933737.3787851,-162.88,0.08,-0.84,0.06,0.083,9.742,0.0,0.0,0.0
1775933737.3888361,-162.89,0.05,-0.83,0.014,0.181,9.76,0.0,0.01,0.01
1775933737.3988016,-162.91,0.02,-0.8,-0.034,0.242,9.751,-0.01,0.01,0.01
1775933737.408809,-162.91,0.0,-0.78,-0.049,0.23,9.681,-0.01,0.01,0.0
1775933737.4188044,-162.9,-0.0,-0.78,-0.105,0.234,9.662,-0.01,0.0,0.0
1775933737.4288082,-162.89,-0.01,-0.77,-0.172,0.23,9.69,-0.01,-0.01,-0.01
1775933737.4388206,-162.87,-0.03,-0.76,-0.188,0.141,9.718,-0.01,-0.01,-0.02
1775933737.4488149,-162.86,-0.03,-0.76,-0.186,0.028,9.742,0.0,-0.01,-0.02
1775933737.4588404,-162.85,-0.02,-0.78,-0.2,-0.066,9.76,-0.01,-0.01,-0.01
1775933737.4687762,-162.85,-0.02,-0.8,-0.189,-0.135,9.757,-0.01,-0.01,-0.01
1775933737.4788072,-162.85,-0.03,-0.82,-0.126,-0.165,9.671,-0.01,-0.01,-0.01
1775933737.4888067,-162.85,-0.01,-0.82,-0.081,-0.156,9.628,-0.01,-0.01,0.0
1775933737.4988055,-162.85,0.0,-0.81,-0.077,-0.139,9.669,0.0,-0.01,0.0
1775933737.5088081,-162.85,-0.0,-0.79,-0.077,-0.139,9.706,0.0,-0.01,-0.01
1775933737.5188153,-162.85,-0.01,-0.79,-0.063,-0.121,9.733,0.0,0.0,-0.01
1775933737.5288072,-162.85,-0.02,-0.8,-0.06,-0.062,9.754,-0.01,0.0,0.0
1775933737.5388024,-162.86,-0.04,-0.78,-0.067,0.016,9.767,-0.01,0.0,0.0
1775933737.5495186,-162.87,-0.05,-0.77,-0.075,0.091,9.721,-0.01,0.0,0.0
1775933737.5588188,-162.87,-0.06,-0.74,-0.086,0.14,9.645,0.0,0.0,0.0
1775933737.568812,-162.87,-0.07,-0.7,-0.152,0.824,9.648,0.0,0.0,0.0
1775933737.578806,-162.77,-0.04,-0.55,-0.057,0.595,9.499,0.0,0.0,-0.02
1775933737.5887866,-162.72,-0.03,-0.63,-0.138,-0.113,9.568,0.02,-0.02,-0.05
1775933737.5988102,-162.75,-0.02,-0.77,-0.143,-0.295,9.633,-0.04,-0.02,-0.02
1775933737.6087646,-162.82,-0.1,-0.82,-0.144,-0.204,9.568,-0.05,0.0,0.02
1775933737.6187732,-162.87,-0.05,-0.81,-0.085,-0.255,9.506,-0.02,0.02,0.02
1775933737.6294713,-162.89,-0.1,-0.81,-0.217,-0.357,9.405,0.02,-0.02,0.02
1775933737.638992,-162.91,-0.11,-0.84,-0.127,-0.516,9.303,0.0,0.01,0.01
1775933737.6487648,-162.95,-0.1,-0.87,-0.102,-0.493,9.439,-0.01,-0.01,0.01
1775933737.6588647,-162.98,-0.1,-0.81,-0.177,-0.157,9.536,0.0,-0.01,0.02
1775933737.6687982,-162.96,-0.14,-0.73,-0.206,-0.029,9.609,0.02,-0.01,0.01
1775933737.6787415,-162.91,-0.12,-0.68,-0.138,0.138,9.663,0.02,0.01,-0.02
1775933737.6887627,-162.87,-0.14,-0.64,-0.175,0.057,9.644,0.01,-0.02,-0.03
1775933737.6987784,-162.85,-0.14,-0.66,-0.102,0.116,9.549,0.01,0.0,-0.02
1775933737.7087297,-162.85,-0.14,-0.66,-0.08,0.338,9.551,-0.02,0.0,-0.01
1775933737.7187588,-162.85,-0.13,-0.61,-0.03,0.507,9.62,-0.02,-0.01,-0.01
1775933737.7287788,-162.84,-0.12,-0.56,0.018,0.448,9.656,-0.01,-0.01,-0.01
1775933737.7387474,-162.83,-0.1,-0.55,0.034,0.286,9.681,0.01,-0.01,-0.01
1775933737.748762,-162.83,-0.1,-0.59,0.025,0.12,9.714,-0.01,-0.01,-0.01
1775933737.7587774,-162.83,-0.11,-0.63,-0.028,0.062,9.739,-0.02,-0.01,-0.01
1775933737.7687788,-162.84,-0.13,-0.64,-0.065,0.006,9.742,-0.02,0.0,0.0
1775933737.7779884,-162.84,-0.15,-0.65,-0.113,-0.145,9.681,-0.01,0.01,0.0
1775933737.7887998,-162.85,-0.17,-0.68,-0.164,-0.266,9.642,0.0,0.0,0.0
1775933737.7987602,-162.86,-0.18,-0.71,-0.217,-0.299,9.677,-0.01,0.0,0.0
1775933737.8079247,-162.86,-0.2,-0.72,-0.229,-0.265,9.696,-0.01,-0.01,0.0
1775933737.8179374,-162.86,-0.19,-0.7,-0.23,-0.232,9.725,0.0,-0.01,0.0
1775933737.8287826,-162.85,-0.19,-0.69,-0.211,-0.214,9.748,0.01,-0.02,-0.01
1775933737.8389413,-162.85,-0.17,-0.68,-0.169,-0.171,9.764,0.0,-0.02,-0.01
1775933737.8479445,-162.84,-0.17,-0.68,-0.113,-0.086,9.775,-0.01,-0.01,-0.01
1775933737.8587391,-162.84,-0.16,-0.67,-0.035,0.011,9.784,-0.01,-0.01,-0.01
1775933737.8678892,-162.84,-0.14,-0.64,0.026,0.086,9.791,0.0,-0.01,-0.01
1775933737.8778949,-162.84,-0.13,-0.61,0.053,0.12,9.79,0.0,-0.01,0.0
1775933737.8887644,-162.85,-0.14,-0.6,0.056,0.144,9.785,0.0,-0.01,0.0
1775933737.898749,-162.86,-0.14,-0.59,0.055,0.156,9.773,-0.01,0.0,0.0
1775933737.9087448,-162.86,-0.15,-0.57,0.025,0.152,9.781,-0.01,0.0,0.0
1775933737.917933,-162.87,-0.16,-0.56,-0.035,0.099,9.79,0.0,0.0,0.0
1775933737.9288561,-162.86,-0.18,-0.56,-0.103,0.014,9.794,0.0,0.0,0.0
1775933737.9379652,-162.86,-0.2,-0.59,-0.133,-0.062,9.785,-0.01,0.01,-0.01
1775933737.9493575,-162.86,-0.21,-0.61,-0.159,-0.109,9.761,-0.01,0.0,-0.01
1775933737.9579098,-162.85,-0.22,-0.61,-0.186,-0.145,9.745,-0.01,0.0,-0.01
1775933737.9679554,-162.85,-0.23,-0.61,-0.187,-0.178,9.724,-0.01,-0.01,-0.01
1775933737.9779654,-162.85,-0.22,-0.62,-0.168,-0.19,9.729,0.0,-0.01,-0.01
1775933737.987923,-162.85,-0.21,-0.62,-0.154,-0.159,9.75,0.0,-0.01,0.0
1775933737.997921,-162.85,-0.2,-0.61,-0.126,-0.105,9.766,0.0,-0.01,0.0
1775933738.0079303,-162.84,-0.2,-0.6,-0.085,-0.05,9.776,0.0,-0.01,-0.01
1775933738.0178974,-162.84,-0.19,-0.59,-0.038,-0.006,9.766,0.0,-0.01,-0.01
1775933738.0281394,-162.84,-0.19,-0.58,0.0,0.034,9.739,0.0,-0.01,-0.01
1775933738.0378933,-162.83,-0.18,-0.57,0.023,0.077,9.739,-0.01,-0.01,-0.01
1775933738.0479136,-162.84,-0.18,-0.56,0.031,0.091,9.757,-0.01,-0.01,-0.01
1775933738.0584524,-162.84,-0.18,-0.55,0.014,0.05,9.76,0.0,0.0,0.0
1775933738.0679076,-162.85,-0.19,-0.54,-0.014,0.046,9.769,0.0,0.0,0.0
1775933738.0779178,-162.85,-0.19,-0.53,-0.047,-0.017,9.754,0.0,0.0,0.0
1775933738.0878792,-162.85,-0.21,-0.53,-0.123,-0.06,9.768,0.0,0.0,0.0
1775933738.0978818,-162.84,-0.22,-0.54,-0.135,-0.127,9.779,0.0,0.0,-0.01
1775933738.1078963,-162.85,-0.24,-0.55,-0.164,-0.128,9.787,-0.01,0.0,-0.01
1775933738.117898,-162.85,-0.25,-0.57,-0.137,-0.133,9.694,-0.01,0.0,-0.01
1775933738.1278741,-162.86,-0.24,-0.58,-0.135,-0.107,9.614,-0.02,0.0,0.0
1775933738.137894,-162.86,-0.24,-0.58,-0.201,-0.038,9.666,-0.01,-0.01,0.0
1775933738.1478448,-162.85,-0.28,-0.56,-0.202,-0.006,9.705,-0.01,-0.01,0.0
1775933738.1578448,-162.85,-0.29,-0.55,0.0,-0.075,9.67,0.01,0.01,-0.01
1775933738.1678698,-162.87,-0.25,-0.54,-0.016,0.005,9.689,0.0,0.01,0.0
1775933738.1778758,-162.87,-0.31,-0.46,0.114,0.025,9.708,0.0,0.0,0.01
1775933738.1878428,-162.88,-0.35,-0.41,0.344,-0.138,9.514,0.03,0.03,-0.01
1775933738.1978595,-162.9,-0.32,-0.34,0.338,-0.223,9.58,0.04,0.03,0.01
1775933738.207878,-162.92,-0.36,-0.29,0.17,-0.365,9.64,0.05,0.0,0.01
1775933738.217879,-162.91,-0.42,-0.25,-0.031,-0.22,9.684,0.03,0.02,0.01
1775933738.2278607,-162.89,-0.46,-0.18,-0.287,-0.148,9.693,0.03,0.02,-0.01
1775933738.237914,-162.87,-0.51,-0.12,-0.399,-0.133,9.584,0.03,0.0,-0.02
1775933738.2478466,-162.86,-0.51,-0.11,-0.471,-0.144,9.527,0.02,-0.01,-0.02
1775933738.2578785,-162.88,-0.49,-0.14,-0.392,-0.03,9.568,-0.01,-0.02,0.0
1775933738.2678149,-162.9,-0.45,-0.13,-0.235,0.014,9.633,-0.02,-0.02,0.01
1775933738.2778623,-162.91,-0.42,-0.15,-0.05,0.042,9.679,-0.01,-0.02,0.01
1775933738.2878587,-162.91,-0.38,-0.16,0.152,0.025,9.714,-0.02,-0.01,0.0
1775933738.2978637,-162.89,-0.35,-0.16,0.274,-0.028,9.735,-0.01,-0.01,-0.01
1775933738.307864,-162.89,-0.34,-0.16,0.286,-0.087,9.751,0.0,0.0,-0.01
1775933738.317874,-162.9,-0.35,-0.16,0.2,-0.134,9.763,0.0,0.01,-0.01
1775933738.3278632,-162.91,-0.37,-0.15,0.042,-0.11,9.767,0.0,0.01,0.0
1775933738.3378398,-162.91,-0.39,-0.14,-0.115,-0.06,9.773,0.0,0.0,0.0
1775933738.3478367,-162.91,-0.41,-0.15,-0.22,-0.09,9.742,0.0,0.0,0.0
1775933738.3578575,-162.9,-0.41,-0.17,-0.224,-0.163,9.69,-0.01,-0.01,-0.01
1775933738.367826,-162.89,-0.4,-0.19,-0.157,-0.254,9.677,-0.01,-0.01,-0.01
1775933738.3778582,-162.9,-0.38,-0.23,-0.062,-0.31,9.706,-0.01,-0.02,-0.01
1775933738.3878515,-162.91,-0.35,-0.24,0.023,-0.291,9.733,-0.01,-0.02,0.0
1775933738.3978724,-162.91,-0.35,-0.24,0.087,-0.199,9.754,-0.01,-0.01,0.0
1775933738.4078536,-162.91,-0.34,-0.23,0.103,-0.116,9.766,0.0,0.0,0.0
1775933738.4178543,-162.9,-0.35,-0.22,0.073,-0.06,9.776,0.0,0.0,-0.01
1775933738.427833,-162.89,-0.36,-0.22,0.026,-0.051,9.78,0.0,0.0,-0.01
1775933738.4378352,-162.9,-0.36,-0.22,-0.028,-0.079,9.764,0.0,0.0,-0.01
1775933738.4478583,-162.91,-0.36,-0.23,-0.071,-0.119,9.75,-0.01,0.0,0.0
1775933738.4578521,-162.91,-0.36,-0.24,-0.072,-0.166,9.757,-0.01,-0.01,0.0
1775933738.4678326,-162.91,-0.35,-0.25,-0.068,-0.21,9.769,-0.01,-0.01,0.0
1775933738.4778273,-162.91,-0.34,-0.26,-0.044,-0.237,9.774,0.0,-0.01,-0.01
1775933738.4878356,-162.9,-0.34,-0.28,-0.013,-0.211,9.779,-0.01,-0.01,-0.01
1775933738.4978538,-162.9,-0.33,-0.28,-0.006,-0.187,9.782,-0.01,0.0,-0.01
1775933738.5078387,-162.9,-0.34,-0.28,-0.004,-0.168,9.79,-0.01,0.0,0.0
1775933738.5178542,-162.9,-0.35,-0.29,-0.016,-0.144,9.784,-0.01,0.0,-0.01
1775933738.5278199,-162.9,-0.35,-0.29,-0.024,-0.148,9.784,-0.01,0.0,-0.01
1775933738.5378156,-162.9,-0.34,-0.3,-0.032,-0.153,9.786,-0.01,0.0,-0.01
1775933738.5478137,-162.9,-0.34,-0.31,-0.034,-0.152,9.79,-0.01,0.0,-0.01
1775933738.5578196,-162.89,-0.34,-0.31,-0.042,-0.121,9.776,0.0,-0.01,0.0
1775933738.5678174,-162.84,-0.33,-0.28,-0.226,-0.072,9.756,0.0,-0.01,-0.02
1775933738.57783,-162.72,-0.34,-0.25,-0.418,-0.198,9.671,0.01,-0.02,-0.05
1775933738.5878024,-162.61,-0.32,-0.23,-0.03,-0.942,9.429,0.03,-0.02,-0.08
1775933738.5978208,-162.65,-0.23,-0.28,-0.162,-1.208,9.53,0.05,-0.02,-0.05
1775933738.6078434,-162.79,-0.18,-0.23,0.207,-1.523,9.463,0.06,-0.02,0.04
1775933738.6178212,-162.98,-0.15,-0.28,0.225,-1.453,9.555,0.05,-0.02,0.08
1775933738.627773,-163.17,-0.13,-0.28,0.55,-1.184,9.597,0.02,-0.02,0.11
1775933738.6377885,-163.29,-0.09,-0.32,0.289,-1.685,9.654,0.01,-0.01,0.08
1775933738.6478071,-163.26,-0.16,-0.43,-0.029,-0.719,9.688,0.0,-0.01,0.05
1775933738.6578224,-163.1,-0.14,-0.32,0.689,-0.485,9.22,-0.04,0.05,-0.05
1775933738.66782,-162.95,-0.25,-0.34,0.18,-0.175,9.276,0.02,0.01,-0.09
1775933738.6777885,-162.82,-0.3,-0.46,0.196,-0.593,9.103,-0.04,0.05,-0.09
1775933738.6878285,-162.7,-0.28,-0.62,-0.054,-0.375,9.287,-0.05,0.02,-0.08
1775933738.6977715,-162.63,-0.37,-0.61,-0.01,-0.423,9.29,-0.06,-0.01,-0.07
1775933738.7078035,-162.67,-0.41,-0.54,-0.066,-0.811,9.325,0.02,0.02,-0.03
1775933738.7178252,-162.83,-0.41,-0.54,-0.097,-0.811,9.453,0.07,0.01,0.04
1775933738.7277894,-163.03,-0.4,-0.47,-0.249,-0.035,9.547,0.03,-0.02,0.09
1775933738.7378213,-163.19,-0.41,-0.3,-0.208,0.721,9.568,0.02,-0.02,0.11
1775933738.747773,-163.24,-0.39,-0.16,-0.168,1.114,9.602,0.02,-0.02,0.07
1775933738.7577748,-163.2,-0.38,-0.1,-0.061,1.039,9.656,0.0,-0.02,0.01
1775933738.7677877,-163.15,-0.39,-0.15,-0.45,0.808,9.697,-0.02,-0.01,-0.03
1775933738.7778015,-163.01,-0.46,-0.25,-0.519,1.086,9.713,-0.05,0.01,-0.04
1775933738.7877724,-162.82,-0.47,-0.32,-0.455,1.053,9.365,-0.12,0.0,-0.1
1775933738.7977424,-162.7,-0.41,-0.36,-0.102,0.096,8.864,-0.05,-0.02,-0.11
1775933738.8077724,-162.7,-0.31,-0.55,-0.036,-0.418,9.039,0.0,-0.04,-0.05
1775933738.8177888,-162.76,-0.29,-0.62,0.141,-0.438,9.245,-0.05,-0.03,0.01
1775933738.8277574,-162.84,-0.27,-0.64,0.308,-0.619,9.393,-0.01,0.0,0.03
1775933738.8377733,-162.92,-0.25,-0.66,0.35,-0.354,9.489,0.01,0.01,0.05
1775933738.8477721,-162.94,-0.27,-0.58,0.277,0.014,9.572,-0.02,0.0,0.03
1775933738.8577826,-162.92,-0.29,-0.52,0.151,0.101,9.472,0.02,0.02,0.0
1775933738.8669426,-162.87,-0.32,-0.5,0.001,0.086,9.488,0.01,0.01,-0.02
1775933738.8769445,-162.84,-0.34,-0.49,-0.125,-0.013,9.563,0.0,0.0,-0.03
1775933738.8877559,-162.85,-0.34,-0.5,-0.189,-0.163,9.629,0.01,-0.01,-0.02
1775933738.8969235,-162.88,-0.34,-0.52,-0.192,-0.099,9.676,-0.01,-0.02,0.01
1775933738.9069417,-162.89,-0.32,-0.52,-0.105,-0.025,9.636,-0.02,-0.02,0.01
1775933738.918259,-162.89,-0.3,-0.52,-0.001,-0.056,9.611,-0.01,-0.01,0.0
1775933738.9269273,-162.87,-0.27,-0.53,0.063,-0.108,9.665,-0.01,-0.01,-0.02
1775933738.9370415,-162.86,-0.27,-0.54,0.122,-0.202,9.703,-0.01,-0.01,-0.02
1775933738.946942,-162.87,-0.28,-0.56,0.105,-0.194,9.719,-0.01,0.0,-0.01
1775933738.9577444,-162.89,-0.29,-0.55,0.05,-0.098,9.675,-0.01,0.01,0.01
1775933738.9677587,-162.89,-0.3,-0.54,-0.022,-0.04,9.634,-0.01,0.0,0.0
1775933738.9777615,-162.87,-0.31,-0.53,-0.098,-0.04,9.675,0.0,0.0,-0.01
1775933738.986926,-162.87,-0.31,-0.53,-0.114,-0.117,9.708,0.0,-0.01,-0.01
1775933738.996908,-162.87,-0.3,-0.54,-0.098,-0.183,9.736,0.0,-0.01,-0.01
1775933739.0069022,-162.88,-0.29,-0.55,-0.044,-0.168,9.754,-0.01,-0.01,0.0
1775933739.0169475,-162.89,-0.28,-0.55,0.01,-0.139,9.741,-0.01,-0.01,0.0
1775933739.0269465,-162.87,-0.27,-0.55,0.046,-0.108,9.729,-0.01,0.0,-0.01
1775933739.0369587,-162.87,-0.27,-0.54,0.035,-0.128,9.75,0.0,0.0,-0.01
1775933739.0517128,-162.87,-0.28,-0.55,0.012,-0.144,9.766,0.0,0.0,-0.01
1775933739.0572374,-162.87,-0.29,-0.56,-0.028,-0.123,9.763,-0.01,0.0,0.0
1775933739.0669508,-162.88,-0.3,-0.56,-0.056,-0.108,9.729,-0.01,0.0,0.0
1775933739.0785768,-162.87,-0.3,-0.56,-0.079,-0.086,9.738,-0.01,0.0,0.0
1775933739.0905664,-162.87,-0.29,-0.55,-0.073,-0.105,9.759,-0.01,-0.01,-0.01
1775933739.097368,-162.87,-0.28,-0.56,-0.046,-0.145,9.772,0.0,-0.01,-0.01
1775933739.1110654,-162.87,-0.28,-0.56,0.002,-0.134,9.767,0.0,-0.01,-0.01
1775933739.1171205,-162.87,-0.26,-0.56,0.038,-0.122,9.761,-0.01,-0.01,0.0
1775933739.1297247,-162.88,-0.25,-0.56,0.043,-0.113,9.773,0.0,-0.01,0.0
1775933739.1371298,-162.87,-0.26,-0.56,0.017,-0.109,9.782,0.0,0.0,0.0
1775933739.1470153,-162.87,-0.28,-0.56,-0.03,-0.128,9.78,-0.01,0.0,-0.01
1775933739.1571226,-162.87,-0.28,-0.57,-0.068,-0.15,9.759,-0.01,0.0,-0.01
1775933739.1670825,-162.87,-0.29,-0.58,-0.084,-0.154,9.741,-0.01,0.0,0.0
1775933739.1769192,-162.87,-0.29,-0.59,-0.077,-0.146,9.733,-0.01,-0.01,0.0
1775933739.18689,-162.87,-0.28,-0.58,-0.047,-0.133,9.753,0.0,-0.01,-0.01
1775933739.1968887,-162.87,-0.27,-0.58,-0.002,-0.111,9.767,0.0,-0.01,-0.01
1775933739.2068985,-162.87,-0.25,-0.57,0.029,-0.099,9.779,0.0,-0.01,-0.01
1775933739.2168891,-162.87,-0.25,-0.57,0.037,-0.087,9.77,0.0,0.0,0.0
1775933739.2274895,-162.87,-0.25,-0.57,0.025,-0.08,9.768,-0.01,0.0,0.0
1775933739.2368941,-162.87,-0.26,-0.58,-0.02,-0.111,9.779,-0.01,0.0,0.0
1775933739.2469237,-162.87,-0.27,-0.58,-0.063,-0.153,9.781,-0.01,0.0,-0.01
1775933739.25718,-162.87,-0.27,-0.59,-0.072,-0.164,9.759,-0.01,0.0,-0.01
1775933739.26688,-162.87,-0.27,-0.59,-0.065,-0.176,9.735,-0.01,0.0,-0.01
1775933739.2768843,-162.87,-0.26,-0.6,-0.035,-0.156,9.75,0.0,-0.01,0.0
1775933739.2868962,-162.87,-0.26,-0.59,-0.013,-0.108,9.766,0.0,-0.01,0.0
1775933739.2968757,-162.87,-0.24,-0.58,0.012,-0.037,9.778,0.0,-0.01,0.0
1775933739.306909,-162.85,-0.23,-0.57,0.011,-0.047,9.75,0.0,-0.01,-0.01
1775933739.3168442,-162.82,-0.22,-0.56,0.119,-0.259,9.707,0.0,-0.01,-0.02
1775933739.3268747,-162.79,-0.22,-0.54,0.169,-0.455,9.667,0.01,-0.01,-0.02
1775933739.3368924,-162.8,-0.33,-0.56,-0.668,-0.886,9.706,0.03,0.01,-0.02
1775933739.347142,-162.78,-0.34,-0.49,0.387,-0.747,9.27,0.05,0.05,0.02
1775933739.35686,-162.74,-0.29,-0.28,-0.234,-0.976,9.408,0.08,0.01,-0.02
1775933739.3668897,-162.67,-0.46,-0.15,-0.056,-0.784,8.565,0.11,-0.04,-0.02
1775933739.3768454,-162.59,-0.38,-0.08,-0.063,-0.823,7.936,0.07,0.05,-0.05
1775933739.3868783,-162.52,-0.44,-0.13,-0.352,-0.441,8.339,0.02,-0.02,-0.05
1775933739.3968585,-162.5,-0.53,-0.03,-0.241,-0.129,8.73,-0.02,0.02,-0.03
1775933739.4068763,-162.49,-0.58,0.07,-0.388,-0.041,9.017,0.03,0.03,-0.02
1775933739.4168324,-162.48,-0.6,0.11,-0.199,-0.09,9.227,0.04,0.01,-0.01
1775933739.4268267,-162.47,-0.59,0.06,-0.29,-0.062,9.38,0.01,0.0,-0.01
1775933739.436859,-162.45,-0.56,-0.04,-0.158,0.014,9.409,-0.04,-0.02,-0.02
1775933739.4468265,-162.45,-0.48,-0.12,0.017,0.286,9.154,-0.06,-0.02,-0.02
1775933739.4568274,-162.45,-0.42,-0.09,0.072,0.293,8.947,-0.05,-0.04,-0.01
1775933739.4668643,-162.47,-0.37,-0.13,0.107,-0.022,8.841,-0.01,-0.03,0.0
1775933739.4768596,-162.5,-0.37,-0.22,0.077,0.068,9.099,-0.03,-0.02,0.01
1775933739.486828,-162.56,-0.35,-0.18,0.338,-0.013,9.287,-0.03,0.01,0.02
1775933739.4968479,-162.59,-0.34,-0.15,0.337,-0.257,9.427,0.02,0.0,0.02
1775933739.5068264,-162.58,-0.32,-0.19,0.281,-0.466,9.529,0.02,0.01,0.01
1775933739.516867,-162.56,-0.33,-0.24,0.186,-0.504,9.602,-0.01,0.0,-0.01
1775933739.5268273,-162.53,-0.36,-0.3,0.126,-0.483,9.482,-0.02,0.0,-0.02
1775933739.536827,-162.51,-0.36,-0.32,0.08,-0.37,9.297,-0.02,0.01,-0.02
1775933739.5468707,-162.5,-0.38,-0.3,0.011,-0.311,9.171,-0.01,0.0,-0.02
1775933739.5568311,-162.51,-0.39,-0.29,-0.164,-0.365,9.294,0.01,0.0,-0.01
1775933739.566832,-162.52,-0.44,-0.3,-0.174,-0.389,9.43,0.01,0.0,0.0
1775933739.576835,-162.54,-0.43,-0.32,-0.147,-0.327,9.532,0.0,0.01,0.0
1775933739.5868313,-162.54,-0.41,-0.32,-0.103,-0.244,9.605,-0.01,-0.01,0.01
1775933739.5968418,-162.53,-0.38,-0.32,-0.11,-0.14,9.66,-0.01,-0.02,0.0
1775933739.6067948,-162.51,-0.36,-0.3,-0.013,-0.051,9.576,0.0,-0.02,-0.02
1775933739.616832,-162.48,-0.32,-0.29,0.079,-0.03,9.479,0.0,-0.02,-0.02
1775933739.6268315,-162.45,-0.29,-0.29,0.143,-0.111,9.507,0.0,-0.01,-0.02
1775933739.6368332,-162.45,-0.29,-0.31,0.138,-0.213,9.588,0.0,-0.01,-0.02
1775933739.6468124,-162.47,-0.3,-0.33,0.154,-0.332,9.646,0.0,0.0,0.0
1775933739.6568377,-162.51,-0.31,-0.37,0.144,-0.411,9.689,0.0,0.01,0.02
1775933739.666843,-162.54,-0.32,-0.4,0.096,-0.399,9.719,-0.01,0.01,0.02
1775933739.6768386,-162.55,-0.34,-0.43,0.02,-0.334,9.67,-0.02,0.0,0.01
1775933739.6868412,-162.53,-0.36,-0.45,-0.037,-0.245,9.594,-0.02,0.0,0.0
1775933739.6967816,-162.51,-0.36,-0.45,-0.09,-0.204,9.548,-0.02,0.0,-0.02
1775933739.7067978,-162.5,-0.36,-0.45,-0.171,-0.249,9.576,0.0,-0.01,-0.02
1775933739.7168314,-162.48,-0.37,-0.45,-0.154,-0.303,9.639,0.0,-0.01,-0.02
1775933739.7268436,-162.48,-0.35,-0.46,-0.103,-0.304,9.684,0.0,-0.01,-0.01
1775933739.7368026,-162.5,-0.32,-0.47,-0.032,-0.275,9.718,0.0,-0.02,0.0
1775933739.7468011,-162.5,-0.29,-0.46,0.036,-0.223,9.741,0.0,-0.02,0.0
1775933739.756788,-162.5,-0.27,-0.46,0.099,-0.201,9.73,0.0,-0.02,0.0
1775933739.7667813,-162.5,-0.26,-0.46,0.156,-0.192,9.718,0.0,-0.01,0.0
1775933739.7767906,-162.5,-0.25,-0.47,0.148,-0.208,9.738,-0.01,0.0,-0.01
1775933739.7867897,-162.5,-0.26,-0.49,0.104,-0.229,9.757,-0.01,0.0,-0.01
1775933739.796785,-162.52,-0.28,-0.5,0.103,-0.436,9.738,-0.01,0.01,0.0
1775933739.8067832,-162.63,-0.3,-0.46,-0.138,-0.054,9.62,0.0,0.0,0.02
1775933739.816791,-162.66,-0.33,-0.52,0.012,0.181,9.572,0.0,0.02,0.05
1775933739.8268013,-162.6,-0.33,-0.55,-0.135,0.012,9.581,-0.05,0.0,-0.01
1775933739.836826,-162.54,-0.31,-0.58,0.059,-0.38,9.572,-0.02,0.0,-0.04
1775933739.8467662,-162.5,-0.3,-0.61,-0.176,-0.666,9.634,0.0,-0.02,-0.03
1775933739.8567908,-162.49,-0.3,-0.64,-0.104,-0.671,9.55,0.02,-0.01,-0.02
1775933739.8667994,-162.48,-0.3,-0.65,-0.042,-0.558,9.42,0.02,-0.01,-0.01
1775933739.876775,-162.46,-0.24,-0.6,-0.08,-0.396,9.448,0.01,-0.01,-0.02
1775933739.8867867,-162.44,-0.25,-0.53,0.062,-0.347,9.501,0.02,-0.02,-0.02
1775933739.8967881,-162.43,-0.22,-0.51,0.043,-0.254,9.582,0.02,0.0,-0.02
1775933739.9068007,-162.44,-0.23,-0.5,0.122,-0.062,9.642,0.0,-0.01,-0.01
1775933739.9167871,-162.45,-0.22,-0.47,0.127,0.05,9.685,0.0,0.01,0.0
1775933739.9267876,-162.47,-0.22,-0.49,0.105,0.115,9.719,-0.01,0.0,0.01
1775933739.9367707,-162.48,-0.23,-0.51,0.073,0.2,9.675,-0.02,0.0,0.0
1775933739.9459393,-162.47,-0.24,-0.53,0.017,0.163,9.618,-0.03,0.01,-0.01
1775933739.9559298,-162.46,-0.26,-0.56,0.0,0.014,9.578,-0.02,0.0,-0.01
1775933739.96595,-162.48,-0.26,-0.59,-0.034,-0.194,9.628,-0.02,0.0,0.0
1775933739.9759269,-162.5,-0.28,-0.62,-0.083,-0.359,9.676,-0.01,0.0,0.01
1775933739.9859273,-162.53,-0.28,-0.66,-0.11,-0.485,9.712,0.0,0.0,0.01
1775933739.9967728,-162.53,-0.27,-0.69,-0.08,-0.516,9.73,-0.01,-0.01,0.01
1775933740.0067792,-162.53,-0.25,-0.7,-0.083,-0.49,9.747,-0.01,-0.02,0.0
1775933740.015951,-162.52,-0.23,-0.71,-0.067,-0.443,9.723,0.0,-0.02,-0.01
1775933740.0259438,-162.51,-0.22,-0.71,-0.025,-0.382,9.689,0.0,-0.01,-0.01
1775933740.0367973,-162.5,-0.2,-0.7,0.04,-0.321,9.682,0.0,-0.01,-0.01
1775933740.0459383,-162.49,-0.2,-0.69,0.065,-0.249,9.717,0.0,-0.01,-0.01
1775933740.0567856,-162.49,-0.19,-0.67,0.089,-0.169,9.741,0.0,0.0,-0.01
1775933740.0659556,-162.5,-0.2,-0.66,0.104,-0.086,9.76,0.0,0.0,0.0
1775933740.0759377,-162.5,-0.2,-0.65,0.095,-0.018,9.773,0.0,0.0,0.0
1775933740.085915,-162.51,-0.2,-0.64,0.05,0.029,9.776,0.0,0.0,0.0
1775933740.09594,-162.5,-0.21,-0.63,0.005,0.046,9.745,-0.01,0.0,-0.01
1775933740.105958,-162.48,-0.23,-0.64,-0.036,-0.002,9.723,-0.01,0.0,-0.01
1775933740.1159372,-162.48,-0.24,-0.65,-0.078,-0.104,9.709,-0.01,0.0,-0.01
1775933740.1262674,-162.48,-0.25,-0.68,-0.121,-0.255,9.733,-0.01,0.0,-0.01
1775933740.1359112,-162.48,-0.26,-0.71,-0.11,-0.376,9.743,-0.01,0.0,0.0
1775933740.1459382,-162.5,-0.25,-0.75,-0.093,-0.429,9.749,-0.01,-0.01,0.0
1775933740.1559305,-162.51,-0.23,-0.77,-0.059,-0.42,9.754,-0.01,-0.01,0.0
1775933740.1659038,-162.51,-0.21,-0.78,-0.032,-0.371,9.76,-0.01,-0.02,0.0
1775933740.1759188,-162.51,-0.2,-0.77,0.0,-0.305,9.754,0.0,-0.01,0.0
1775933740.1859608,-162.51,-0.19,-0.76,0.034,-0.235,9.753,0.0,-0.01,-0.01
1775933740.1959052,-162.5,-0.18,-0.74,0.049,-0.163,9.768,0.0,-0.01,-0.01
1775933740.205905,-162.49,-0.19,-0.72,0.061,-0.097,9.779,0.0,0.0,-0.01
1775933740.2159102,-162.48,-0.19,-0.71,0.061,-0.062,9.787,0.0,0.0,-0.01
1775933740.2259085,-162.48,-0.19,-0.7,0.049,-0.069,9.793,0.0,0.0,-0.01
1775933740.2359037,-162.48,-0.2,-0.71,0.018,-0.101,9.778,-0.01,0.0,-0.01
1775933740.2459066,-162.49,-0.21,-0.73,-0.018,-0.15,9.75,-0.01,0.0,0.0
1775933740.256175,-162.5,-0.22,-0.75,-0.057,-0.184,9.725,-0.01,0.0,0.0
1775933740.265919,-162.51,-0.23,-0.76,-0.089,-0.207,9.717,-0.01,0.0,0.0
1775933740.2759128,-162.51,-0.23,-0.78,-0.087,-0.225,9.732,-0.01,0.0,0.0
1775933740.2859445,-162.51,-0.23,-0.79,-0.084,-0.257,9.754,-0.01,-0.01,0.0
1775933740.2959485,-162.5,-0.23,-0.79,-0.073,-0.284,9.751,0.0,-0.01,-0.01
1775933740.3059237,-162.49,-0.23,-0.78,-0.016,-0.303,9.718,0.0,0.0,-0.01
1775933740.3158786,-162.48,-0.21,-0.78,-0.031,-0.305,9.729,0.0,-0.01,-0.01
1775933740.325901,-162.49,-0.2,-0.79,0.024,-0.261,9.75,0.0,-0.01,0.0
1775933740.3359158,-162.49,-0.18,-0.79,-0.03,-0.207,9.766,-0.01,-0.01,0.0
1775933740.3459203,-162.49,-0.19,-0.79,0.086,-0.109,9.759,-0.01,-0.01,0.0
1775933740.3559093,-162.5,-0.17,-0.76,0.079,-0.065,9.743,0.0,0.0,0.0
1775933740.365897,-162.5,-0.18,-0.76,-0.051,-0.105,9.75,0.0,0.0,0.0
1775933740.3758976,-162.49,-0.15,-0.77,-0.141,-0.067,9.576,-0.01,0.0,0.0
1775933740.3859158,-162.5,-0.22,-0.8,-0.201,-0.138,9.47,-0.02,-0.02,-0.02
1775933740.3959258,-162.51,-0.15,-0.79,-0.333,-0.328,9.463,-0.01,0.0,0.0
1775933740.405898,-162.56,-0.18,-0.8,-0.378,-0.671,9.511,0.02,-0.05,0.02
1775933740.4159148,-162.62,-0.13,-0.85,-0.321,-0.764,9.494,0.01,-0.02,0.02
1775933740.4259105,-162.67,-0.08,-0.85,-0.184,-0.538,9.578,0.0,-0.03,0.03
1775933740.4358807,-162.72,-0.05,-0.79,-0.046,-0.389,9.64,0.01,-0.03,0.02
1775933740.4459105,-162.73,-0.03,-0.71,0.207,-0.309,9.684,0.04,-0.01,0.02
1775933740.4558976,-162.73,-0.0,-0.67,0.34,-0.188,9.718,0.03,0.0,0.0
1775933740.4658442,-162.73,-0.01,-0.65,0.389,0.001,9.743,0.01,0.01,-0.01
1775933740.4758458,-162.74,-0.04,-0.61,0.284,-0.007,9.76,0.0,0.02,-0.01
1775933740.4858804,-162.77,-0.08,-0.61,0.127,-0.012,9.725,0.0,0.02,0.01
1775933740.495891,-162.81,-0.14,-0.62,-0.086,-0.006,9.673,-0.01,0.02,0.02
1775933740.5058498,-162.84,-0.18,-0.61,-0.271,0.013,9.63,-0.01,0.01,0.02
