timestamp,yaw,pitch,roll,accel_x,accel_y,accel_z,gyro_x,gyro_y,gyro_z
1775934559.6784918,-163.93,-0.14,-0.27,-0.004,-0.034,9.798,-0.01,0.0,0.0
1775934559.688392,-163.93,-0.14,-0.27,-0.011,-0.043,9.788,-0.01,0.0,0.0
1775934559.6984005,-163.93,-0.14,-0.27,-0.019,-0.054,9.791,0.0,0.0,0.0
1775934559.7084224,-163.93,-0.14,-0.27,-0.03,-0.054,9.79,-0.01,0.0,0.0
1775934559.7183876,-163.93,-0.14,-0.27,-0.03,-0.059,9.794,0.0,0.0,0.0
1775934559.7283916,-163.93,-0.14,-0.27,-0.026,-0.057,9.794,0.0,-0.01,0.0
1775934559.738409,-163.93,-0.14,-0.27,-0.024,-0.051,9.793,-0.01,-0.01,-0.01
1775934559.7484074,-163.93,-0.14,-0.27,-0.016,-0.05,9.788,0.0,-0.01,-0.01
1775934559.7583869,-163.93,-0.14,-0.27,-0.013,-0.042,9.794,-0.01,-0.01,-0.01
1775934559.7683823,-163.93,-0.14,-0.27,-0.014,-0.038,9.796,-0.01,0.0,0.0
1775934559.778414,-163.93,-0.14,-0.27,-0.014,-0.038,9.788,0.0,0.0,0.0
1775934559.7884207,-163.93,-0.14,-0.27,-0.018,-0.035,9.782,-0.01,0.0,0.0
1775934559.79839,-163.93,-0.14,-0.27,-0.03,-0.041,9.779,-0.01,0.0,-0.01
1775934559.808396,-163.93,-0.14,-0.27,-0.029,-0.042,9.784,0.0,0.0,0.0
1775934559.8183954,-163.93,-0.14,-0.27,-0.025,-0.046,9.791,-0.01,0.0,-0.01
1775934559.828398,-163.93,-0.14,-0.27,-0.026,-0.047,9.79,0.0,-0.01,0.0
1775934559.838393,-163.93,-0.14,-0.27,-0.019,-0.046,9.792,0.0,-0.01,0.0
1775934559.8483942,-163.93,-0.14,-0.27,-0.014,-0.05,9.794,0.0,-0.01,0.0
1775934559.858406,-163.93,-0.14,-0.27,-0.012,-0.046,9.798,0.0,-0.01,-0.01
1775934559.868402,-163.93,-0.14,-0.27,-0.017,-0.041,9.798,0.0,0.0,0.0
1775934559.878405,-163.93,-0.14,-0.27,-0.018,-0.042,9.8,-0.01,0.0,0.0
1775934559.8884053,-163.93,-0.14,-0.27,-0.026,-0.046,9.797,-0.01,0.0,0.0
1775934559.8984141,-163.93,-0.14,-0.27,-0.024,-0.053,9.785,-0.01,0.0,-0.01
1775934559.9083922,-163.93,-0.14,-0.27,-0.03,-0.059,9.778,-0.01,0.0,-0.01
1775934559.9183912,-163.93,-0.14,-0.27,-0.031,-0.059,9.782,0.0,-0.01,0.0
1775934559.9283767,-163.93,-0.14,-0.27,-0.031,-0.054,9.784,0.0,-0.01,0.0
1775934559.938402,-163.93,-0.14,-0.27,-0.028,-0.042,9.787,0.0,-0.01,0.0
1775934559.9484217,-163.93,-0.14,-0.27,-0.026,-0.034,9.787,0.0,-0.01,0.0
1775934559.9584024,-163.93,-0.14,-0.27,-0.025,-0.035,9.791,0.0,0.0,-0.01
1775934559.968416,-163.93,-0.14,-0.27,-0.022,-0.036,9.794,-0.01,0.0,0.0
1775934559.9784026,-163.93,-0.14,-0.27,-0.025,-0.038,9.792,-0.01,0.0,0.0
1775934559.988415,-163.93,-0.14,-0.27,-0.026,-0.044,9.788,-0.01,0.0,0.0
1775934559.9984138,-163.93,-0.14,-0.27,-0.031,-0.048,9.785,0.0,0.0,0.0
1775934560.0083723,-163.93,-0.14,-0.27,-0.034,-0.049,9.786,-0.01,0.0,-0.01
1775934560.0183864,-163.93,-0.14,-0.27,-0.034,-0.054,9.785,0.0,-0.01,-0.01
1775934560.0283883,-163.93,-0.14,-0.27,-0.022,-0.049,9.79,0.0,-0.01,0.0
1775934560.0383732,-163.93,-0.14,-0.27,-0.017,-0.047,9.792,0.0,0.0,0.0
1775934560.048376,-163.93,-0.14,-0.27,-0.012,-0.04,9.787,-0.01,0.0,0.0
1775934560.058369,-163.93,-0.14,-0.27,-0.014,-0.044,9.793,-0.01,0.0,-0.01
1775934560.0684075,-163.93,-0.14,-0.27,-0.013,-0.055,9.791,-0.01,0.0,-0.01
1775934560.0783885,-163.93,-0.14,-0.27,-0.018,-0.062,9.796,-0.01,0.0,-0.01
1775934560.0883965,-163.93,-0.14,-0.27,-0.014,-0.062,9.792,0.0,-0.01,0.0
1775934560.0983987,-163.93,-0.14,-0.27,-0.014,-0.057,9.797,0.0,0.0,0.0
1775934560.108383,-163.93,-0.14,-0.27,-0.013,-0.06,9.79,0.0,-0.01,0.0
1775934560.118384,-163.93,-0.14,-0.27,-0.008,-0.05,9.794,0.0,-0.01,-0.01
1775934560.1284313,-163.93,-0.14,-0.27,-0.013,-0.046,9.799,-0.01,0.0,-0.01
1775934560.1384282,-163.93,-0.14,-0.27,-0.014,-0.047,9.79,0.0,0.0,-0.01
1775934560.1484294,-163.93,-0.14,-0.27,-0.016,-0.042,9.79,-0.01,0.0,0.0
1775934560.1583652,-163.93,-0.14,-0.27,-0.011,-0.047,9.785,-0.01,0.0,0.0
1775934560.1683953,-163.93,-0.14,-0.27,-0.017,-0.051,9.787,0.0,0.0,0.0
1775934560.1783555,-163.93,-0.14,-0.27,-0.012,-0.047,9.787,-0.01,0.0,-0.01
1775934560.188346,-163.93,-0.14,-0.27,-0.018,-0.054,9.793,0.0,0.0,-0.01
1775934560.1983771,-163.93,-0.14,-0.27,-0.023,-0.046,9.79,0.0,0.0,0.0
1775934560.2083962,-163.93,-0.14,-0.27,-0.025,-0.041,9.791,-0.01,-0.01,0.0
1775934560.2183938,-163.93,-0.14,-0.27,-0.024,-0.041,9.793,0.0,-0.01,0.0
1775934560.2275362,-163.93,-0.14,-0.27,-0.016,-0.046,9.794,0.0,-0.01,-0.01
1775934560.2383404,-163.93,-0.14,-0.27,-0.006,-0.038,9.798,-0.01,0.0,-0.01
1775934560.2483616,-163.93,-0.14,-0.27,-0.011,-0.042,9.793,-0.01,0.0,-0.01
1775934560.2583628,-163.93,-0.14,-0.27,-0.016,-0.043,9.794,0.0,0.0,0.0
1775934560.2684035,-163.93,-0.14,-0.27,-0.025,-0.041,9.791,-0.01,0.0,0.0
1775934560.2783527,-163.93,-0.14,-0.27,-0.034,-0.046,9.788,-0.01,0.0,0.0
1775934560.2883573,-163.93,-0.14,-0.27,-0.03,-0.044,9.784,0.0,0.0,-0.01
1775934560.2983696,-163.93,-0.14,-0.27,-0.032,-0.051,9.791,-0.01,-0.01,0.0
1775934560.3083692,-163.93,-0.14,-0.27,-0.028,-0.055,9.796,0.0,-0.01,0.0
1775934560.3183498,-163.93,-0.14,-0.28,-0.022,-0.042,9.799,0.0,-0.01,0.0
1775934560.3283715,-163.93,-0.14,-0.27,-0.013,-0.042,9.794,-0.01,-0.01,0.0
1775934560.338363,-163.93,-0.14,-0.27,-0.016,-0.043,9.797,0.0,0.0,-0.01
1775934560.3475313,-163.93,-0.14,-0.27,-0.025,-0.043,9.799,-0.01,0.0,-0.01
1775934560.3575056,-163.93,-0.14,-0.27,-0.025,-0.044,9.79,0.0,0.0,0.0
1775934560.3684075,-163.93,-0.14,-0.27,-0.026,-0.048,9.792,-0.01,0.0,0.0
1775934560.3775065,-163.93,-0.14,-0.27,-0.026,-0.044,9.791,-0.01,0.0,-0.01
1775934560.387526,-163.93,-0.14,-0.27,-0.026,-0.046,9.794,-0.01,-0.01,0.0
1775934560.3975303,-163.93,-0.14,-0.27,-0.025,-0.044,9.797,0.0,-0.01,-0.01
1775934560.4075215,-163.93,-0.14,-0.27,-0.017,-0.046,9.796,-0.01,-0.01,0.0
1775934560.4175434,-163.93,-0.14,-0.27,-0.012,-0.046,9.799,0.0,-0.01,-0.01
1775934560.427539,-163.93,-0.14,-0.27,-0.012,-0.043,9.799,0.0,-0.01,0.0
1775934560.4375231,-163.93,-0.14,-0.27,-0.011,-0.04,9.794,-0.01,0.0,0.0
1775934560.447518,-163.93,-0.14,-0.27,-0.017,-0.046,9.791,-0.01,0.0,0.0
1775934560.4575212,-163.93,-0.14,-0.27,-0.02,-0.048,9.796,-0.01,0.0,0.0
1775934560.4675484,-163.93,-0.14,-0.27,-0.022,-0.048,9.798,0.0,0.0,0.0
1775934560.4775083,-163.93,-0.14,-0.27,-0.026,-0.044,9.792,0.0,-0.01,0.0
1775934560.487524,-163.93,-0.14,-0.27,-0.019,-0.043,9.791,0.0,-0.01,-0.01
1775934560.4975235,-163.93,-0.14,-0.27,-0.017,-0.044,9.791,0.0,0.0,-0.01
1775934560.5075204,-163.93,-0.14,-0.27,-0.016,-0.044,9.788,0.0,-0.01,0.0
1775934560.5174966,-163.93,-0.14,-0.27,-0.018,-0.047,9.794,-0.01,-0.01,0.0
1775934560.527495,-163.93,-0.14,-0.27,-0.018,-0.044,9.798,-0.01,0.0,0.0
1775934560.5375206,-163.93,-0.14,-0.27,-0.025,-0.048,9.802,-0.01,0.0,-0.01
1775934560.5475323,-163.93,-0.14,-0.27,-0.026,-0.054,9.798,-0.01,0.0,0.0
1775934560.5575073,-163.93,-0.14,-0.28,-0.03,-0.054,9.797,-0.01,0.0,0.0
1775934560.5674775,-163.93,-0.14,-0.28,-0.031,-0.053,9.796,0.0,0.0,0.0
1775934560.577497,-163.93,-0.14,-0.28,-0.03,-0.047,9.793,0.0,0.0,0.0
1775934560.5875034,-163.93,-0.14,-0.27,-0.026,-0.048,9.791,-0.01,-0.01,0.0
1775934560.5975318,-163.93,-0.14,-0.27,-0.028,-0.048,9.797,0.0,-0.01,-0.01
1775934560.6075318,-163.93,-0.14,-0.28,-0.022,-0.046,9.799,0.0,-0.01,-0.01
1775934560.617471,-163.93,-0.14,-0.28,-0.014,-0.044,9.796,-0.01,-0.01,0.0
1775934560.62753,-163.93,-0.14,-0.28,-0.017,-0.046,9.796,-0.01,0.0,0.0
1775934560.63752,-163.93,-0.14,-0.28,-0.023,-0.049,9.797,-0.01,0.0,0.0
1775934560.6474893,-163.93,-0.14,-0.28,-0.026,-0.046,9.793,-0.01,0.0,-0.01
1775934560.6575084,-163.93,-0.14,-0.28,-0.029,-0.056,9.793,-0.01,0.0,-0.01
1775934560.667481,-163.93,-0.14,-0.28,-0.029,-0.056,9.798,0.0,0.0,-0.01
1775934560.677493,-163.93,-0.14,-0.28,-0.02,-0.059,9.802,-0.01,-0.01,0.0
1775934560.6874921,-163.93,-0.14,-0.28,-0.017,-0.051,9.802,0.0,-0.01,0.0
1775934560.6974957,-163.93,-0.14,-0.28,-0.008,-0.041,9.804,-0.01,-0.01,0.0
1775934560.7074156,-163.93,-0.14,-0.28,-0.005,-0.047,9.805,0.0,-0.01,-0.01
1775934560.7174416,-163.93,-0.14,-0.28,-0.005,-0.046,9.799,-0.01,0.0,-0.01
1775934560.7274673,-163.93,-0.14,-0.28,-0.014,-0.05,9.799,-0.01,0.0,0.0
1775934560.7374334,-163.93,-0.14,-0.28,-0.026,-0.046,9.798,0.0,0.0,0.0
1775934560.7475228,-163.93,-0.14,-0.28,-0.028,-0.049,9.793,-0.01,0.0,0.0
1775934560.7574623,-163.93,-0.14,-0.28,-0.029,-0.051,9.792,-0.01,0.0,-0.01
1775934560.7674806,-163.93,-0.14,-0.29,-0.036,-0.056,9.796,0.0,-0.01,-0.01
1775934560.777502,-163.93,-0.14,-0.29,-0.026,-0.053,9.799,-0.01,-0.01,-0.01
1775934560.7875066,-163.93,-0.14,-0.29,-0.019,-0.05,9.797,0.0,-0.01,0.0
1775934560.7974832,-163.93,-0.14,-0.28,-0.013,-0.047,9.8,0.0,-0.01,0.0
1775934560.8074775,-163.93,-0.14,-0.29,-0.013,-0.044,9.802,-0.01,0.0,0.0
1775934560.8174782,-163.93,-0.14,-0.28,-0.014,-0.049,9.802,-0.01,0.0,0.0
1775934560.8274808,-163.93,-0.14,-0.29,-0.028,-0.047,9.8,-0.01,0.0,0.0
1775934560.8374805,-163.93,-0.14,-0.29,-0.03,-0.05,9.803,-0.01,0.0,0.0
1775934560.8474622,-163.93,-0.14,-0.29,-0.035,-0.05,9.791,0.0,0.0,0.0
1775934560.8574805,-163.93,-0.14,-0.29,-0.031,-0.046,9.794,-0.01,-0.01,0.0
1775934560.8674307,-163.93,-0.14,-0.28,-0.024,-0.047,9.796,0.0,-0.01,-0.01
1775934560.877429,-163.93,-0.14,-0.29,-0.023,-0.05,9.793,0.0,-0.01,-0.01
1775934560.8874664,-163.93,-0.14,-0.29,-0.02,-0.046,9.791,-0.01,-0.01,-0.01
1775934560.8974648,-163.93,-0.14,-0.29,-0.013,-0.044,9.793,0.0,0.0,0.0
1775934560.9074724,-163.93,-0.14,-0.29,-0.016,-0.041,9.797,-0.01,0.0,0.0
1775934560.917466,-163.93,-0.14,-0.29,-0.02,-0.046,9.799,-0.01,0.0,0.0
1775934560.9274611,-163.93,-0.14,-0.29,-0.02,-0.055,9.797,-0.01,0.0,0.0
1775934560.9374456,-163.93,-0.14,-0.29,-0.031,-0.065,9.796,-0.01,0.0,-0.01
1775934560.9474332,-163.93,-0.14,-0.29,-0.031,-0.065,9.792,0.0,0.0,-0.01
1775934560.957434,-163.93,-0.14,-0.29,-0.026,-0.061,9.788,0.0,-0.01,0.0
1775934560.967432,-163.93,-0.14,-0.29,-0.016,-0.051,9.787,0.0,-0.01,0.0
1775934560.977435,-163.93,-0.14,-0.29,-0.012,-0.046,9.792,0.0,-0.01,0.0
1775934560.9874299,-163.93,-0.14,-0.29,-0.011,-0.044,9.792,0.0,0.0,0.0
1775934560.9974308,-163.93,-0.14,-0.29,-0.018,-0.04,9.793,-0.01,0.0,0.0
1775934561.0074356,-163.93,-0.14,-0.28,-0.022,-0.042,9.794,-0.01,0.0,0.0
1775934561.017434,-163.93,-0.14,-0.29,-0.03,-0.047,9.797,-0.01,0.0,0.0
1775934561.027436,-163.93,-0.14,-0.29,-0.035,-0.053,9.798,-0.01,0.0,-0.01
1775934561.0374336,-163.93,-0.14,-0.29,-0.04,-0.06,9.796,0.0,0.0,-0.01
1775934561.047443,-163.93,-0.14,-0.29,-0.042,-0.056,9.799,0.0,-0.01,-0.01
1775934561.0573988,-163.93,-0.14,-0.29,-0.037,-0.054,9.797,0.0,-0.01,-0.01
1775934561.0673869,-163.93,-0.14,-0.28,-0.029,-0.048,9.799,0.0,-0.01,0.0
1775934561.0774333,-163.93,-0.14,-0.28,-0.018,-0.04,9.798,0.0,0.0,0.0
1775934561.087434,-163.93,-0.14,-0.28,-0.019,-0.036,9.798,0.0,0.0,0.0
1775934561.0974376,-163.93,-0.14,-0.28,-0.018,-0.038,9.796,-0.01,0.0,0.0
1775934561.107431,-163.93,-0.14,-0.28,-0.024,-0.042,9.797,-0.01,0.0,0.0
1775934561.1174014,-163.93,-0.15,-0.28,-0.03,-0.053,9.797,0.0,0.0,0.0
1775934561.127389,-163.93,-0.15,-0.28,-0.037,-0.054,9.797,-0.01,0.0,0.0
1775934561.1373875,-163.93,-0.15,-0.28,-0.038,-0.049,9.8,-0.01,0.0,0.0
1775934561.147388,-163.93,-0.15,-0.28,-0.034,-0.044,9.8,0.0,-0.01,-0.01
1775934561.157405,-163.93,-0.15,-0.28,-0.024,-0.047,9.802,-0.01,-0.01,-0.01
1775934561.1674316,-163.93,-0.14,-0.28,-0.02,-0.049,9.8,-0.01,-0.01,-0.01
1775934561.1774347,-163.93,-0.14,-0.28,-0.012,-0.047,9.802,0.0,-0.01,0.0
1775934561.1873739,-163.93,-0.14,-0.28,-0.014,-0.04,9.804,-0.01,0.0,0.0
1775934561.1978104,-163.93,-0.14,-0.28,-0.019,-0.042,9.804,-0.01,0.0,0.0
1775934561.2074077,-163.93,-0.15,-0.28,-0.03,-0.044,9.798,-0.01,0.0,0.0
1775934561.2174096,-163.93,-0.15,-0.28,-0.034,-0.051,9.788,-0.01,0.0,-0.01
1775934561.2273924,-163.93,-0.15,-0.28,-0.034,-0.062,9.78,0.0,0.0,0.0
1775934561.2374043,-163.93,-0.15,-0.29,-0.034,-0.062,9.787,0.0,-0.01,0.0
1775934561.2474077,-163.93,-0.15,-0.28,-0.028,-0.059,9.791,-0.01,-0.01,0.0
1775934561.2573748,-163.93,-0.14,-0.28,-0.022,-0.051,9.794,0.0,-0.01,-0.01
1775934561.2673748,-163.93,-0.14,-0.28,-0.013,-0.05,9.791,0.0,-0.01,-0.01
1775934561.277359,-163.93,-0.14,-0.28,-0.019,-0.051,9.788,0.0,0.0,0.0
1775934561.2865918,-163.93,-0.14,-0.28,-0.026,-0.046,9.793,-0.01,0.0,0.0
1775934561.2973573,-163.93,-0.15,-0.28,-0.034,-0.049,9.797,-0.01,0.0,0.0
1775934561.3074012,-163.93,-0.15,-0.28,-0.036,-0.051,9.794,0.0,0.0,0.0
1775934561.3173544,-163.92,-0.15,-0.28,-0.036,-0.05,9.787,-0.01,-0.01,-0.01
1775934561.3265681,-163.93,-0.15,-0.28,-0.035,-0.048,9.788,0.0,0.0,-0.01
1775934561.3365805,-163.93,-0.15,-0.28,-0.024,-0.048,9.79,0.0,-0.01,0.0
1775934561.3473735,-163.93,-0.14,-0.28,-0.017,-0.04,9.793,-0.01,-0.01,0.0
1775934561.3578534,-163.93,-0.14,-0.28,-0.011,-0.038,9.794,0.0,-0.01,0.0
1775934561.3673706,-163.93,-0.14,-0.28,-0.018,-0.032,9.792,0.0,-0.01,0.0
1775934561.377373,-163.93,-0.14,-0.28,-0.022,-0.036,9.793,-0.01,0.0,-0.01
1775934561.3873723,-163.93,-0.14,-0.28,-0.029,-0.042,9.796,-0.01,0.0,-0.01
1775934561.3973732,-163.93,-0.15,-0.28,-0.031,-0.044,9.788,-0.01,0.0,0.0
1775934561.4065628,-163.93,-0.15,-0.28,-0.029,-0.049,9.793,0.0,0.0,0.0
1775934561.4173727,-163.93,-0.15,-0.28,-0.026,-0.05,9.788,-0.01,-0.01,0.0
1775934561.4273582,-163.93,-0.15,-0.28,-0.023,-0.055,9.793,0.0,0.0,-0.01
1775934561.437376,-163.93,-0.15,-0.28,-0.024,-0.049,9.792,0.0,-0.01,-0.01
1775934561.4465506,-163.93,-0.15,-0.28,-0.024,-0.043,9.792,0.0,0.0,0.0
1775934561.4565513,-163.93,-0.15,-0.28,-0.02,-0.041,9.792,0.0,0.0,0.0
1775934561.4665344,-163.93,-0.15,-0.28,-0.014,-0.042,9.791,-0.01,0.0,0.0
1775934561.4765663,-163.92,-0.14,-0.28,-0.016,-0.048,9.791,-0.01,0.0,-0.01
1775934561.486552,-163.92,-0.14,-0.28,-0.019,-0.053,9.793,0.0,0.0,-0.01
1775934561.4965582,-163.92,-0.15,-0.28,-0.026,-0.056,9.791,-0.01,0.0,0.0
1775934561.5065324,-163.92,-0.15,-0.28,-0.029,-0.055,9.794,0.0,0.0,0.0
1775934561.5165417,-163.93,-0.15,-0.28,-0.026,-0.049,9.791,0.0,-0.01,0.0
1775934561.5264974,-163.93,-0.15,-0.28,-0.026,-0.041,9.792,0.0,-0.01,0.0
1775934561.536499,-163.92,-0.14,-0.28,-0.018,-0.037,9.791,0.0,0.0,0.0
1775934561.5465145,-163.92,-0.14,-0.28,-0.018,-0.042,9.788,0.0,-0.01,-0.01
1775934561.5565012,-163.93,-0.14,-0.28,-0.022,-0.04,9.794,-0.01,0.0,0.0
1775934561.566514,-163.93,-0.14,-0.28,-0.024,-0.041,9.782,0.0,0.0,0.0
1775934561.576524,-163.93,-0.15,-0.28,-0.03,-0.043,9.786,-0.01,0.0,0.0
1775934561.5865119,-163.93,-0.15,-0.28,-0.022,-0.048,9.784,-0.01,-0.01,0.0
1775934561.5965242,-163.92,-0.15,-0.28,-0.029,-0.05,9.786,0.0,0.0,0.0
1775934561.6065123,-163.93,-0.15,-0.28,-0.034,-0.047,9.784,0.0,-0.01,0.0
1775934561.6165228,-163.93,-0.15,-0.28,-0.034,-0.047,9.791,0.0,-0.01,0.0
1775934561.626506,-163.93,-0.14,-0.27,-0.022,-0.035,9.793,-0.01,0.0,0.0
1775934561.6365206,-163.93,-0.14,-0.27,-0.017,-0.036,9.791,-0.01,-0.01,0.0
1775934561.646512,-163.93,-0.14,-0.27,-0.016,-0.038,9.793,0.0,0.0,0.0
1775934561.6565032,-163.93,-0.14,-0.27,-0.02,-0.038,9.798,-0.01,0.0,0.0
1775934561.666502,-163.93,-0.14,-0.27,-0.023,-0.046,9.797,0.0,0.0,0.0
1775934561.6765022,-163.93,-0.15,-0.28,-0.03,-0.047,9.8,-0.01,0.0,0.0
1775934561.686482,-163.93,-0.15,-0.28,-0.03,-0.049,9.798,-0.01,0.0,0.0
1775934561.6964917,-163.93,-0.15,-0.28,-0.036,-0.049,9.8,0.0,-0.01,0.0
1775934561.7065153,-163.93,-0.15,-0.28,-0.034,-0.048,9.796,-0.01,-0.01,0.0
1775934561.7164154,-163.93,-0.15,-0.28,-0.029,-0.048,9.792,-0.01,-0.01,-0.01
1775934561.7264752,-163.93,-0.15,-0.28,-0.023,-0.049,9.791,0.0,-0.01,0.0
1775934561.7364485,-163.93,-0.15,-0.28,-0.022,-0.041,9.786,-0.01,0.0,0.0
1775934561.7464569,-163.93,-0.15,-0.28,-0.02,-0.041,9.791,-0.01,0.0,0.0
1775934561.7564604,-163.93,-0.15,-0.28,-0.025,-0.042,9.794,0.0,0.0,-0.01
1775934561.766472,-163.93,-0.15,-0.28,-0.026,-0.04,9.79,-0.01,-0.01,0.0
1775934561.7764626,-163.93,-0.15,-0.28,-0.023,-0.04,9.794,0.0,0.0,0.0
1775934561.7864766,-163.93,-0.15,-0.28,-0.022,-0.037,9.794,-0.01,-0.01,0.0
1775934561.7964792,-163.93,-0.15,-0.28,-0.024,-0.041,9.792,-0.01,0.0,0.0
1775934561.8064609,-163.93,-0.15,-0.28,-0.019,-0.037,9.793,0.0,-0.01,0.0
1775934561.8165045,-163.93,-0.15,-0.28,-0.025,-0.04,9.791,-0.01,0.0,0.0
1775934561.8264928,-163.93,-0.15,-0.28,-0.03,-0.044,9.784,0.0,0.0,0.0
1775934561.8364813,-163.93,-0.15,-0.28,-0.028,-0.043,9.782,0.0,0.0,0.0
1775934561.8464727,-163.93,-0.15,-0.28,-0.025,-0.04,9.782,0.0,0.0,0.0
1775934561.856462,-163.93,-0.15,-0.28,-0.028,-0.042,9.79,0.0,0.0,0.0
1775934561.8664749,-163.93,-0.15,-0.28,-0.022,-0.043,9.791,-0.01,-0.01,0.0
1775934561.8764808,-163.93,-0.15,-0.28,-0.017,-0.044,9.794,-0.01,0.0,0.0
1775934561.886477,-163.93,-0.15,-0.28,-0.019,-0.048,9.796,0.0,-0.01,0.0
1775934561.896495,-163.93,-0.15,-0.28,-0.019,-0.048,9.797,-0.01,0.0,0.0
1775934561.906473,-163.93,-0.15,-0.28,-0.024,-0.042,9.8,-0.01,0.0,0.0
1775934561.9164853,-163.93,-0.15,-0.28,-0.032,-0.04,9.803,0.0,0.0,0.0
1775934561.9264727,-163.93,-0.15,-0.28,-0.036,-0.044,9.803,-0.01,0.0,0.0
1775934561.9364798,-163.93,-0.15,-0.28,-0.035,-0.046,9.791,0.0,-0.01,-0.01
1775934561.9464774,-163.93,-0.15,-0.28,-0.031,-0.047,9.796,0.0,-0.01,0.0
1775934561.9564984,-163.93,-0.15,-0.28,-0.024,-0.046,9.799,-0.01,0.0,0.0
1775934561.9664774,-163.93,-0.15,-0.28,-0.028,-0.046,9.802,0.0,0.0,0.0
1775934561.976483,-163.93,-0.15,-0.28,-0.023,-0.043,9.798,0.0,0.0,-0.01
1775934561.9864933,-163.93,-0.15,-0.28,-0.023,-0.048,9.802,-0.01,-0.01,0.0
1775934561.996486,-163.93,-0.15,-0.28,-0.025,-0.044,9.798,0.0,0.0,0.0
1775934562.0064478,-163.93,-0.15,-0.28,-0.026,-0.037,9.796,-0.01,-0.01,0.0
1775934562.0164516,-163.93,-0.15,-0.28,-0.03,-0.041,9.794,-0.01,0.0,0.0
1775934562.026481,-163.93,-0.15,-0.28,-0.029,-0.044,9.798,0.0,0.0,0.0
1775934562.0364516,-163.93,-0.15,-0.28,-0.031,-0.048,9.788,-0.01,0.0,0.0
1775934562.0464585,-163.93,-0.15,-0.28,-0.029,-0.053,9.791,-0.01,0.0,-0.01
1775934562.05645,-163.93,-0.15,-0.28,-0.03,-0.054,9.796,0.0,-0.01,0.0
1775934562.0664513,-163.93,-0.15,-0.28,-0.031,-0.047,9.794,0.0,-0.01,0.0
1775934562.0764508,-163.93,-0.15,-0.28,-0.026,-0.046,9.791,0.0,-0.01,0.0
1775934562.0864496,-163.93,-0.15,-0.27,-0.019,-0.041,9.794,0.0,0.0,0.0
1775934562.0964396,-163.93,-0.15,-0.27,-0.014,-0.04,9.798,-0.01,0.0,0.0
1775934562.1064334,-163.93,-0.15,-0.27,-0.017,-0.042,9.796,-0.01,0.0,0.0
1775934562.116562,-163.93,-0.15,-0.28,-0.022,-0.049,9.797,-0.01,0.0,0.0
1775934562.1264317,-163.93,-0.15,-0.28,-0.024,-0.059,9.797,-0.01,0.0,0.0
1775934562.1364338,-163.93,-0.15,-0.28,-0.028,-0.053,9.793,-0.01,0.0,0.0
1775934562.146462,-163.93,-0.15,-0.28,-0.024,-0.047,9.788,0.0,0.0,0.0
1775934562.1564157,-163.93,-0.15,-0.28,-0.032,-0.048,9.792,0.0,-0.01,-0.01
1775934562.166426,-163.93,-0.15,-0.28,-0.024,-0.048,9.794,0.0,-0.01,0.0
1775934562.1764336,-163.93,-0.15,-0.28,-0.014,-0.043,9.791,0.0,-0.01,0.0
1775934562.1864438,-163.93,-0.14,-0.27,-0.008,-0.043,9.791,-0.01,-0.01,0.0
1775934562.1964312,-163.93,-0.14,-0.27,-0.007,-0.042,9.793,0.0,0.0,0.0
1775934562.2064264,-163.93,-0.15,-0.27,-0.012,-0.041,9.791,-0.01,0.0,-0.01
1775934562.2169757,-163.93,-0.15,-0.27,-0.019,-0.043,9.786,0.0,0.0,0.0
1775934562.226399,-163.93,-0.15,-0.27,-0.024,-0.043,9.792,0.0,0.0,0.0
1775934562.2364726,-163.93,-0.15,-0.27,-0.031,-0.041,9.792,-0.01,0.0,0.0
1775934562.2463982,-163.93,-0.15,-0.27,-0.029,-0.04,9.797,0.0,-0.01,0.0
1775934562.256426,-163.93,-0.15,-0.27,-0.028,-0.046,9.79,-0.01,-0.01,0.0
1775934562.2664104,-163.93,-0.15,-0.27,-0.025,-0.047,9.792,0.0,-0.01,0.0
1775934562.2764246,-163.93,-0.15,-0.27,-0.028,-0.054,9.785,0.0,0.0,-0.01
1775934562.286416,-163.93,-0.15,-0.27,-0.026,-0.049,9.788,0.0,0.0,-0.01
1775934562.2964203,-163.93,-0.14,-0.27,-0.022,-0.048,9.786,-0.01,0.0,0.0
1775934562.3064196,-163.93,-0.14,-0.27,-0.023,-0.046,9.784,-0.01,0.0,0.0
1775934562.3164299,-163.93,-0.15,-0.27,-0.026,-0.042,9.782,-0.01,0.0,0.0
1775934562.326399,-163.93,-0.15,-0.27,-0.028,-0.042,9.78,0.0,0.0,0.0
1775934562.3364084,-163.93,-0.15,-0.27,-0.029,-0.047,9.781,-0.01,0.0,-0.01
1775934562.346433,-163.93,-0.15,-0.27,-0.034,-0.048,9.774,0.0,-0.01,-0.01
1775934562.356431,-163.93,-0.15,-0.27,-0.037,-0.042,9.782,0.0,-0.01,0.0
1775934562.366439,-163.93,-0.15,-0.27,-0.029,-0.044,9.784,-0.01,-0.01,0.0
1775934562.3764114,-163.93,-0.15,-0.27,-0.022,-0.042,9.79,0.0,0.0,0.0
1775934562.3864172,-163.93,-0.15,-0.27,-0.017,-0.049,9.792,-0.01,0.0,0.0
1775934562.3964076,-163.93,-0.14,-0.27,-0.017,-0.05,9.793,0.0,0.0,0.0
1775934562.406403,-163.93,-0.14,-0.27,-0.02,-0.042,9.796,-0.01,0.0,0.0
1775934562.4164083,-163.93,-0.15,-0.27,-0.03,-0.048,9.792,-0.01,0.0,0.0
1775934562.426381,-163.93,-0.14,-0.27,-0.036,-0.051,9.784,0.0,0.0,0.0
1775934562.4363964,-163.93,-0.15,-0.28,-0.037,-0.048,9.785,-0.01,0.0,0.0
1775934562.4455755,-163.93,-0.14,-0.27,-0.042,-0.049,9.782,0.0,-0.01,0.0
1775934562.4564078,-163.93,-0.14,-0.27,-0.031,-0.05,9.788,0.0,-0.01,0.0
1775934562.4664028,-163.93,-0.14,-0.27,-0.022,-0.047,9.796,0.0,-0.01,-0.01
1775934562.475545,-163.93,-0.15,-0.27,-0.022,-0.049,9.799,0.0,-0.01,-0.01
1775934562.486418,-163.93,-0.14,-0.27,-0.018,-0.048,9.798,0.0,0.0,0.0
1775934562.496425,-163.93,-0.14,-0.27,-0.028,-0.043,9.802,-0.01,0.0,0.0
1775934562.5064018,-163.93,-0.14,-0.27,-0.031,-0.051,9.802,0.0,0.0,0.0
1775934562.5163925,-163.93,-0.15,-0.28,-0.038,-0.049,9.803,-0.01,0.0,0.0
1775934562.5255682,-163.93,-0.15,-0.28,-0.038,-0.051,9.794,-0.01,-0.01,-0.01
1775934562.5355477,-163.93,-0.15,-0.28,-0.04,-0.05,9.79,0.0,-0.01,0.0
1775934562.5455332,-163.93,-0.15,-0.28,-0.035,-0.04,9.793,0.0,-0.01,0.0
1775934562.5555317,-163.93,-0.15,-0.27,-0.03,-0.043,9.787,0.0,-0.01,0.0
1775934562.5655375,-163.93,-0.15,-0.27,-0.026,-0.043,9.785,0.0,-0.01,0.0
1775934562.5755434,-163.93,-0.15,-0.27,-0.02,-0.043,9.785,0.0,0.0,-0.01
1775934562.585549,-163.93,-0.15,-0.27,-0.018,-0.042,9.791,-0.01,0.0,0.0
1775934562.5955317,-163.93,-0.15,-0.27,-0.018,-0.046,9.793,-0.01,0.0,0.0
1775934562.605517,-163.93,-0.15,-0.28,-0.025,-0.043,9.798,-0.01,0.0,0.0
1775934562.6155145,-163.93,-0.15,-0.28,-0.024,-0.05,9.796,-0.01,0.0,0.0
1775934562.6255293,-163.93,-0.15,-0.28,-0.028,-0.05,9.797,-0.01,-0.01,0.0
1775934562.6355498,-163.93,-0.15,-0.28,-0.028,-0.051,9.802,0.0,-0.01,0.0
1775934562.6455424,-163.93,-0.14,-0.27,-0.023,-0.047,9.8,0.0,-0.01,0.0
1775934562.655532,-163.93,-0.15,-0.27,-0.023,-0.044,9.799,0.0,-0.01,0.0
1775934562.6655214,-163.93,-0.15,-0.27,-0.014,-0.044,9.796,-0.01,0.0,0.0
1775934562.675533,-163.93,-0.14,-0.27,-0.025,-0.046,9.799,-0.01,0.0,0.0
1775934562.6855304,-163.93,-0.15,-0.28,-0.028,-0.047,9.799,-0.01,0.0,0.0
1775934562.6955106,-163.93,-0.15,-0.28,-0.03,-0.051,9.797,-0.01,0.0,-0.01
1775934562.705527,-163.93,-0.15,-0.28,-0.034,-0.054,9.79,-0.01,0.0,0.0
1775934562.7155159,-163.93,-0.15,-0.28,-0.037,-0.056,9.79,0.0,-0.01,0.0
1775934562.7255025,-163.93,-0.15,-0.28,-0.035,-0.047,9.793,0.0,-0.01,-0.01
1775934562.7355108,-163.93,-0.15,-0.28,-0.023,-0.043,9.792,-0.01,-0.01,-0.01
1775934562.745518,-163.93,-0.14,-0.27,-0.019,-0.04,9.79,0.0,-0.01,0.0
1775934562.7555122,-163.93,-0.14,-0.27,-0.022,-0.04,9.796,-0.01,0.0,0.0
1775934562.765527,-163.93,-0.14,-0.27,-0.017,-0.047,9.798,-0.01,0.0,0.0
1775934562.7755024,-163.93,-0.15,-0.28,-0.022,-0.049,9.796,-0.01,0.0,0.0
1775934562.7855325,-163.93,-0.15,-0.28,-0.031,-0.048,9.799,-0.01,0.0,0.0
1775934562.7955143,-163.93,-0.15,-0.28,-0.036,-0.054,9.791,-0.01,0.0,0.0
1775934562.8055263,-163.93,-0.15,-0.28,-0.036,-0.054,9.796,0.0,0.0,-0.01
1775934562.8155305,-163.93,-0.15,-0.28,-0.031,-0.05,9.79,0.0,-0.01,0.0
1775934562.8255048,-163.93,-0.15,-0.28,-0.022,-0.044,9.792,0.0,0.0,0.0
1775934562.8355114,-163.93,-0.14,-0.27,-0.013,-0.042,9.79,-0.01,-0.01,0.0
1775934562.8455312,-163.93,-0.14,-0.27,-0.013,-0.042,9.793,0.0,-0.01,0.0
1775934562.8555026,-163.93,-0.14,-0.27,-0.014,-0.051,9.796,0.0,0.0,0.0
1775934562.865508,-163.93,-0.14,-0.27,-0.018,-0.053,9.793,-0.01,0.0,0.0
1775934562.875505,-163.93,-0.14,-0.27,-0.019,-0.054,9.788,-0.01,0.0,0.0
1775934562.8855212,-163.93,-0.15,-0.28,-0.024,-0.056,9.781,-0.01,0.0,0.0
1775934562.8955112,-163.93,-0.15,-0.28,-0.026,-0.053,9.786,-0.01,0.0,0.0
1775934562.9055188,-163.93,-0.15,-0.28,-0.02,-0.055,9.791,0.0,-0.01,0.0
1775934562.9154897,-163.93,-0.14,-0.27,-0.024,-0.05,9.796,0.0,-0.01,0.0
1775934562.9254622,-163.93,-0.14,-0.27,-0.023,-0.048,9.796,0.0,-0.01,-0.01
1775934562.935479,-163.93,-0.14,-0.27,-0.018,-0.04,9.797,0.0,-0.01,-0.01
1775934562.9454641,-163.93,-0.14,-0.27,-0.011,-0.031,9.792,-0.01,0.0,0.0
1775934562.9555287,-163.93,-0.14,-0.27,-0.016,-0.028,9.792,0.0,0.0,0.0
1775934562.9655063,-163.93,-0.14,-0.27,-0.022,-0.028,9.796,-0.01,0.0,0.0
1775934562.9754615,-163.93,-0.14,-0.27,-0.03,-0.035,9.793,-0.01,0.0,-0.01
1775934562.9854612,-163.93,-0.14,-0.27,-0.029,-0.043,9.793,0.0,0.0,-0.01
1775934562.9954839,-163.93,-0.14,-0.27,-0.026,-0.048,9.786,0.0,-0.01,-0.01
1775934563.0054672,-163.93,-0.14,-0.27,-0.025,-0.048,9.79,0.0,0.0,0.0
1775934563.015489,-163.93,-0.14,-0.27,-0.022,-0.042,9.794,-0.01,-0.01,0.0
1775934563.0254927,-163.93,-0.14,-0.27,-0.013,-0.044,9.793,0.0,-0.01,-0.01
1775934563.0354927,-163.93,-0.14,-0.27,-0.011,-0.044,9.798,0.0,0.0,-0.01
1775934563.0455134,-163.93,-0.14,-0.27,-0.011,-0.044,9.793,-0.01,0.0,-0.01
1775934563.055503,-163.93,-0.14,-0.27,-0.016,-0.051,9.786,-0.01,0.0,0.0
1775934563.0655107,-163.93,-0.14,-0.27,-0.019,-0.05,9.784,0.0,0.0,0.0
1775934563.0754974,-163.93,-0.14,-0.27,-0.026,-0.046,9.786,-0.01,0.0,0.0
1775934563.085509,-163.93,-0.14,-0.27,-0.026,-0.044,9.784,0.0,-0.01,-0.01
1775934563.0954628,-163.93,-0.14,-0.27,-0.025,-0.043,9.785,0.0,-0.01,-0.01
1775934563.1054807,-163.93,-0.14,-0.27,-0.014,-0.04,9.788,-0.01,-0.01,-0.01
1775934563.1154673,-163.93,-0.14,-0.27,-0.019,-0.04,9.792,0.0,-0.01,0.0
1775934563.1254764,-163.93,-0.14,-0.27,-0.016,-0.032,9.796,-0.01,0.0,0.0
1775934563.1354783,-163.93,-0.15,-0.27,-0.017,-0.036,9.791,-0.01,0.0,0.0
1775934563.1454782,-163.93,-0.14,-0.27,-0.025,-0.043,9.794,-0.01,0.0,0.0
1775934563.155452,-163.93,-0.14,-0.27,-0.03,-0.047,9.79,-0.01,0.0,-0.01
1775934563.16548,-163.93,-0.14,-0.27,-0.037,-0.051,9.791,0.0,0.0,0.0
1775934563.1754694,-163.93,-0.14,-0.27,-0.036,-0.049,9.786,0.0,-0.01,0.0
1775934563.1854951,-163.93,-0.14,-0.27,-0.032,-0.04,9.79,0.0,-0.01,0.0
1775934563.1954699,-163.93,-0.15,-0.27,-0.026,-0.037,9.782,0.0,-0.01,0.0
1775934563.205476,-163.93,-0.14,-0.27,-0.026,-0.032,9.788,-0.01,-0.01,-0.01
1775934563.215497,-163.93,-0.15,-0.27,-0.023,-0.037,9.791,0.0,-0.01,-0.01
1775934563.2254703,-163.93,-0.15,-0.27,-0.026,-0.043,9.793,0.0,0.0,0.0
1775934563.2354362,-163.93,-0.15,-0.27,-0.022,-0.038,9.787,-0.01,0.0,0.0
1775934563.2454104,-163.93,-0.15,-0.27,-0.025,-0.04,9.792,0.0,0.0,0.0
1775934563.2554548,-163.93,-0.15,-0.27,-0.028,-0.043,9.796,0.0,0.0,0.0
1775934563.265426,-163.93,-0.15,-0.27,-0.03,-0.041,9.793,-0.01,0.0,0.0
1775934563.2754822,-163.93,-0.15,-0.27,-0.035,-0.05,9.79,0.0,0.0,0.0
1775934563.285427,-163.93,-0.15,-0.27,-0.026,-0.047,9.787,-0.01,-0.01,0.0
1775934563.2954676,-163.93,-0.15,-0.27,-0.024,-0.041,9.792,0.0,0.0,0.0
1775934563.3054776,-163.93,-0.15,-0.27,-0.014,-0.042,9.782,0.0,0.0,0.0
1775934563.3154688,-163.93,-0.15,-0.27,-0.018,-0.04,9.779,-0.01,0.0,-0.01
1775934563.3254857,-163.93,-0.15,-0.27,-0.02,-0.047,9.77,0.0,0.0,0.0
1775934563.3357992,-163.93,-0.15,-0.27,-0.025,-0.044,9.78,0.0,0.0,0.0
1775934563.3454533,-163.93,-0.15,-0.27,-0.03,-0.041,9.78,-0.01,0.0,0.0
1775934563.3554404,-163.93,-0.15,-0.27,-0.032,-0.049,9.78,-0.01,0.0,0.0
1775934563.365436,-163.93,-0.15,-0.27,-0.036,-0.048,9.787,0.0,0.0,0.0
1775934563.3754458,-163.93,-0.15,-0.27,-0.031,-0.046,9.784,-0.01,-0.01,-0.01
1775934563.3854365,-163.93,-0.15,-0.27,-0.029,-0.046,9.782,0.0,0.0,0.0
1775934563.3954473,-163.93,-0.15,-0.27,-0.022,-0.041,9.788,-0.01,0.0,0.0
1775934563.4054344,-163.93,-0.15,-0.27,-0.022,-0.04,9.794,0.0,0.0,0.0
1775934563.4154115,-163.93,-0.15,-0.27,-0.02,-0.04,9.798,0.0,0.0,0.0
1775934563.425436,-163.93,-0.15,-0.27,-0.022,-0.032,9.797,-0.01,0.0,-0.01
1775934563.4354272,-163.93,-0.15,-0.26,-0.025,-0.04,9.788,0.0,0.0,-0.01
1775934563.4454339,-163.93,-0.15,-0.27,-0.025,-0.042,9.784,0.0,-0.01,0.0
1775934563.4554641,-163.93,-0.15,-0.27,-0.028,-0.046,9.781,-0.01,-0.01,0.0
1775934563.4654348,-163.93,-0.15,-0.27,-0.023,-0.04,9.786,0.0,0.0,0.0
1775934563.4754226,-163.93,-0.15,-0.27,-0.025,-0.038,9.792,0.0,-0.01,0.0
1775934563.4854043,-163.93,-0.15,-0.26,-0.025,-0.038,9.792,-0.01,-0.01,-0.01
1775934563.4954,-163.93,-0.15,-0.26,-0.017,-0.037,9.793,0.0,0.0,-0.01
1775934563.5054219,-163.93,-0.15,-0.26,-0.022,-0.035,9.797,-0.01,0.0,-0.01
1775934563.5154293,-163.93,-0.15,-0.26,-0.017,-0.044,9.792,-0.01,0.0,0.0
1775934563.5254188,-163.93,-0.15,-0.26,-0.016,-0.043,9.788,0.0,0.0,0.0
1775934563.5354102,-163.93,-0.15,-0.26,-0.018,-0.043,9.779,-0.01,0.0,0.0
1775934563.5446262,-163.93,-0.15,-0.26,-0.02,-0.043,9.774,0.0,0.0,0.0
1775934563.555416,-163.93,-0.15,-0.26,-0.028,-0.042,9.775,-0.01,0.0,-0.01
1775934563.5654328,-163.93,-0.15,-0.26,-0.022,-0.056,9.774,0.0,-0.01,-0.01
1775934563.5745595,-163.93,-0.14,-0.26,-0.019,-0.049,9.78,0.0,-0.01,0.0
1775934563.5845478,-163.93,-0.14,-0.26,-0.018,-0.042,9.782,-0.01,-0.01,0.0
1775934563.5954187,-163.93,-0.14,-0.26,-0.018,-0.046,9.774,0.0,0.0,0.0
1775934563.6045458,-163.93,-0.14,-0.26,-0.017,-0.042,9.773,-0.01,0.0,-0.01
1775934563.6145792,-163.93,-0.14,-0.26,-0.019,-0.049,9.77,-0.01,-0.01,-0.01
1775934563.6245623,-163.93,-0.14,-0.26,-0.02,-0.048,9.778,0.0,0.0,-0.01
1775934563.6345768,-163.93,-0.14,-0.26,-0.024,-0.042,9.781,-0.01,0.0,0.0
1775934563.6445553,-163.93,-0.14,-0.26,-0.025,-0.044,9.784,0.0,-0.01,0.0
1775934563.6545687,-163.93,-0.14,-0.26,-0.024,-0.046,9.782,0.0,-0.01,0.0
1775934563.665394,-163.93,-0.14,-0.26,-0.025,-0.051,9.786,0.0,-0.01,-0.01
1775934563.6754012,-163.93,-0.14,-0.26,-0.019,-0.056,9.782,0.0,0.0,-0.01
1775934563.6845524,-163.93,-0.14,-0.26,-0.019,-0.046,9.787,-0.01,-0.01,0.0
1775934563.694546,-163.93,-0.14,-0.26,-0.016,-0.042,9.787,-0.01,0.0,0.0
1775934563.7045643,-163.93,-0.14,-0.26,-0.019,-0.044,9.781,0.0,-0.01,0.0
1775934563.7145689,-163.93,-0.14,-0.26,-0.023,-0.043,9.786,-0.01,0.0,0.0
1775934563.724569,-163.93,-0.14,-0.26,-0.025,-0.053,9.788,-0.01,0.0,-0.01
1775934563.7345462,-163.93,-0.14,-0.27,-0.03,-0.056,9.79,-0.01,0.0,-0.01
1775934563.744532,-163.93,-0.14,-0.27,-0.025,-0.056,9.792,-0.01,0.0,0.0
1775934563.754546,-163.93,-0.14,-0.27,-0.022,-0.049,9.794,0.0,-0.01,0.0
1775934563.764521,-163.93,-0.14,-0.27,-0.022,-0.042,9.791,-0.01,-0.01,0.0
1775934563.7745094,-163.93,-0.14,-0.26,-0.023,-0.044,9.792,0.0,0.0,-0.01
1775934563.7845356,-163.93,-0.14,-0.27,-0.029,-0.04,9.794,-0.01,-0.01,-0.01
1775934563.794538,-163.93,-0.14,-0.26,-0.025,-0.042,9.793,-0.01,-0.01,0.0
1775934563.8045156,-163.93,-0.14,-0.26,-0.024,-0.037,9.793,-0.01,0.0,0.0
1775934563.8145142,-163.93,-0.14,-0.26,-0.025,-0.038,9.796,0.0,0.0,0.0
1775934563.8245182,-163.93,-0.14,-0.26,-0.028,-0.049,9.797,0.0,0.0,-0.01
1775934563.8345184,-163.93,-0.15,-0.26,-0.032,-0.054,9.793,0.0,0.0,-0.01
1775934563.8445208,-163.93,-0.14,-0.26,-0.026,-0.05,9.79,-0.01,0.0,0.0
1775934563.8545165,-163.93,-0.14,-0.26,-0.025,-0.05,9.792,0.0,-0.01,0.0
1775934563.8645213,-163.93,-0.14,-0.26,-0.022,-0.044,9.788,0.0,-0.01,0.0
1775934563.8745131,-163.93,-0.14,-0.26,-0.025,-0.046,9.788,-0.01,0.0,-0.01
1775934563.8845358,-163.93,-0.14,-0.26,-0.025,-0.055,9.784,0.0,0.0,-0.01
1775934563.894496,-163.93,-0.14,-0.27,-0.035,-0.043,9.79,0.0,0.0,0.0
1775934563.9045029,-163.93,-0.15,-0.26,-0.031,-0.042,9.776,-0.01,0.0,0.0
1775934563.9145408,-163.93,-0.15,-0.26,-0.032,-0.041,9.772,0.0,0.0,0.0
1775934563.92452,-163.93,-0.15,-0.26,-0.031,-0.041,9.778,-0.01,0.0,-0.01
1775934563.9345257,-163.93,-0.15,-0.26,-0.026,-0.042,9.785,-0.01,-0.01,-0.01
1775934563.9444902,-163.93,-0.15,-0.26,-0.024,-0.041,9.788,-0.01,-0.01,-0.01
1775934563.9545012,-163.93,-0.14,-0.26,-0.023,-0.047,9.787,-0.01,0.0,0.0
1775934563.9645035,-163.93,-0.14,-0.26,-0.024,-0.043,9.782,0.0,-0.01,0.0
1775934563.9744987,-163.93,-0.14,-0.26,-0.018,-0.043,9.788,-0.01,0.0,0.0
1775934563.9845335,-163.93,-0.14,-0.26,-0.023,-0.047,9.785,0.0,0.0,0.0
1775934563.9945586,-163.93,-0.15,-0.26,-0.03,-0.043,9.788,-0.01,0.0,0.0
1775934564.0045526,-163.93,-0.15,-0.26,-0.026,-0.037,9.786,0.0,0.0,0.0
1775934564.0145235,-163.93,-0.15,-0.26,-0.03,-0.037,9.79,-0.01,0.0,0.0
1775934564.0245376,-163.93,-0.15,-0.26,-0.023,-0.043,9.785,-0.01,0.0,0.0
1775934564.0345263,-163.93,-0.15,-0.26,-0.019,-0.046,9.791,0.0,0.0,0.0
1775934564.044533,-163.93,-0.14,-0.26,-0.01,-0.048,9.794,-0.01,-0.01,0.0
1775934564.0545256,-163.93,-0.14,-0.26,-0.011,-0.048,9.797,0.0,-0.01,0.0
1775934564.0645206,-163.93,-0.14,-0.26,-0.008,-0.044,9.796,0.0,-0.01,0.0
1775934564.0745347,-163.93,-0.14,-0.26,-0.013,-0.046,9.794,0.0,-0.01,-0.01
1775934564.0845196,-163.93,-0.14,-0.26,-0.014,-0.049,9.796,0.0,0.0,0.0
1775934564.0945008,-163.93,-0.14,-0.26,-0.02,-0.041,9.799,0.0,0.0,0.0
1775934564.1044943,-163.93,-0.14,-0.26,-0.017,-0.042,9.786,0.0,0.0,0.0
1775934564.1144876,-163.93,-0.14,-0.26,-0.02,-0.046,9.786,-0.01,0.0,0.0
1775934564.124491,-163.93,-0.14,-0.26,-0.023,-0.048,9.784,-0.01,0.0,-0.01
1775934564.1344872,-163.93,-0.14,-0.26,-0.023,-0.049,9.779,0.0,-0.01,0.0
1775934564.1444926,-163.93,-0.14,-0.26,-0.016,-0.053,9.782,0.0,0.0,0.0
1775934564.154486,-163.93,-0.14,-0.26,-0.017,-0.051,9.788,-0.01,-0.01,0.0
1775934564.1644895,-163.93,-0.14,-0.26,-0.018,-0.048,9.778,0.0,0.0,0.0
1775934564.1744866,-163.93,-0.14,-0.26,-0.014,-0.046,9.778,-0.01,-0.01,0.0
1775934564.1844907,-163.93,-0.14,-0.26,-0.012,-0.04,9.779,0.0,0.0,0.0
1775934564.1944854,-163.93,-0.14,-0.26,-0.023,-0.041,9.786,-0.01,0.0,0.0
1775934564.2044902,-163.93,-0.14,-0.26,-0.023,-0.044,9.785,0.0,0.0,0.0
1775934564.2144856,-163.93,-0.14,-0.26,-0.034,-0.048,9.788,-0.01,0.0,0.0
1775934564.2245243,-163.93,-0.14,-0.26,-0.036,-0.05,9.786,0.0,0.0,-0.01
1775934564.234487,-163.93,-0.14,-0.26,-0.032,-0.049,9.782,-0.01,-0.01,-0.01
1775934564.244493,-163.93,-0.14,-0.26,-0.03,-0.054,9.781,0.0,-0.01,0.0
1775934564.2544868,-163.93,-0.14,-0.26,-0.025,-0.046,9.782,-0.01,-0.01,0.0
1775934564.2644372,-163.93,-0.14,-0.26,-0.022,-0.047,9.788,0.0,0.0,0.0
1775934564.2744768,-163.93,-0.14,-0.27,-0.018,-0.051,9.786,0.0,0.0,0.0
1775934564.284483,-163.93,-0.14,-0.27,-0.014,-0.053,9.786,-0.01,-0.01,-0.01
1775934564.2944899,-163.94,-0.14,-0.27,-0.012,-0.053,9.774,0.0,0.0,0.0
1775934564.3044848,-163.94,-0.14,-0.27,-0.012,-0.049,9.781,-0.01,0.0,0.0
1775934564.3144758,-163.93,-0.14,-0.27,-0.022,-0.04,9.787,-0.01,0.0,0.0
1775934564.324495,-163.93,-0.14,-0.27,-0.023,-0.044,9.788,0.0,0.0,-0.01
1775934564.3344858,-163.93,-0.14,-0.27,-0.018,-0.044,9.793,0.0,-0.01,-0.01
1775934564.3444915,-163.93,-0.14,-0.27,-0.023,-0.042,9.791,0.0,-0.01,0.0
1775934564.354485,-163.93,-0.14,-0.26,-0.018,-0.041,9.785,0.0,0.0,0.0
1775934564.364474,-163.94,-0.14,-0.26,-0.016,-0.041,9.782,0.0,0.0,0.0
1775934564.3744645,-163.93,-0.14,-0.26,-0.024,-0.044,9.782,0.0,0.0,0.0
1775934564.384473,-163.93,-0.14,-0.26,-0.024,-0.046,9.785,-0.01,-0.01,-0.01
1775934564.3944874,-163.93,-0.14,-0.27,-0.026,-0.046,9.788,-0.01,0.0,-0.01
1775934564.404423,-163.93,-0.14,-0.27,-0.023,-0.053,9.787,-0.01,-0.01,0.0
1775934564.4144845,-163.93,-0.14,-0.27,-0.026,-0.06,9.79,0.0,0.0,0.0
1775934564.4244566,-163.93,-0.14,-0.27,-0.02,-0.061,9.787,0.0,0.0,0.0
1775934564.4344664,-163.93,-0.14,-0.27,-0.026,-0.061,9.787,0.0,-0.01,-0.01
1775934564.444453,-163.93,-0.14,-0.27,-0.026,-0.06,9.786,0.0,0.0,0.0
1775934564.454451,-163.93,-0.14,-0.27,-0.028,-0.05,9.788,-0.01,0.0,0.0
1775934564.464451,-163.93,-0.14,-0.27,-0.031,-0.05,9.782,0.0,-0.01,0.0
1775934564.474474,-163.93,-0.14,-0.27,-0.032,-0.048,9.782,-0.01,0.0,0.0
1775934564.4844568,-163.93,-0.14,-0.27,-0.032,-0.05,9.79,-0.01,0.0,0.0
1775934564.4944344,-163.93,-0.14,-0.27,-0.031,-0.06,9.792,0.0,0.0,-0.01
1775934564.5044413,-163.93,-0.14,-0.27,-0.028,-0.053,9.792,-0.01,0.0,0.0
1775934564.5144212,-163.93,-0.14,-0.27,-0.032,-0.044,9.796,-0.01,0.0,0.0
1775934564.5244725,-163.93,-0.14,-0.27,-0.029,-0.047,9.796,0.0,-0.01,0.0
1775934564.5344384,-163.93,-0.14,-0.27,-0.024,-0.031,9.792,0.0,-0.01,0.0
1775934564.5444365,-163.93,-0.14,-0.26,-0.019,-0.026,9.792,0.0,-0.01,-0.01
1775934564.553612,-163.93,-0.14,-0.26,-0.013,-0.035,9.792,0.0,-0.01,-0.01
1775934564.5635936,-163.93,-0.14,-0.26,-0.012,-0.034,9.794,-0.01,0.0,0.0
1775934564.5744483,-163.93,-0.14,-0.26,-0.012,-0.042,9.798,-0.01,0.0,0.0
1775934564.5844283,-163.93,-0.14,-0.27,-0.02,-0.046,9.798,0.0,0.0,0.0
1775934564.594434,-163.93,-0.14,-0.27,-0.026,-0.051,9.798,-0.01,0.0,-0.01
1775934564.6044908,-163.93,-0.14,-0.27,-0.023,-0.055,9.797,0.0,0.0,0.0
1775934564.6239276,-163.93,-0.14,-0.27,-0.031,-0.047,9.798,0.0,-0.01,0.0
1775934564.6450684,-163.93,-0.14,-0.27,-0.031,-0.042,9.798,0.0,-0.01,0.0
1775934564.655123,-163.93,-0.14,-0.27,-0.023,-0.043,9.8,-0.01,-0.01,0.0
1775934564.6622365,-163.93,-0.14,-0.27,-0.013,-0.043,9.803,-0.01,-0.01,-0.01
1775934564.669813,-163.93,-0.14,-0.27,-0.013,-0.047,9.803,-0.01,0.0,0.0
1775934564.6760287,-163.93,-0.14,-0.27,-0.022,-0.054,9.797,0.0,0.0,0.0
1775934564.6830864,-163.93,-0.15,-0.27,-0.026,-0.053,9.786,-0.01,0.0,0.0
1775934564.6846411,-163.93,-0.15,-0.27,-0.038,-0.048,9.791,0.0,0.0,0.0
1775934564.6944473,-163.94,-0.15,-0.27,-0.046,-0.049,9.791,0.0,-0.01,0.0
1775934564.7041385,-163.93,-0.15,-0.27,-0.038,-0.038,9.794,-0.01,-0.01,0.0
1775934564.713946,-163.93,-0.15,-0.26,-0.034,-0.044,9.791,-0.01,-0.01,-0.01
1775934564.7235966,-163.93,-0.15,-0.27,-0.025,-0.044,9.787,0.0,-0.01,-0.01
1775934564.7335958,-163.93,-0.15,-0.26,-0.026,-0.044,9.792,-0.01,-0.01,0.0
1775934564.743565,-163.94,-0.15,-0.26,-0.023,-0.05,9.788,0.0,0.0,0.0
1775934564.7545495,-163.94,-0.15,-0.27,-0.025,-0.046,9.79,0.0,0.0,0.0
1775934564.7635193,-163.94,-0.15,-0.26,-0.024,-0.036,9.786,-0.01,0.0,0.0
1775934564.7735105,-163.94,-0.15,-0.26,-0.025,-0.046,9.787,0.0,0.0,0.0
1775934564.7840476,-163.94,-0.15,-0.26,-0.03,-0.038,9.786,-0.01,-0.01,0.0
1775934564.793531,-163.94,-0.15,-0.26,-0.028,-0.044,9.782,-0.01,-0.01,0.0
1775934564.8035045,-163.94,-0.15,-0.27,-0.025,-0.048,9.787,0.0,0.0,0.0
1775934564.814067,-163.94,-0.15,-0.26,-0.018,-0.042,9.793,-0.01,-0.01,-0.01
1775934564.8239372,-163.93,-0.15,-0.26,-0.018,-0.047,9.793,0.0,0.0,-0.01
1775934564.833782,-163.93,-0.15,-0.26,-0.017,-0.043,9.793,0.0,0.0,0.0
1775934564.8435133,-163.93,-0.15,-0.26,-0.022,-0.042,9.797,-0.01,0.0,0.0
1775934564.8541863,-163.93,-0.15,-0.26,-0.025,-0.049,9.793,-0.01,0.0,0.0
1775934564.8640275,-163.93,-0.15,-0.27,-0.025,-0.044,9.796,-0.01,0.0,0.0
1775934564.8734975,-163.93,-0.15,-0.27,-0.025,-0.049,9.794,-0.01,-0.01,0.0
1775934564.8839917,-163.93,-0.15,-0.27,-0.023,-0.06,9.792,0.0,-0.01,-0.01
1775934564.8954654,-163.93,-0.15,-0.27,-0.025,-0.054,9.792,0.0,0.0,0.0
1775934564.9048085,-163.93,-0.15,-0.27,-0.023,-0.046,9.792,0.0,-0.01,0.0
1775934564.9142578,-163.93,-0.14,-0.27,-0.022,-0.042,9.796,0.0,-0.01,0.0
1775934564.9243183,-163.93,-0.14,-0.27,-0.019,-0.043,9.794,-0.01,-0.01,0.0
1775934564.9335582,-163.94,-0.14,-0.27,-0.017,-0.053,9.796,0.0,0.0,0.0
1775934564.9437358,-163.94,-0.15,-0.27,-0.023,-0.057,9.798,0.0,0.0,0.0
1775934564.9542027,-163.94,-0.15,-0.27,-0.029,-0.056,9.797,-0.01,0.0,0.0
1775934564.9638455,-163.94,-0.15,-0.27,-0.032,-0.057,9.791,0.0,0.0,0.0
1775934564.9737267,-163.94,-0.15,-0.27,-0.036,-0.056,9.787,-0.01,0.0,0.0
1775934564.983511,-163.94,-0.15,-0.27,-0.035,-0.057,9.779,0.0,-0.01,0.0
1775934564.993547,-163.94,-0.15,-0.27,-0.031,-0.046,9.781,0.0,-0.01,0.0
1775934565.0035398,-163.94,-0.15,-0.27,-0.023,-0.04,9.784,-0.01,0.0,0.0
1775934565.0137267,-163.94,-0.15,-0.27,-0.02,-0.047,9.786,0.0,-0.01,-0.01
1775934565.0237818,-163.94,-0.15,-0.27,-0.02,-0.051,9.782,0.0,0.0,-0.01
1775934565.0336626,-163.94,-0.15,-0.27,-0.026,-0.05,9.782,-0.01,0.0,0.0
1775934565.0437071,-163.94,-0.15,-0.27,-0.026,-0.057,9.773,0.0,0.0,0.0
1775934565.053501,-163.94,-0.15,-0.27,-0.034,-0.049,9.781,0.0,0.0,0.0
1775934565.0634682,-163.94,-0.15,-0.27,-0.034,-0.04,9.788,-0.01,-0.01,0.0
1775934565.0735323,-163.94,-0.15,-0.27,-0.032,-0.04,9.785,0.0,-0.01,0.0
1775934565.0834918,-163.94,-0.15,-0.27,-0.034,-0.04,9.791,-0.01,0.0,-0.01
1775934565.0934954,-163.94,-0.15,-0.27,-0.035,-0.046,9.794,-0.01,-0.01,0.0
1775934565.1035018,-163.94,-0.15,-0.27,-0.023,-0.053,9.788,0.0,0.0,0.0
1775934565.1134884,-163.94,-0.15,-0.27,-0.02,-0.05,9.785,-0.01,0.0,0.0
1775934565.1234772,-163.94,-0.15,-0.27,-0.022,-0.05,9.782,0.0,0.0,0.0
1775934565.133641,-163.94,-0.15,-0.27,-0.025,-0.053,9.788,0.0,0.0,0.0
1775934565.1438234,-163.94,-0.15,-0.27,-0.026,-0.051,9.79,-0.01,0.0,-0.01
1775934565.1579742,-163.94,-0.15,-0.27,-0.025,-0.044,9.794,0.0,0.0,0.0
1775934565.206191,-163.94,-0.15,-0.27,-0.025,-0.049,9.797,-0.01,0.0,0.0
1775934565.6538835,-163.94,-0.15,-0.27,-0.025,-0.056,9.796,-0.01,-0.01,0.0
1775934566.333693,-163.94,-0.15,-0.27,-0.028,-0.055,9.797,-0.01,0.0,0.0
1775934566.3353612,-163.94,-0.15,-0.27,-0.029,-0.049,9.799,-0.01,0.0,0.0
1775934566.3364863,-163.94,-0.15,-0.27,-0.028,-0.042,9.799,0.0,-0.01,0.0
1775934566.3387043,-163.94,-0.15,-0.27,-0.028,-0.04,9.794,0.0,0.0,0.0
1775934566.3702328,-163.94,-0.15,-0.26,-0.022,-0.031,9.798,-0.01,0.0,-0.01
1775934566.3715875,-163.94,-0.15,-0.26,-0.02,-0.038,9.799,0.0,-0.01,0.0
1775934566.373038,-163.94,-0.15,-0.27,-0.011,-0.037,9.802,-0.01,-0.01,0.0
1775934566.3745112,-163.94,-0.15,-0.27,-0.011,-0.04,9.802,-0.01,0.0,0.0
1775934566.3759756,-163.94,-0.15,-0.27,-0.01,-0.046,9.797,-0.01,0.0,-0.01
1775934566.3775086,-163.94,-0.15,-0.27,-0.025,-0.047,9.797,-0.01,0.0,-0.01
1775934566.3789406,-163.94,-0.15,-0.27,-0.03,-0.051,9.798,0.0,0.0,0.0
1775934566.380421,-163.94,-0.15,-0.27,-0.038,-0.048,9.802,0.0,-0.01,0.0
1775934566.3820283,-163.94,-0.15,-0.27,-0.036,-0.048,9.793,0.0,-0.01,0.0
1775934566.3835247,-163.94,-0.15,-0.27,-0.036,-0.05,9.793,0.0,-0.01,-0.01
1775934566.3850582,-163.94,-0.15,-0.27,-0.029,-0.044,9.794,-0.01,-0.01,-0.01
1775934566.3907735,-163.94,-0.15,-0.27,-0.029,-0.041,9.791,0.0,-0.01,-0.01
1775934566.4179146,-163.94,-0.15,-0.27,-0.035,-0.04,9.794,0.0,0.0,0.0
1775934566.4238942,-163.94,-0.15,-0.26,-0.03,-0.034,9.794,-0.01,0.0,0.0
1775934566.4384215,-163.94,-0.15,-0.26,-0.032,-0.036,9.798,0.0,0.0,-0.01
1775934566.4408333,-163.94,-0.15,-0.27,-0.03,-0.037,9.798,-0.01,0.0,-0.01
1775934566.4437366,-163.94,-0.15,-0.26,-0.028,-0.041,9.802,-0.01,0.0,0.0
1775934566.4455452,-163.94,-0.15,-0.27,-0.028,-0.044,9.796,0.0,-0.01,0.0
1775934566.4487681,-163.94,-0.15,-0.27,-0.024,-0.046,9.797,-0.01,-0.01,0.0
1775934566.4506862,-163.94,-0.15,-0.27,-0.017,-0.051,9.796,0.0,-0.01,0.0
1775934566.4538293,-163.94,-0.15,-0.27,-0.022,-0.053,9.798,-0.01,0.0,0.0
1775934566.4569309,-163.94,-0.15,-0.27,-0.023,-0.054,9.793,-0.01,-0.01,0.0
1775934566.4598083,-163.94,-0.15,-0.27,-0.024,-0.051,9.794,0.0,0.0,0.0
1775934566.4623919,-163.94,-0.15,-0.27,-0.025,-0.046,9.785,-0.01,0.0,0.0
1775934566.465214,-163.94,-0.15,-0.27,-0.025,-0.048,9.784,-0.01,0.0,0.0
1775934566.4679852,-163.94,-0.15,-0.27,-0.022,-0.054,9.78,-0.01,0.0,-0.01
1775934566.4698362,-163.94,-0.15,-0.27,-0.02,-0.057,9.784,-0.01,0.0,-0.01
1775934566.4712791,-163.94,-0.15,-0.27,-0.028,-0.059,9.787,0.0,-0.01,0.0
1775934566.47296,-163.94,-0.15,-0.27,-0.026,-0.054,9.791,0.0,-0.01,0.0
1775934566.4744449,-163.94,-0.15,-0.27,-0.028,-0.043,9.796,-0.01,0.0,-0.01
1775934566.4758856,-163.94,-0.15,-0.27,-0.024,-0.044,9.799,0.0,0.0,-0.01
1775934566.4773715,-163.94,-0.15,-0.27,-0.023,-0.042,9.799,0.0,0.0,-0.01
1775934566.4788206,-163.94,-0.15,-0.27,-0.022,-0.037,9.802,-0.01,0.0,-0.01
1775934566.4804435,-163.94,-0.15,-0.27,-0.03,-0.046,9.803,-0.01,-0.01,0.0
1775934566.4818816,-163.94,-0.15,-0.27,-0.034,-0.056,9.805,0.0,0.0,0.0
1775934566.483313,-163.94,-0.15,-0.27,-0.036,-0.055,9.797,-0.01,0.0,0.0
1775934566.485472,-163.94,-0.15,-0.27,-0.032,-0.062,9.794,0.0,0.0,-0.01
1775934566.4879718,-163.94,-0.15,-0.27,-0.031,-0.053,9.79,0.0,-0.01,0.0
1775934566.4894335,-163.94,-0.15,-0.27,-0.03,-0.044,9.787,-0.01,0.0,0.0
1775934566.4914324,-163.94,-0.15,-0.27,-0.026,-0.046,9.792,0.0,-0.01,0.0
1775934566.494102,-163.94,-0.15,-0.27,-0.031,-0.041,9.794,-0.01,-0.01,0.0
1775934566.4955544,-163.94,-0.15,-0.27,-0.031,-0.047,9.79,-0.01,0.0,0.0
1775934566.497048,-163.94,-0.15,-0.27,-0.034,-0.049,9.793,-0.01,0.0,-0.01
1775934566.498514,-163.94,-0.15,-0.27,-0.034,-0.048,9.785,-0.01,0.0,-0.01
1775934566.500154,-163.94,-0.15,-0.27,-0.029,-0.043,9.787,-0.01,-0.01,0.0
1775934566.5016947,-163.94,-0.15,-0.27,-0.035,-0.043,9.785,-0.01,0.0,0.0
1775934566.5125384,-163.93,-0.15,-0.27,-0.018,-0.056,9.79,-0.01,0.0,-0.01
1775934566.5225182,-163.93,-0.15,-0.27,-0.018,-0.05,9.782,0.0,-0.01,-0.01
1775934566.5325437,-163.93,-0.15,-0.27,-0.018,-0.048,9.776,-0.01,-0.01,0.0
1775934566.542592,-163.93,-0.15,-0.27,-0.022,-0.044,9.781,0.0,-0.01,0.0
1775934566.5526817,-163.93,-0.15,-0.27,-0.026,-0.047,9.784,-0.01,-0.01,0.0
1775934566.56247,-163.93,-0.15,-0.27,-0.024,-0.048,9.78,-0.01,0.0,0.0
1775934566.57255,-163.93,-0.15,-0.27,-0.028,-0.054,9.781,-0.01,0.0,0.0
1775934566.5825438,-163.93,-0.15,-0.27,-0.029,-0.055,9.784,0.0,0.0,0.0
1775934566.592512,-163.93,-0.15,-0.27,-0.028,-0.054,9.787,0.0,-0.01,0.0
1775934566.6024885,-163.93,-0.15,-0.27,-0.026,-0.055,9.782,0.0,0.0,0.0
1775934566.6125298,-163.93,-0.15,-0.27,-0.026,-0.054,9.79,-0.01,0.0,-0.01
1775934566.6225338,-163.93,-0.15,-0.27,-0.025,-0.051,9.79,-0.01,0.0,-0.01
1775934566.6324658,-163.93,-0.15,-0.27,-0.023,-0.054,9.79,0.0,-0.01,-0.01
1775934566.6424901,-163.93,-0.14,-0.27,-0.025,-0.048,9.787,0.0,0.0,0.0
1775934566.651698,-163.93,-0.15,-0.27,-0.031,-0.047,9.791,-0.01,-0.01,0.0
1775934566.6616447,-163.93,-0.14,-0.27,-0.028,-0.05,9.796,-0.01,0.0,0.0
1775934566.6724656,-163.93,-0.14,-0.27,-0.025,-0.05,9.793,-0.01,-0.01,-0.01
1775934566.6824782,-163.93,-0.14,-0.27,-0.026,-0.049,9.791,-0.01,-0.01,0.0
1775934566.692501,-163.93,-0.14,-0.27,-0.025,-0.055,9.788,0.0,-0.01,0.0
1775934566.702464,-163.93,-0.14,-0.27,-0.03,-0.047,9.792,0.0,-0.01,0.0
1775934566.7124908,-163.93,-0.14,-0.27,-0.025,-0.043,9.79,-0.01,0.0,0.0
1775934566.7219088,-163.93,-0.14,-0.27,-0.025,-0.042,9.792,-0.01,-0.01,-0.01
1775934566.7325168,-163.93,-0.14,-0.27,-0.026,-0.044,9.792,0.0,0.0,0.0
1775934566.7416015,-163.93,-0.14,-0.27,-0.025,-0.048,9.794,0.0,-0.01,0.0
1775934566.7524917,-163.93,-0.14,-0.27,-0.028,-0.048,9.793,0.0,0.0,0.0
1775934566.7624984,-163.93,-0.14,-0.27,-0.032,-0.047,9.792,0.0,0.0,0.0
1775934566.7724776,-163.93,-0.15,-0.27,-0.029,-0.05,9.786,-0.01,0.0,0.0
1775934566.782482,-163.93,-0.14,-0.27,-0.03,-0.049,9.786,0.0,-0.01,-0.01
1775934566.791632,-163.93,-0.14,-0.27,-0.023,-0.046,9.786,-0.01,-0.01,0.0
1775934566.8016498,-163.93,-0.14,-0.27,-0.024,-0.046,9.785,-0.01,-0.01,0.0
1775934566.8116074,-163.93,-0.14,-0.27,-0.023,-0.053,9.791,0.0,0.0,0.0
1775934566.8216002,-163.93,-0.14,-0.27,-0.02,-0.049,9.788,-0.01,0.0,0.0
1775934566.831612,-163.93,-0.14,-0.27,-0.026,-0.049,9.787,-0.01,0.0,0.0
1775934566.8415966,-163.93,-0.14,-0.27,-0.02,-0.046,9.782,0.0,0.0,0.0
1775934566.851587,-163.93,-0.14,-0.27,-0.024,-0.046,9.785,-0.01,0.0,-0.01
1775934566.86158,-163.93,-0.14,-0.27,-0.026,-0.049,9.78,0.0,0.0,0.0
1775934566.8717349,-163.93,-0.14,-0.27,-0.023,-0.043,9.78,-0.01,-0.01,0.0
1775934566.8816469,-163.93,-0.14,-0.27,-0.023,-0.059,9.775,-0.01,0.0,0.0
1775934566.8915918,-163.93,-0.14,-0.27,-0.022,-0.066,9.779,0.0,0.0,0.0
1775934566.9016242,-163.93,-0.14,-0.27,-0.024,-0.054,9.779,-0.01,0.0,0.0
1775934566.9116197,-163.93,-0.14,-0.27,-0.024,-0.054,9.782,0.0,0.0,0.0
1775934566.9215655,-163.93,-0.14,-0.27,-0.023,-0.049,9.787,0.0,0.0,0.0
1775934566.9318626,-163.93,-0.14,-0.27,-0.02,-0.047,9.792,-0.01,0.0,0.0
1775934566.9415905,-163.93,-0.14,-0.27,-0.024,-0.054,9.791,0.0,0.0,-0.01
1775934566.9515758,-163.93,-0.14,-0.27,-0.02,-0.051,9.791,-0.01,0.0,-0.01
1775934566.9615893,-163.93,-0.14,-0.27,-0.022,-0.057,9.788,0.0,0.0,0.0
1775934566.9715817,-163.93,-0.14,-0.27,-0.026,-0.053,9.788,0.0,0.0,0.0
1775934566.9816017,-163.93,-0.14,-0.27,-0.028,-0.047,9.79,-0.01,0.0,0.0
1775934566.9915957,-163.93,-0.14,-0.27,-0.025,-0.047,9.791,0.0,0.0,0.0
1775934567.0016375,-163.93,-0.14,-0.27,-0.028,-0.041,9.786,0.0,-0.01,-0.01
1775934567.011556,-163.93,-0.14,-0.27,-0.019,-0.047,9.786,-0.01,-0.01,-0.01
1775934567.021569,-163.93,-0.14,-0.27,-0.022,-0.049,9.784,0.0,-0.01,0.0
1775934567.031552,-163.93,-0.14,-0.27,-0.023,-0.044,9.784,-0.01,0.0,0.0
1775934567.0415833,-163.93,-0.14,-0.27,-0.026,-0.047,9.79,0.0,0.0,0.0
1775934567.0515952,-163.93,-0.14,-0.27,-0.028,-0.042,9.793,0.0,0.0,0.0
1775934567.061571,-163.93,-0.14,-0.27,-0.034,-0.04,9.794,-0.01,0.0,-0.01
1775934567.0715802,-163.93,-0.14,-0.27,-0.034,-0.05,9.791,0.0,-0.01,0.0
1775934567.0815675,-163.93,-0.14,-0.27,-0.035,-0.042,9.794,0.0,-0.01,0.0
1775934567.091598,-163.93,-0.14,-0.27,-0.03,-0.04,9.793,-0.01,0.0,0.0
1775934567.102051,-163.93,-0.14,-0.27,-0.019,-0.05,9.791,0.0,0.0,0.0
1775934567.111568,-163.93,-0.14,-0.27,-0.019,-0.041,9.796,-0.01,-0.01,0.0
1775934567.1215549,-163.93,-0.14,-0.27,-0.022,-0.047,9.799,-0.01,-0.01,-0.01
1775934567.13158,-163.93,-0.14,-0.27,-0.024,-0.051,9.798,0.0,0.0,0.0
1775934567.1415448,-163.93,-0.14,-0.27,-0.028,-0.049,9.796,-0.01,0.0,0.0
1775934567.151576,-163.93,-0.14,-0.27,-0.025,-0.047,9.798,0.0,0.0,0.0
1775934567.161588,-163.93,-0.14,-0.27,-0.025,-0.036,9.8,0.0,-0.01,0.0
1775934567.1715522,-163.93,-0.14,-0.27,-0.029,-0.038,9.803,-0.01,-0.01,-0.01
1775934567.18154,-163.93,-0.14,-0.27,-0.023,-0.051,9.797,0.0,-0.01,-0.01
1775934567.1915395,-163.93,-0.14,-0.27,-0.022,-0.051,9.799,-0.01,-0.01,0.0
1775934567.2018402,-163.93,-0.14,-0.27,-0.013,-0.055,9.796,-0.01,-0.01,0.0
1775934567.2115502,-163.93,-0.14,-0.27,-0.008,-0.051,9.799,0.0,0.0,0.0
1775934567.2215397,-163.93,-0.14,-0.27,-0.016,-0.043,9.79,-0.01,0.0,-0.01
1775934567.231553,-163.93,-0.14,-0.27,-0.02,-0.054,9.791,0.0,0.0,-0.01
1775934567.2415845,-163.93,-0.14,-0.27,-0.026,-0.051,9.796,0.0,0.0,-0.01
1775934567.251514,-163.93,-0.14,-0.27,-0.029,-0.05,9.799,-0.01,-0.01,0.0
1775934567.2618084,-163.93,-0.14,-0.27,-0.022,-0.053,9.794,0.0,-0.01,0.0
1775934567.2718809,-163.93,-0.14,-0.27,-0.014,-0.053,9.796,-0.01,-0.01,-0.01
1775934567.2815998,-163.93,-0.14,-0.27,-0.011,-0.051,9.792,0.0,0.0,-0.01
1775934567.2915196,-163.93,-0.14,-0.27,-0.014,-0.051,9.797,0.0,0.0,-0.01
1775934567.3017,-163.93,-0.14,-0.27,-0.016,-0.047,9.797,-0.01,0.0,0.0
1775934567.3115401,-163.93,-0.14,-0.27,-0.02,-0.043,9.799,0.0,0.0,0.0
1775934567.3216715,-163.93,-0.14,-0.27,-0.028,-0.037,9.802,-0.01,0.0,0.0
1775934567.3315184,-163.93,-0.14,-0.27,-0.029,-0.041,9.793,0.0,0.0,-0.01
1775934567.3415658,-163.93,-0.14,-0.27,-0.03,-0.044,9.793,0.0,-0.01,-0.01
1775934567.3515975,-163.93,-0.14,-0.27,-0.029,-0.043,9.798,-0.01,-0.01,-0.01
1775934567.3615608,-163.93,-0.14,-0.27,-0.025,-0.046,9.796,0.0,-0.01,0.0
1775934567.3715875,-163.93,-0.14,-0.27,-0.024,-0.042,9.799,0.0,-0.01,0.0
1775934567.381567,-163.93,-0.14,-0.27,-0.025,-0.043,9.798,0.0,0.0,0.0
1775934567.3915315,-163.93,-0.14,-0.27,-0.026,-0.053,9.79,0.0,0.0,0.0
1775934567.4015357,-163.93,-0.14,-0.27,-0.025,-0.055,9.791,-0.01,0.0,0.0
1775934567.4115264,-163.93,-0.14,-0.27,-0.032,-0.056,9.784,-0.01,0.0,0.0
1775934567.4215415,-163.93,-0.14,-0.27,-0.031,-0.056,9.788,0.0,0.0,0.0
1775934567.431664,-163.93,-0.14,-0.27,-0.026,-0.053,9.792,-0.01,0.0,0.0
1775934567.4415312,-163.93,-0.14,-0.27,-0.018,-0.057,9.791,-0.01,-0.01,-0.01
1775934567.4515276,-163.93,-0.14,-0.27,-0.014,-0.056,9.794,0.0,0.0,0.0
1775934567.4615424,-163.93,-0.14,-0.27,-0.016,-0.047,9.796,-0.01,-0.01,0.0
1775934567.4714963,-163.93,-0.14,-0.27,-0.024,-0.043,9.797,-0.01,-0.01,0.0
1775934567.4815333,-163.93,-0.14,-0.27,-0.022,-0.038,9.79,-0.01,-0.01,0.0
1775934567.491532,-163.93,-0.14,-0.27,-0.024,-0.04,9.796,-0.01,0.0,-0.01
1775934567.5015352,-163.93,-0.14,-0.27,-0.026,-0.047,9.796,-0.01,0.0,0.0
1775934567.5115297,-163.93,-0.14,-0.27,-0.028,-0.051,9.788,0.0,-0.01,-0.01
1775934567.5215778,-163.93,-0.14,-0.27,-0.029,-0.057,9.788,0.0,0.0,0.0
1775934567.5315597,-163.93,-0.14,-0.27,-0.026,-0.055,9.782,0.0,-0.01,0.0
1775934567.5415049,-163.93,-0.14,-0.27,-0.024,-0.05,9.787,-0.01,0.0,0.0
1775934567.5515876,-163.93,-0.14,-0.27,-0.022,-0.048,9.787,0.0,-0.01,0.0
1775934567.561513,-163.93,-0.14,-0.27,-0.025,-0.048,9.793,0.0,0.0,-0.01
1775934567.5715163,-163.93,-0.14,-0.27,-0.024,-0.046,9.791,-0.01,0.0,0.0
1775934567.5814898,-163.93,-0.14,-0.27,-0.026,-0.054,9.792,0.0,0.0,0.0
1775934567.5914807,-163.93,-0.14,-0.28,-0.024,-0.054,9.793,-0.01,0.0,0.0
1775934567.60149,-163.93,-0.14,-0.27,-0.029,-0.054,9.797,-0.01,0.0,0.0
1775934567.6115437,-163.93,-0.14,-0.27,-0.025,-0.055,9.792,0.0,0.0,0.0
1775934567.621645,-163.93,-0.14,-0.27,-0.031,-0.053,9.796,0.0,-0.01,0.0
1775934567.6315405,-163.93,-0.14,-0.27,-0.029,-0.044,9.796,0.0,-0.01,0.0
1775934567.6415246,-163.93,-0.14,-0.27,-0.026,-0.036,9.797,0.0,0.0,0.0
1775934567.6515386,-163.93,-0.14,-0.27,-0.022,-0.043,9.793,-0.01,-0.01,0.0
1775934567.6615424,-163.93,-0.14,-0.27,-0.013,-0.046,9.797,0.0,-0.01,0.0
1775934567.6715093,-163.93,-0.14,-0.27,-0.013,-0.044,9.794,0.0,0.0,-0.01
1775934567.6815135,-163.93,-0.14,-0.27,-0.016,-0.048,9.794,-0.01,0.0,0.0
1775934567.6915338,-163.93,-0.14,-0.27,-0.023,-0.048,9.794,-0.01,0.0,-0.01
1775934567.7014985,-163.93,-0.14,-0.27,-0.029,-0.048,9.788,0.0,0.0,0.0
1775934567.7115207,-163.93,-0.14,-0.27,-0.032,-0.044,9.79,0.0,-0.01,0.0
1775934567.721566,-163.93,-0.14,-0.27,-0.028,-0.041,9.79,-0.01,-0.01,0.0
1775934567.7315056,-163.93,-0.14,-0.27,-0.022,-0.038,9.792,0.0,0.0,-0.01
1775934567.741472,-163.93,-0.14,-0.27,-0.011,-0.038,9.797,0.0,-0.01,-0.01
1775934567.7514784,-163.93,-0.14,-0.27,-0.017,-0.04,9.8,0.0,0.0,-0.01
1775934567.7614818,-163.93,-0.14,-0.27,-0.01,-0.046,9.791,-0.01,0.0,-0.01
1775934567.7714698,-163.93,-0.14,-0.27,-0.017,-0.048,9.79,0.0,0.0,0.0
1775934567.7814925,-163.93,-0.14,-0.27,-0.029,-0.046,9.788,-0.01,-0.01,0.0
1775934567.791539,-163.93,-0.14,-0.27,-0.029,-0.048,9.784,0.0,0.0,0.0
1775934567.801475,-163.93,-0.14,-0.27,-0.025,-0.05,9.784,-0.01,0.0,0.0
1775934567.8114889,-163.93,-0.14,-0.27,-0.017,-0.048,9.78,0.0,-0.01,-0.01
1775934567.8214996,-163.93,-0.14,-0.27,-0.013,-0.046,9.788,0.0,-0.01,-0.01
1775934567.8306699,-163.93,-0.14,-0.27,-0.014,-0.048,9.79,-0.01,-0.01,0.0
1775934567.8406425,-163.93,-0.14,-0.27,-0.014,-0.05,9.788,0.0,0.0,0.0
1775934567.8514786,-163.93,-0.14,-0.27,-0.017,-0.047,9.786,0.0,0.0,0.0
1775934567.861496,-163.93,-0.14,-0.27,-0.02,-0.053,9.785,-0.01,0.0,0.0
1775934567.871479,-163.93,-0.14,-0.27,-0.025,-0.05,9.79,0.0,0.0,-0.01
1775934567.881474,-163.93,-0.14,-0.27,-0.031,-0.049,9.782,-0.01,0.0,0.0
1775934567.891472,-163.93,-0.14,-0.27,-0.029,-0.047,9.779,0.0,0.0,-0.01
1775934567.9015045,-163.93,-0.14,-0.27,-0.023,-0.046,9.785,0.0,-0.01,0.0
1775934567.911474,-163.93,-0.14,-0.27,-0.019,-0.044,9.785,-0.01,0.0,-0.01
1775934567.9214728,-163.93,-0.14,-0.27,-0.018,-0.046,9.785,0.0,0.0,-0.01
1775934567.9306715,-163.93,-0.14,-0.27,-0.017,-0.042,9.787,0.0,0.0,0.0
1775934567.9414594,-163.93,-0.14,-0.27,-0.02,-0.043,9.79,-0.01,0.0,0.0
1775934567.9506762,-163.93,-0.14,-0.27,-0.029,-0.042,9.796,-0.01,0.0,0.0
1775934567.960681,-163.93,-0.14,-0.27,-0.028,-0.044,9.794,0.0,0.0,0.0
1775934567.9707484,-163.93,-0.14,-0.27,-0.03,-0.049,9.792,-0.01,0.0,-0.01
1775934567.981446,-163.93,-0.14,-0.27,-0.038,-0.047,9.791,0.0,-0.01,0.0
1775934567.9906664,-163.93,-0.15,-0.27,-0.038,-0.05,9.793,0.0,-0.01,0.0
1775934568.0006287,-163.93,-0.14,-0.27,-0.026,-0.049,9.797,0.0,-0.01,-0.01
1775934568.0106382,-163.93,-0.14,-0.27,-0.017,-0.046,9.792,-0.01,-0.01,0.0
1775934568.0206096,-163.93,-0.14,-0.27,-0.018,-0.046,9.79,0.0,0.0,0.0
1775934568.0306752,-163.93,-0.14,-0.27,-0.014,-0.046,9.791,0.0,0.0,0.0
1775934568.0406318,-163.93,-0.14,-0.27,-0.02,-0.043,9.794,-0.01,0.0,0.0
1775934568.050666,-163.93,-0.14,-0.27,-0.023,-0.046,9.787,0.0,0.0,0.0
1775934568.060892,-163.93,-0.14,-0.27,-0.031,-0.043,9.787,-0.01,0.0,0.0
1775934568.0706222,-163.93,-0.14,-0.27,-0.03,-0.046,9.787,-0.01,0.0,0.0
1775934568.080624,-163.93,-0.14,-0.27,-0.036,-0.049,9.788,0.0,-0.01,-0.01
1775934568.0906043,-163.93,-0.15,-0.27,-0.032,-0.044,9.788,0.0,-0.01,0.0
1775934568.100612,-163.93,-0.15,-0.27,-0.023,-0.044,9.781,0.0,-0.01,0.0
1775934568.1105983,-163.93,-0.14,-0.27,-0.017,-0.042,9.786,0.0,0.0,0.0
1775934568.1206248,-163.93,-0.14,-0.27,-0.017,-0.038,9.788,-0.01,-0.01,0.0
1775934568.1306055,-163.93,-0.14,-0.27,-0.014,-0.038,9.787,-0.01,0.0,0.0
1775934568.1406205,-163.93,-0.14,-0.27,-0.018,-0.042,9.788,-0.01,0.0,-0.01
1775934568.1506357,-163.93,-0.14,-0.27,-0.02,-0.051,9.786,-0.01,0.0,0.0
1775934568.161123,-163.93,-0.15,-0.27,-0.023,-0.051,9.791,0.0,0.0,0.0
1775934568.1705992,-163.93,-0.15,-0.27,-0.025,-0.046,9.788,-0.01,0.0,0.0
1775934568.1806273,-163.93,-0.15,-0.27,-0.024,-0.048,9.79,0.0,-0.01,-0.01
1775934568.190658,-163.93,-0.14,-0.27,-0.023,-0.05,9.786,0.0,-0.01,-0.01
1775934568.20059,-163.93,-0.14,-0.27,-0.016,-0.041,9.79,-0.01,-0.01,-0.01
1775934568.2105877,-163.93,-0.14,-0.27,-0.014,-0.038,9.793,-0.01,-0.01,0.0
1775934568.2206008,-163.93,-0.14,-0.27,-0.013,-0.037,9.798,-0.01,0.0,0.0
1775934568.2306361,-163.93,-0.14,-0.27,-0.017,-0.038,9.8,-0.01,-0.01,-0.01
1775934568.2408428,-163.93,-0.14,-0.27,-0.025,-0.043,9.797,0.0,0.0,-0.01
1775934568.2506073,-163.93,-0.14,-0.27,-0.026,-0.05,9.799,0.0,0.0,-0.01
1775934568.2612777,-163.93,-0.14,-0.27,-0.032,-0.05,9.797,-0.01,0.0,0.0
1775934568.2705991,-163.93,-0.15,-0.27,-0.032,-0.047,9.785,0.0,0.0,0.0
1775934568.2806087,-163.93,-0.15,-0.27,-0.031,-0.041,9.787,-0.01,-0.01,0.0
1775934568.290554,-163.93,-0.14,-0.27,-0.026,-0.037,9.784,-0.01,0.0,-0.01
1775934568.3005874,-163.93,-0.14,-0.27,-0.025,-0.04,9.784,0.0,-0.01,-0.01
1775934568.3105736,-163.93,-0.14,-0.27,-0.025,-0.047,9.784,-0.01,0.0,-0.01
1775934568.3206615,-163.93,-0.14,-0.27,-0.024,-0.049,9.774,0.0,0.0,0.0
1775934568.3305902,-163.93,-0.14,-0.27,-0.02,-0.043,9.782,-0.01,0.0,0.0
1775934568.3405788,-163.93,-0.14,-0.27,-0.03,-0.041,9.786,-0.01,0.0,0.0
1775934568.3506124,-163.93,-0.15,-0.27,-0.03,-0.038,9.785,0.0,0.0,0.0
1775934568.360547,-163.93,-0.15,-0.27,-0.03,-0.037,9.786,-0.01,0.0,-0.01
1775934568.3705597,-163.93,-0.15,-0.27,-0.025,-0.046,9.784,0.0,0.0,-0.01
1775934568.3805957,-163.93,-0.15,-0.27,-0.017,-0.049,9.787,0.0,0.0,0.0
1775934568.390565,-163.93,-0.14,-0.27,-0.02,-0.047,9.787,-0.01,-0.01,0.0
1775934568.4005597,-163.93,-0.14,-0.27,-0.017,-0.047,9.792,0.0,0.0,0.0
1775934568.4105794,-163.93,-0.14,-0.27,-0.014,-0.046,9.788,-0.01,-0.01,0.0
1775934568.4205463,-163.93,-0.14,-0.27,-0.017,-0.05,9.782,0.0,0.0,-0.01
1775934568.430539,-163.93,-0.14,-0.27,-0.028,-0.047,9.779,0.0,0.0,0.0
1775934568.4405725,-163.93,-0.14,-0.27,-0.026,-0.036,9.785,-0.01,0.0,0.0
1775934568.4505606,-163.93,-0.14,-0.27,-0.024,-0.037,9.791,-0.01,-0.01,0.0
1775934568.4605665,-163.93,-0.14,-0.27,-0.019,-0.042,9.796,0.0,-0.01,-0.01
1775934568.470713,-163.93,-0.14,-0.27,-0.018,-0.047,9.794,-0.01,0.0,-0.01
1775934568.480609,-163.93,-0.14,-0.27,-0.024,-0.055,9.794,0.0,0.0,0.0
1775934568.4905488,-163.93,-0.14,-0.27,-0.025,-0.054,9.797,0.0,0.0,0.0
1775934568.5005476,-163.93,-0.14,-0.27,-0.022,-0.044,9.794,-0.01,0.0,0.0
1775934568.5105953,-163.93,-0.14,-0.27,-0.031,-0.036,9.794,-0.01,0.0,0.0
1775934568.5205739,-163.93,-0.14,-0.27,-0.024,-0.042,9.791,-0.01,-0.01,-0.01
1775934568.5305417,-163.93,-0.14,-0.27,-0.03,-0.05,9.794,-0.01,0.0,-0.01
1775934568.5405457,-163.93,-0.14,-0.27,-0.029,-0.057,9.794,-0.01,-0.01,0.0
1775934568.5505857,-163.93,-0.14,-0.27,-0.025,-0.051,9.791,-0.01,0.0,0.0
1775934568.5605586,-163.93,-0.14,-0.27,-0.02,-0.054,9.78,-0.01,-0.01,0.0
1775934568.5708065,-163.93,-0.14,-0.27,-0.016,-0.042,9.782,0.0,-0.01,0.0
1775934568.5805397,-163.93,-0.14,-0.27,-0.025,-0.043,9.786,-0.01,0.0,0.0
1775934568.5905538,-163.93,-0.14,-0.27,-0.029,-0.043,9.786,0.0,0.0,-0.01
1775934568.6005168,-163.93,-0.14,-0.27,-0.032,-0.042,9.787,-0.01,-0.01,0.0
1775934568.6105268,-163.93,-0.14,-0.27,-0.029,-0.037,9.788,-0.01,-0.01,0.0
1775934568.6209984,-163.93,-0.14,-0.27,-0.026,-0.04,9.782,-0.01,-0.01,0.0
1775934568.6305578,-163.93,-0.14,-0.27,-0.023,-0.043,9.781,0.0,0.0,-0.01
1775934568.6405435,-163.93,-0.14,-0.27,-0.02,-0.046,9.786,-0.01,-0.01,0.0
1775934568.6505668,-163.93,-0.14,-0.27,-0.024,-0.053,9.787,0.0,0.0,0.0
1775934568.6605911,-163.93,-0.14,-0.27,-0.018,-0.048,9.793,-0.01,0.0,0.0
1775934568.6705365,-163.93,-0.14,-0.27,-0.022,-0.046,9.797,-0.01,0.0,0.0
1775934568.6805542,-163.93,-0.14,-0.27,-0.024,-0.043,9.796,0.0,-0.01,0.0
1775934568.6904867,-163.93,-0.14,-0.27,-0.031,-0.042,9.799,-0.01,-0.01,-0.01
1775934568.700523,-163.93,-0.14,-0.27,-0.025,-0.04,9.794,-0.01,0.0,-0.01
1775934568.710493,-163.93,-0.14,-0.27,-0.025,-0.041,9.799,0.0,-0.01,-0.01
1775934568.7204971,-163.93,-0.14,-0.27,-0.026,-0.047,9.796,0.0,0.0,-0.01
1775934568.7304866,-163.93,-0.14,-0.27,-0.023,-0.043,9.793,0.0,0.0,0.0
1775934568.7405424,-163.93,-0.14,-0.26,-0.031,-0.035,9.796,0.0,0.0,0.0
1775934568.750547,-163.93,-0.15,-0.26,-0.032,-0.032,9.796,0.0,-0.01,0.0
1775934568.7604837,-163.93,-0.15,-0.26,-0.034,-0.031,9.797,-0.01,0.0,-0.01
1775934568.7704964,-163.93,-0.15,-0.26,-0.034,-0.037,9.781,-0.01,0.0,-0.01
1775934568.780513,-163.93,-0.15,-0.26,-0.032,-0.044,9.787,0.0,-0.01,-0.01
1775934568.7904992,-163.93,-0.15,-0.26,-0.025,-0.041,9.788,0.0,-0.01,0.0
1775934568.8005135,-163.93,-0.15,-0.26,-0.022,-0.036,9.791,-0.01,0.0,0.0
1775934568.8104875,-163.93,-0.14,-0.26,-0.019,-0.037,9.78,0.0,0.0,0.0
1775934568.8204997,-163.93,-0.14,-0.26,-0.014,-0.036,9.779,-0.01,-0.01,0.0
1775934568.830529,-163.93,-0.15,-0.26,-0.02,-0.04,9.786,0.0,0.0,-0.01
1775934568.8404903,-163.93,-0.14,-0.26,-0.025,-0.046,9.792,0.0,0.0,0.0
1775934568.8504834,-163.93,-0.14,-0.26,-0.029,-0.041,9.793,-0.01,-0.01,0.0
1775934568.8604872,-163.93,-0.15,-0.26,-0.03,-0.048,9.784,0.0,0.0,0.0
1775934568.8704975,-163.93,-0.15,-0.26,-0.031,-0.054,9.781,-0.01,-0.01,-0.01
1775934568.8805084,-163.93,-0.15,-0.26,-0.025,-0.061,9.774,0.0,0.0,-0.01
1775934568.8904955,-163.93,-0.15,-0.26,-0.031,-0.06,9.784,0.0,0.0,0.0
1775934568.9004982,-163.93,-0.15,-0.26,-0.025,-0.057,9.785,-0.01,0.0,0.0
1775934568.910513,-163.93,-0.15,-0.26,-0.023,-0.049,9.781,-0.01,0.0,0.0
1775934568.920552,-163.93,-0.15,-0.26,-0.024,-0.053,9.785,0.0,0.0,0.0
1775934568.9304862,-163.93,-0.15,-0.27,-0.022,-0.051,9.784,0.0,-0.01,-0.01
1775934568.9396641,-163.93,-0.15,-0.27,-0.028,-0.056,9.78,-0.01,-0.01,-0.01
1775934568.9506342,-163.93,-0.15,-0.27,-0.023,-0.057,9.776,0.0,0.0,0.0
1775934568.959685,-163.93,-0.15,-0.27,-0.022,-0.046,9.784,-0.01,-0.01,0.0
1775934568.9696634,-163.93,-0.15,-0.27,-0.022,-0.048,9.79,-0.01,0.0,0.0
1775934568.9797037,-163.93,-0.15,-0.27,-0.018,-0.042,9.784,0.0,-0.01,-0.01
1775934568.9904912,-163.93,-0.15,-0.27,-0.019,-0.04,9.79,-0.01,0.0,-0.01
1775934568.9997165,-163.93,-0.15,-0.27,-0.028,-0.048,9.791,-0.01,0.0,0.0
1775934569.0096858,-163.93,-0.15,-0.27,-0.02,-0.047,9.79,0.0,0.0,0.0
1775934569.019629,-163.93,-0.15,-0.27,-0.025,-0.044,9.793,-0.01,0.0,0.0
1775934569.029636,-163.93,-0.15,-0.27,-0.036,-0.046,9.797,0.0,0.0,0.0
1775934569.0396473,-163.93,-0.15,-0.27,-0.03,-0.043,9.786,0.0,0.0,-0.01
1775934569.049627,-163.93,-0.15,-0.27,-0.028,-0.046,9.781,-0.01,-0.01,-0.01
1775934569.0596733,-163.93,-0.15,-0.27,-0.022,-0.047,9.778,0.0,0.0,0.0
1775934569.0696833,-163.93,-0.15,-0.27,-0.023,-0.038,9.782,-0.01,-0.01,0.0
1775934569.07962,-163.93,-0.15,-0.27,-0.023,-0.042,9.787,-0.01,0.0,-0.01
1775934569.0896144,-163.93,-0.15,-0.27,-0.022,-0.041,9.787,-0.01,0.0,-0.01
1775934569.0996785,-163.93,-0.15,-0.27,-0.029,-0.043,9.776,-0.01,0.0,-0.01
1775934569.1096563,-163.93,-0.15,-0.27,-0.03,-0.047,9.774,0.0,0.0,0.0
1775934569.1196308,-163.93,-0.15,-0.27,-0.029,-0.032,9.779,-0.01,-0.01,0.0
1775934569.1296327,-163.93,-0.15,-0.26,-0.026,-0.043,9.778,-0.01,0.0,0.0
1775934569.1401854,-163.93,-0.15,-0.26,-0.02,-0.051,9.776,0.0,0.0,0.0
1775934569.1496246,-163.93,-0.15,-0.26,-0.014,-0.043,9.786,-0.01,-0.01,0.0
1775934569.159616,-163.93,-0.15,-0.26,-0.011,-0.043,9.787,0.0,0.0,0.0
1775934569.1696274,-163.93,-0.15,-0.26,-0.014,-0.04,9.79,0.0,0.0,0.0
1775934569.1796405,-163.93,-0.15,-0.26,-0.022,-0.046,9.794,-0.01,0.0,0.0
1775934569.1895914,-163.93,-0.15,-0.27,-0.022,-0.046,9.798,0.0,0.0,0.0
1775934569.1996036,-163.93,-0.15,-0.27,-0.024,-0.042,9.796,-0.01,0.0,-0.01
1775934569.2096837,-163.93,-0.15,-0.26,-0.022,-0.053,9.786,0.0,0.0,0.0
1775934569.2196105,-163.93,-0.15,-0.27,-0.022,-0.046,9.792,0.0,-0.01,0.0
1775934569.2296004,-163.93,-0.15,-0.26,-0.025,-0.043,9.791,-0.01,0.0,0.0
1775934569.2395773,-163.93,-0.15,-0.26,-0.022,-0.046,9.786,0.0,-0.01,0.0
1775934569.2496235,-163.93,-0.15,-0.26,-0.022,-0.035,9.791,0.0,0.0,0.0
1775934569.2596333,-163.94,-0.15,-0.26,-0.019,-0.04,9.791,-0.01,-0.01,0.0
1775934569.2695844,-163.94,-0.15,-0.26,-0.025,-0.042,9.794,0.0,0.0,0.0
1775934569.2796211,-163.94,-0.15,-0.26,-0.02,-0.04,9.791,-0.01,-0.01,0.0
1775934569.289595,-163.94,-0.15,-0.26,-0.026,-0.04,9.794,-0.01,0.0,0.0
1775934569.2996497,-163.94,-0.15,-0.26,-0.028,-0.046,9.786,0.0,0.0,0.0
1775934569.309591,-163.94,-0.15,-0.26,-0.022,-0.041,9.792,-0.01,0.0,-0.01
1775934569.3196945,-163.94,-0.15,-0.26,-0.018,-0.037,9.793,0.0,0.0,0.0
1775934569.32988,-163.94,-0.15,-0.26,-0.023,-0.031,9.798,0.0,-0.01,0.0
1775934569.3396115,-163.94,-0.15,-0.26,-0.02,-0.034,9.787,-0.01,0.0,0.0
1775934569.3496222,-163.94,-0.15,-0.26,-0.024,-0.04,9.788,0.0,0.0,-0.01
1775934569.3596177,-163.94,-0.15,-0.26,-0.025,-0.04,9.79,0.0,0.0,0.0
1775934569.36962,-163.94,-0.15,-0.26,-0.029,-0.042,9.791,-0.01,-0.01,0.0
1775934569.3796153,-163.94,-0.15,-0.26,-0.023,-0.053,9.782,0.0,-0.01,0.0
1775934569.3896096,-163.94,-0.15,-0.26,-0.023,-0.055,9.784,0.0,0.0,0.0
1775934569.39961,-163.94,-0.15,-0.26,-0.025,-0.053,9.784,-0.01,-0.01,0.0
1775934569.4095938,-163.94,-0.15,-0.26,-0.024,-0.053,9.787,0.0,0.0,0.0
1775934569.4195988,-163.94,-0.15,-0.26,-0.026,-0.04,9.79,-0.01,0.0,0.0
1775934569.4298637,-163.94,-0.15,-0.26,-0.026,-0.04,9.781,0.0,-0.01,-0.01
1775934569.4396036,-163.94,-0.15,-0.26,-0.023,-0.04,9.779,0.0,0.0,-0.01
1775934569.449544,-163.94,-0.15,-0.26,-0.025,-0.035,9.781,-0.01,-0.01,0.0
1775934569.459615,-163.94,-0.15,-0.26,-0.023,-0.047,9.781,0.0,0.0,0.0
1775934569.469649,-163.94,-0.15,-0.26,-0.019,-0.041,9.781,0.0,-0.01,0.0
1775934569.4796047,-163.94,-0.15,-0.26,-0.019,-0.037,9.78,-0.01,0.0,0.0
1775934569.4895446,-163.94,-0.15,-0.26,-0.019,-0.043,9.773,0.0,0.0,-0.01
1775934569.4995565,-163.94,-0.15,-0.26,-0.023,-0.04,9.779,-0.01,0.0,-0.01
1775934569.509574,-163.94,-0.15,-0.26,-0.019,-0.038,9.78,-0.01,-0.01,0.0
1775934569.5195541,-163.94,-0.15,-0.26,-0.026,-0.038,9.787,0.0,0.0,0.0
1775934569.5295951,-163.94,-0.15,-0.26,-0.025,-0.032,9.792,-0.01,-0.01,0.0
1775934569.5395312,-163.94,-0.15,-0.26,-0.025,-0.042,9.797,0.0,-0.01,0.0
1775934569.5495536,-163.94,-0.15,-0.26,-0.025,-0.051,9.8,0.0,0.0,-0.01
1775934569.5594893,-163.94,-0.15,-0.26,-0.02,-0.051,9.796,-0.01,-0.01,0.0
1775934569.56953,-163.94,-0.15,-0.26,-0.025,-0.057,9.793,0.0,0.0,0.0
1775934569.5795393,-163.94,-0.15,-0.26,-0.024,-0.053,9.794,0.0,0.0,0.0
1775934569.5895233,-163.94,-0.15,-0.26,-0.022,-0.05,9.793,-0.01,0.0,0.0
1775934569.599545,-163.94,-0.15,-0.26,-0.025,-0.057,9.796,-0.01,0.0,-0.01
1775934569.6095603,-163.94,-0.15,-0.27,-0.025,-0.062,9.798,0.0,-0.01,-0.01
1775934569.6195421,-163.94,-0.15,-0.27,-0.018,-0.055,9.8,-0.01,-0.01,0.0
1775934569.6296499,-163.94,-0.15,-0.27,-0.016,-0.055,9.8,0.0,-0.01,0.0
1775934569.6395438,-163.94,-0.15,-0.27,-0.017,-0.053,9.794,0.0,-0.01,0.0
1775934569.6499045,-163.94,-0.15,-0.27,-0.014,-0.049,9.798,-0.01,-0.01,0.0
1775934569.659555,-163.94,-0.15,-0.27,-0.018,-0.047,9.793,-0.01,-0.01,-0.01
1775934569.6695685,-163.94,-0.15,-0.27,-0.012,-0.05,9.782,0.0,0.0,0.0
1775934569.6795309,-163.94,-0.15,-0.27,-0.013,-0.056,9.778,-0.01,0.0,0.0
1775934569.6895576,-163.94,-0.14,-0.27,-0.017,-0.054,9.786,-0.01,-0.01,0.0
1775934569.6995237,-163.94,-0.15,-0.27,-0.019,-0.055,9.791,0.0,-0.01,0.0
1775934569.7095256,-163.94,-0.15,-0.27,-0.023,-0.05,9.786,0.0,-0.01,0.0
1775934569.7195463,-163.94,-0.14,-0.27,-0.024,-0.043,9.79,0.0,-0.01,-0.01
1775934569.729642,-163.94,-0.14,-0.27,-0.022,-0.038,9.79,0.0,-0.01,0.0
1775934569.7395391,-163.94,-0.14,-0.27,-0.022,-0.035,9.787,-0.01,0.0,0.0
1775934569.7495177,-163.94,-0.14,-0.27,-0.023,-0.036,9.791,-0.01,0.0,0.0
1775934569.759616,-163.94,-0.14,-0.27,-0.028,-0.042,9.785,0.0,0.0,0.0
1775934569.769522,-163.94,-0.15,-0.27,-0.031,-0.048,9.787,0.0,-0.01,-0.01
1775934569.779524,-163.94,-0.15,-0.27,-0.032,-0.041,9.787,-0.01,0.0,0.0
1775934569.7895217,-163.94,-0.15,-0.27,-0.034,-0.038,9.788,-0.01,0.0,0.0
1775934569.7995453,-163.94,-0.15,-0.27,-0.032,-0.044,9.786,0.0,-0.01,0.0
1775934569.8095112,-163.94,-0.15,-0.27,-0.031,-0.049,9.788,0.0,0.0,0.0
1775934569.8195097,-163.94,-0.15,-0.27,-0.031,-0.049,9.793,-0.01,0.0,0.0
1775934569.8295696,-163.94,-0.15,-0.27,-0.025,-0.05,9.796,-0.01,0.0,0.0
1775934569.8395276,-163.94,-0.15,-0.27,-0.023,-0.048,9.786,0.0,0.0,0.0
1775934569.849501,-163.94,-0.15,-0.27,-0.029,-0.047,9.785,-0.01,0.0,0.0
1775934569.8599665,-163.94,-0.15,-0.27,-0.017,-0.046,9.774,0.0,0.0,0.0
1775934569.8709266,-163.95,-0.15,-0.27,-0.017,-0.041,9.779,-0.01,0.0,0.0
1775934569.8821816,-163.95,-0.15,-0.27,-0.017,-0.046,9.784,-0.01,0.0,0.0
1775934569.8895142,-163.95,-0.15,-0.27,-0.02,-0.048,9.791,0.0,0.0,0.0
1775934569.8995407,-163.95,-0.15,-0.27,-0.023,-0.047,9.778,-0.01,-0.01,0.0
1775934569.9095206,-163.95,-0.15,-0.27,-0.02,-0.05,9.774,0.0,-0.01,-0.01
1775934569.9194758,-163.95,-0.15,-0.27,-0.02,-0.046,9.778,-0.01,0.0,-0.01
1775934569.9295056,-163.95,-0.15,-0.27,-0.022,-0.051,9.776,-0.01,0.0,0.0
1775934569.9387095,-163.95,-0.15,-0.27,-0.02,-0.048,9.784,0.0,0.0,0.0
1775934569.94871,-163.95,-0.15,-0.27,-0.025,-0.041,9.791,-0.01,0.0,0.0
1775934569.958707,-163.95,-0.15,-0.27,-0.031,-0.049,9.792,-0.01,0.0,0.0
1775934569.9687018,-163.95,-0.15,-0.27,-0.026,-0.048,9.786,0.0,0.0,-0.01
1775934569.9794996,-163.95,-0.15,-0.27,-0.03,-0.044,9.791,-0.01,-0.01,0.0
1775934569.9895,-163.95,-0.15,-0.27,-0.026,-0.047,9.796,0.0,-0.01,0.0
1775934569.9994993,-163.95,-0.15,-0.27,-0.025,-0.043,9.797,0.0,-0.01,0.0
1775934570.009502,-163.95,-0.15,-0.27,-0.022,-0.04,9.796,0.0,-0.01,0.0
1775934570.0195277,-163.95,-0.15,-0.27,-0.022,-0.041,9.799,0.0,-0.01,-0.01
1775934570.0286627,-163.95,-0.15,-0.27,-0.024,-0.042,9.802,-0.01,0.0,-0.01
1775934570.038817,-163.95,-0.15,-0.27,-0.02,-0.041,9.798,-0.01,0.0,0.0
1775934570.0486612,-163.95,-0.15,-0.27,-0.024,-0.044,9.796,-0.01,0.0,0.0
1775934570.0586147,-163.95,-0.15,-0.27,-0.029,-0.044,9.791,-0.01,0.0,0.0
1775934570.0686893,-163.95,-0.15,-0.27,-0.028,-0.048,9.796,0.0,-0.01,-0.01
1775934570.078805,-163.95,-0.15,-0.27,-0.029,-0.044,9.792,-0.01,0.0,-0.01
1775934570.0895343,-163.95,-0.15,-0.27,-0.023,-0.043,9.785,0.0,-0.01,-0.01
1775934570.098773,-163.95,-0.15,-0.27,-0.023,-0.043,9.786,-0.01,-0.01,0.0
1775934570.1086488,-163.95,-0.15,-0.27,-0.031,-0.042,9.785,-0.01,-0.01,0.0
1775934570.118658,-163.95,-0.15,-0.27,-0.028,-0.043,9.782,0.0,0.0,0.0
1775934570.1286545,-163.95,-0.15,-0.27,-0.023,-0.047,9.784,-0.01,-0.01,-0.01
1775934570.1387916,-163.95,-0.15,-0.27,-0.024,-0.05,9.782,0.0,0.0,-0.01
1775934570.1486313,-163.95,-0.15,-0.27,-0.024,-0.051,9.787,-0.01,0.0,0.0
1775934570.1586883,-163.95,-0.15,-0.27,-0.022,-0.055,9.791,-0.01,0.0,0.0
1775934570.1692493,-163.95,-0.15,-0.27,-0.023,-0.054,9.793,0.0,0.0,0.0
1775934570.1788998,-163.95,-0.15,-0.27,-0.03,-0.042,9.796,0.0,-0.01,-0.01
1775934570.1886363,-163.95,-0.15,-0.27,-0.02,-0.035,9.797,0.0,-0.01,-0.01
1775934570.1986725,-163.95,-0.15,-0.27,-0.02,-0.035,9.794,0.0,-0.01,-0.01
1775934570.2087035,-163.95,-0.15,-0.27,-0.017,-0.037,9.796,-0.01,0.0,0.0
1775934570.2187533,-163.95,-0.14,-0.27,-0.02,-0.034,9.799,0.0,-0.01,0.0
1775934570.2286396,-163.95,-0.15,-0.27,-0.025,-0.041,9.802,-0.01,0.0,0.0
1775934570.238621,-163.95,-0.15,-0.27,-0.025,-0.046,9.796,0.0,0.0,-0.01
1775934570.2486212,-163.95,-0.15,-0.27,-0.028,-0.044,9.798,-0.01,0.0,-0.01
1775934570.2586248,-163.95,-0.15,-0.27,-0.03,-0.05,9.794,0.0,0.0,0.0
1775934570.2686164,-163.95,-0.15,-0.27,-0.037,-0.04,9.794,0.0,0.0,0.0
1775934570.278614,-163.95,-0.15,-0.27,-0.03,-0.036,9.794,-0.01,-0.01,0.0
1775934570.288676,-163.95,-0.15,-0.27,-0.029,-0.047,9.797,0.0,-0.01,-0.01
1775934570.2986588,-163.95,-0.15,-0.27,-0.031,-0.049,9.796,-0.01,0.0,-0.01
1775934570.308636,-163.95,-0.15,-0.27,-0.032,-0.05,9.797,-0.01,-0.01,-0.01
1775934570.318611,-163.95,-0.15,-0.27,-0.036,-0.048,9.792,0.0,-0.01,0.0
1775934570.3286128,-163.95,-0.15,-0.27,-0.026,-0.038,9.793,-0.01,0.0,0.0
1775934570.3390307,-163.95,-0.15,-0.27,-0.024,-0.04,9.788,0.0,0.0,0.0
1775934570.348608,-163.95,-0.15,-0.27,-0.02,-0.041,9.773,0.0,0.0,-0.01
1775934570.3586187,-163.95,-0.15,-0.27,-0.019,-0.043,9.773,-0.01,-0.01,-0.01
1775934570.3686042,-163.95,-0.15,-0.27,-0.023,-0.05,9.778,0.0,0.0,0.0
1775934570.3786697,-163.95,-0.15,-0.27,-0.028,-0.051,9.786,0.0,0.0,0.0
1775934570.3886623,-163.95,-0.15,-0.27,-0.026,-0.043,9.791,-0.01,0.0,0.0
1775934570.3987892,-163.95,-0.15,-0.27,-0.024,-0.042,9.79,0.0,-0.01,0.0
1775934570.4087079,-163.95,-0.15,-0.27,-0.024,-0.037,9.79,0.0,0.0,0.0
1775934570.418724,-163.95,-0.15,-0.26,-0.024,-0.035,9.792,0.0,0.0,-0.01
1775934570.428584,-163.95,-0.15,-0.27,-0.016,-0.043,9.797,-0.01,0.0,0.0
1775934570.438705,-163.95,-0.15,-0.27,-0.013,-0.046,9.798,-0.01,0.0,0.0
1775934570.4486513,-163.95,-0.15,-0.27,-0.012,-0.05,9.792,-0.01,0.0,0.0
1775934570.4586222,-163.95,-0.15,-0.27,-0.025,-0.05,9.792,0.0,0.0,0.0
1775934570.4686148,-163.95,-0.15,-0.27,-0.035,-0.047,9.792,-0.01,-0.01,0.0
1775934570.478572,-163.95,-0.15,-0.27,-0.028,-0.043,9.784,0.0,-0.01,0.0
1775934570.4886653,-163.95,-0.15,-0.27,-0.024,-0.037,9.79,0.0,-0.01,0.0
1775934570.4986181,-163.95,-0.15,-0.27,-0.019,-0.035,9.792,0.0,-0.01,0.0
1775934570.5087075,-163.95,-0.15,-0.27,-0.017,-0.031,9.797,-0.01,-0.01,-0.01
1775934570.5187368,-163.95,-0.15,-0.27,-0.014,-0.036,9.798,-0.01,0.0,0.0
1775934570.5287797,-163.95,-0.15,-0.27,-0.017,-0.041,9.792,-0.01,0.0,0.0
1775934570.5385509,-163.95,-0.15,-0.27,-0.017,-0.047,9.791,-0.01,0.0,0.0
1775934570.5485702,-163.95,-0.15,-0.27,-0.024,-0.044,9.785,-0.01,0.0,0.0
1775934570.5587175,-163.95,-0.15,-0.27,-0.031,-0.053,9.786,0.0,0.0,0.0
1775934570.5685778,-163.95,-0.15,-0.27,-0.031,-0.049,9.784,0.0,0.0,0.0
1775934570.5785787,-163.95,-0.15,-0.27,-0.03,-0.048,9.779,0.0,-0.01,0.0
1775934570.5885715,-163.95,-0.15,-0.27,-0.016,-0.044,9.781,0.0,-0.01,0.0
1775934570.598585,-163.95,-0.15,-0.27,-0.008,-0.042,9.785,-0.01,-0.01,0.0
1775934570.6085935,-163.95,-0.15,-0.27,-0.006,-0.048,9.791,0.0,-0.01,0.0
1775934570.6185615,-163.95,-0.15,-0.27,-0.012,-0.049,9.792,0.0,0.0,-0.01
1775934570.6285892,-163.95,-0.15,-0.27,-0.018,-0.047,9.785,-0.01,0.0,0.0
1775934570.638613,-163.95,-0.15,-0.27,-0.024,-0.05,9.787,-0.01,0.0,0.0
1775934570.648581,-163.95,-0.15,-0.27,-0.034,-0.053,9.786,0.0,0.0,0.0
1775934570.6585617,-163.95,-0.15,-0.27,-0.032,-0.051,9.781,0.0,-0.01,0.0
1775934570.668598,-163.95,-0.15,-0.27,-0.025,-0.054,9.785,0.0,-0.01,0.0
1775934570.6785853,-163.95,-0.15,-0.27,-0.018,-0.053,9.788,0.0,-0.01,0.0
1775934570.6886556,-163.95,-0.15,-0.27,-0.014,-0.042,9.793,-0.01,-0.01,0.0
1775934570.6987185,-163.95,-0.15,-0.27,-0.005,-0.042,9.778,0.0,-0.01,0.0
1775934570.7101526,-163.95,-0.15,-0.27,-0.006,-0.037,9.78,0.0,0.0,0.0
1775934570.7185712,-163.95,-0.15,-0.27,-0.012,-0.038,9.781,-0.01,0.0,-0.01
1775934570.7285972,-163.95,-0.15,-0.27,-0.02,-0.043,9.785,0.0,0.0,0.0
1775934570.738777,-163.95,-0.15,-0.27,-0.018,-0.042,9.775,-0.01,0.0,0.0
1775934570.7488022,-163.95,-0.15,-0.27,-0.03,-0.041,9.779,-0.01,0.0,0.0
1775934570.7585857,-163.95,-0.15,-0.27,-0.031,-0.04,9.785,0.0,-0.01,0.0
1775934570.7685847,-163.95,-0.15,-0.26,-0.025,-0.038,9.791,-0.01,-0.01,0.0
1775934570.7785864,-163.95,-0.15,-0.26,-0.017,-0.038,9.785,0.0,-0.01,0.0
1775934570.7886171,-163.95,-0.15,-0.26,-0.012,-0.036,9.784,0.0,-0.01,0.0
1775934570.7986946,-163.95,-0.15,-0.26,-0.01,-0.032,9.788,-0.01,0.0,0.0
1775934570.808637,-163.95,-0.15,-0.26,-0.017,-0.037,9.792,0.0,0.0,0.0
1775934570.818584,-163.95,-0.15,-0.26,-0.022,-0.043,9.793,-0.01,0.0,0.0
1775934570.8286083,-163.95,-0.15,-0.26,-0.035,-0.047,9.797,-0.01,0.0,-0.01
1775934570.8385768,-163.95,-0.15,-0.26,-0.036,-0.056,9.793,0.0,-0.01,0.0
1775934570.8485835,-163.95,-0.15,-0.27,-0.026,-0.049,9.788,-0.01,-0.01,0.0
1775934570.8585901,-163.95,-0.15,-0.26,-0.029,-0.042,9.792,0.0,-0.01,0.0
1775934570.8685656,-163.95,-0.15,-0.26,-0.018,-0.043,9.794,0.0,-0.01,0.0
1775934570.878573,-163.95,-0.15,-0.26,-0.016,-0.037,9.797,0.0,-0.01,-0.01
1775934570.8886514,-163.95,-0.15,-0.26,-0.016,-0.038,9.791,-0.01,0.0,-0.01
1775934570.8985183,-163.95,-0.15,-0.26,-0.014,-0.048,9.788,0.0,0.0,0.0
1775934570.908515,-163.95,-0.15,-0.26,-0.025,-0.046,9.79,-0.01,0.0,0.0
1775934570.918578,-163.95,-0.15,-0.26,-0.028,-0.048,9.786,-0.01,0.0,0.0
1775934570.9290822,-163.95,-0.15,-0.26,-0.026,-0.05,9.791,0.0,0.0,-0.01
1775934570.938535,-163.95,-0.15,-0.26,-0.024,-0.04,9.791,-0.01,-0.01,0.0
1775934570.9485743,-163.95,-0.15,-0.26,-0.025,-0.048,9.782,0.0,0.0,0.0
1775934570.958504,-163.95,-0.15,-0.26,-0.018,-0.038,9.784,0.0,0.0,-0.01
1775934570.968541,-163.95,-0.15,-0.26,-0.032,-0.01,9.766,-0.01,0.0,-0.01
1775934570.9785209,-163.94,-0.15,-0.25,-0.091,0.006,9.718,0.0,-0.01,-0.01
1775934570.9885492,-163.93,-0.15,-0.24,-0.515,0.099,9.729,0.0,-0.01,-0.01
1775934570.998556,-163.92,-0.35,-0.08,-0.004,0.314,9.394,0.01,0.0,-0.01
1775934571.0085206,-163.95,-0.25,-0.06,0.523,-0.55,9.476,0.07,0.08,-0.01
1775934571.0185237,-164.04,-0.42,-0.15,-0.101,-0.536,9.565,0.03,-0.02,0.03
1775934571.0276675,-164.1,-0.31,0.14,-0.041,-0.404,9.617,0.01,0.09,0.05
1775934571.0385034,-164.23,-0.44,0.18,0.641,-0.461,8.543,0.12,-0.01,0.03
1775934571.048539,-164.31,-0.29,0.14,0.416,-0.226,7.953,0.04,0.05,0.07
1775934571.0576806,-164.41,-0.32,0.15,0.224,0.202,8.063,-0.02,-0.03,0.05
1775934571.0676794,-164.41,-0.4,0.26,-0.069,0.481,8.526,-0.03,0.02,0.03
1775934571.0785089,-164.39,-0.51,0.3,0.068,0.334,8.868,0.02,0.04,-0.02
1775934571.0885162,-164.36,-0.57,0.28,-0.059,-0.012,9.117,0.02,0.05,-0.02
1775934571.0976784,-164.33,-0.6,0.2,-0.148,-0.298,9.301,-0.01,0.02,-0.02
1775934571.1085262,-164.29,-0.6,0.11,-0.189,-0.261,9.384,-0.03,-0.01,-0.02
1775934571.1176863,-164.25,-0.55,0.08,-0.096,-0.137,9.226,-0.03,-0.02,-0.02
1775934571.1276672,-164.19,-0.48,0.11,-0.15,-0.107,8.901,-0.02,-0.03,-0.03
1775934571.1385102,-164.17,-0.45,0.09,-0.116,-0.511,8.622,0.02,-0.04,-0.03
1775934571.147676,-164.18,-0.41,-0.02,-0.189,-0.404,8.918,0.0,-0.02,-0.01
1775934571.1576848,-164.25,-0.41,0.01,0.122,-0.213,9.154,-0.04,-0.02,0.01
1775934571.1676748,-164.35,-0.34,0.09,0.168,-0.279,9.327,0.02,0.0,0.04
1775934571.1776783,-164.44,-0.32,0.1,0.205,-0.31,9.454,0.04,-0.02,0.05
1775934571.187701,-164.47,-0.3,0.06,0.128,-0.078,9.549,0.0,-0.01,0.04
1775934571.197668,-164.43,-0.31,0.02,0.214,0.121,9.575,-0.03,-0.01,0.0
1775934571.2076836,-164.34,-0.28,0.01,0.237,0.226,9.506,-0.04,0.01,-0.03
1775934571.217662,-164.24,-0.26,0.03,0.268,0.122,9.327,-0.02,-0.01,-0.06
1775934571.2276804,-164.19,-0.26,0.01,0.164,-0.184,9.356,0.0,0.0,-0.05
1775934571.237987,-164.19,-0.29,-0.03,0.08,-0.412,9.476,0.01,0.0,-0.03
1775934571.2476745,-164.21,-0.33,-0.09,0.013,-0.584,9.565,0.0,0.02,0.0
1775934571.2576993,-164.26,-0.35,-0.15,0.049,-0.578,9.629,-0.02,0.02,0.02
1775934571.2676487,-164.35,-0.34,-0.13,0.032,-0.424,9.672,-0.01,0.0,0.03
1775934571.2776756,-164.42,-0.33,-0.1,-0.017,-0.287,9.664,0.02,-0.01,0.05
1775934571.2877011,-164.43,-0.32,-0.07,-0.01,-0.056,9.537,0.01,-0.02,0.03
1775934571.2976573,-164.39,-0.3,-0.04,0.004,0.054,9.495,0.0,-0.01,-0.01
1775934571.3076406,-164.33,-0.28,-0.03,0.023,0.074,9.568,0.0,-0.01,-0.03
1775934571.3176794,-164.28,-0.27,-0.02,0.011,-0.002,9.632,-0.01,-0.02,-0.04
1775934571.3276865,-164.25,-0.27,-0.03,0.038,-0.166,9.678,0.0,-0.01,-0.03
1775934571.3376799,-164.26,-0.27,-0.07,0.077,-0.226,9.695,0.0,0.0,-0.02
1775934571.3476412,-164.27,-0.27,-0.09,0.12,-0.18,9.644,-0.01,0.0,0.0
1775934571.3576305,-164.29,-0.25,-0.11,0.115,-0.146,9.666,-0.02,0.0,0.01
1775934571.3676543,-164.31,-0.25,-0.11,0.16,-0.132,9.658,-0.01,-0.01,0.01
1775934571.377677,-164.33,-0.23,-0.11,0.133,-0.15,9.7,-0.01,-0.01,0.01
1775934571.3877366,-164.35,-0.23,-0.12,0.119,-0.192,9.727,0.0,-0.01,0.01
1775934571.3976336,-164.36,-0.24,-0.14,0.062,-0.183,9.749,-0.01,0.0,0.01
1775934571.4076383,-164.36,-0.25,-0.14,0.041,-0.146,9.759,-0.01,0.0,0.0
1775934571.4176204,-164.35,-0.26,-0.14,-0.007,-0.104,9.745,-0.01,0.0,-0.01
1775934571.4276884,-164.33,-0.26,-0.14,-0.031,-0.084,9.681,0.0,0.0,-0.02
1775934571.437862,-164.29,-0.26,-0.14,-0.047,-0.107,9.641,0.0,0.0,-0.02
1775934571.4479403,-164.26,-0.25,-0.15,-0.011,-0.178,9.638,0.0,-0.01,-0.02
1775934571.4576373,-164.26,-0.22,-0.17,0.023,-0.226,9.683,-0.01,-0.01,-0.02
1775934571.4676304,-164.26,-0.19,-0.18,0.098,-0.128,9.717,0.0,-0.02,0.0
1775934571.4776723,-164.16,-0.19,-0.13,-0.02,0.248,9.741,-0.01,-0.02,-0.02
1775934571.4875953,-164.03,-0.19,-0.08,0.192,-0.079,9.512,0.02,0.01,-0.07
1775934571.4976153,-163.99,-0.18,-0.15,0.035,-0.412,9.584,0.01,0.0,-0.07
1775934571.5076194,-164.07,-0.19,-0.22,0.0,-0.553,9.645,-0.02,-0.01,-0.01
1775934571.5176344,-164.27,-0.24,-0.27,0.122,-0.89,9.519,-0.01,0.0,0.06
1775934571.5277576,-164.5,-0.19,-0.32,0.241,-0.663,9.377,0.0,0.02,0.11
1775934571.5375855,-164.69,-0.18,-0.36,0.099,-0.193,9.493,-0.02,-0.02,0.11
1775934571.54764,-164.79,-0.18,-0.31,0.005,0.219,9.575,-0.02,-0.02,0.09
1775934571.5576134,-164.77,-0.21,-0.26,0.006,0.396,9.614,-0.01,0.0,0.04
1775934571.5676367,-164.65,-0.19,-0.24,0.029,0.435,9.626,-0.01,0.01,-0.03
1775934571.5775962,-164.47,-0.2,-0.2,-0.068,0.338,9.662,-0.02,-0.01,-0.08
1775934571.5876155,-164.29,-0.21,-0.19,-0.048,0.077,9.629,0.01,0.0,-0.11
1775934571.597615,-164.16,-0.21,-0.2,-0.018,-0.151,9.581,0.02,0.0,-0.1
1775934571.6076312,-164.08,-0.2,-0.21,-0.005,-0.305,9.549,0.01,0.0,-0.07
1775934571.6176033,-164.07,-0.18,-0.24,0.068,-0.468,9.527,0.01,-0.01,-0.04
1775934571.627593,-164.13,-0.15,-0.27,0.067,-0.55,9.603,0.0,-0.02,0.0
1775934571.6376238,-164.25,-0.13,-0.31,0.092,-0.588,9.657,0.0,-0.02,0.04
1775934571.6475866,-164.4,-0.12,-0.33,0.115,-0.489,9.697,-0.01,-0.01,0.07
1775934571.6575942,-164.55,-0.13,-0.36,0.177,-0.307,9.688,-0.01,0.0,0.08
1775934571.6675923,-164.65,-0.13,-0.34,0.204,-0.026,9.706,-0.02,0.01,0.08
1775934571.6776197,-164.65,-0.13,-0.31,0.145,0.293,9.732,-0.02,0.01,0.04
1775934571.6875896,-164.57,-0.16,-0.25,0.084,0.393,9.753,-0.01,0.01,-0.02
1775934571.6976259,-164.43,-0.19,-0.22,0.032,0.272,9.744,0.0,0.01,-0.06
1775934571.7075849,-164.31,-0.19,-0.22,0.008,0.043,9.72,0.0,0.01,-0.08
1775934571.7175856,-164.22,-0.19,-0.25,-0.04,-0.202,9.729,0.0,-0.01,-0.07
1775934571.7275934,-164.2,-0.2,-0.28,-0.084,-0.347,9.713,0.0,-0.01,-0.04
1775934571.73763,-164.23,-0.21,-0.3,-0.077,-0.402,9.656,0.0,-0.01,-0.01
1775934571.7475855,-164.31,-0.19,-0.3,-0.026,-0.402,9.592,0.01,-0.01,0.02
1775934571.757584,-164.41,-0.17,-0.31,-0.01,-0.351,9.641,0.01,-0.01,0.05
1775934571.7675936,-164.5,-0.16,-0.3,0.02,-0.198,9.685,0.0,-0.01,0.05
1775934571.7775831,-164.54,-0.14,-0.3,0.038,0.018,9.72,-0.01,-0.01,0.04
1775934571.7875905,-164.53,-0.13,-0.29,0.091,0.172,9.743,-0.02,-0.01,0.01
1775934571.7975566,-164.45,-0.12,-0.28,0.06,0.186,9.76,-0.02,-0.01,-0.02
1775934571.8076208,-164.38,-0.12,-0.28,0.073,0.055,9.743,-0.01,-0.01,-0.05
1775934571.817589,-164.32,-0.13,-0.3,0.067,-0.054,9.681,-0.01,0.0,-0.05
1775934571.827587,-164.29,-0.14,-0.32,0.073,-0.17,9.614,-0.01,0.01,-0.03
1775934571.8376002,-164.29,-0.13,-0.33,0.05,-0.232,9.635,0.0,0.0,-0.02
1775934571.8475988,-164.33,-0.13,-0.34,0.055,-0.321,9.682,0.0,-0.01,0.0
1775934571.8575544,-164.38,-0.12,-0.35,0.029,-0.346,9.717,0.0,-0.01,0.02
1775934571.8675745,-164.44,-0.11,-0.35,0.034,-0.284,9.739,0.0,-0.01,0.03
1775934571.8775954,-164.48,-0.11,-0.35,0.023,-0.15,9.759,-0.01,-0.01,0.03
1775934571.8875654,-164.49,-0.11,-0.35,0.001,0.022,9.772,-0.01,-0.01,0.02
1775934571.8975577,-164.45,-0.11,-0.33,-0.002,0.114,9.767,-0.01,-0.01,-0.01
1775934571.9075902,-164.38,-0.12,-0.31,-0.016,0.078,9.754,-0.01,0.0,-0.03
1775934571.9175997,-164.32,-0.12,-0.32,-0.002,-0.028,9.725,0.0,0.0,-0.05
1775934571.927528,-164.29,-0.12,-0.34,0.02,-0.175,9.73,0.0,-0.01,-0.04
1775934571.9375594,-164.28,-0.1,-0.37,0.035,-0.278,9.745,-0.01,-0.01,-0.02
1775934571.9476063,-164.33,-0.09,-0.39,0.051,-0.322,9.763,-0.01,-0.01,0.01
1775934571.9575331,-164.39,-0.08,-0.39,0.081,-0.289,9.767,0.0,-0.01,0.02
1775934571.9675508,-164.45,-0.08,-0.39,0.086,-0.187,9.769,0.0,-0.01,0.03
1775934571.9775524,-164.5,-0.08,-0.37,0.074,-0.036,9.776,0.0,0.0,0.03
1775934571.9875357,-164.49,-0.09,-0.34,0.026,0.108,9.786,0.0,0.0,0.02
1775934571.9975414,-164.44,-0.1,-0.32,0.034,0.159,9.773,-0.01,0.0,-0.02
1775934572.0075438,-164.37,-0.11,-0.32,0.006,0.04,9.769,-0.01,0.0,-0.04
1775934572.0175612,-164.31,-0.11,-0.35,0.032,-0.102,9.775,-0.01,0.0,-0.05
1775934572.0275264,-164.3,-0.09,-0.39,0.006,-0.289,9.767,-0.01,-0.01,-0.03
1775934572.0375416,-164.32,-0.08,-0.43,-0.019,-0.303,9.744,-0.01,-0.01,-0.01
1775934572.0475085,-164.36,-0.1,-0.42,-0.053,-0.29,9.715,-0.02,-0.02,0.01
1775934572.0575297,-164.42,-0.09,-0.41,0.081,-0.235,9.561,0.01,0.0,0.02
1775934572.0675352,-164.45,-0.06,-0.4,0.086,-0.043,9.447,0.0,-0.01,0.02
1775934572.0775416,-164.45,-0.03,-0.37,-0.054,-0.024,9.543,-0.01,-0.02,0.01
1775934572.08671,-164.45,-0.01,-0.35,-0.146,-0.109,9.502,0.01,-0.02,0.0
1775934572.0975175,-164.43,0.04,-0.38,-0.222,-0.164,9.321,0.0,-0.02,-0.01
1775934572.1075575,-164.43,0.09,-0.38,-0.606,-0.187,9.339,-0.01,-0.05,-0.02
1775934572.1167092,-164.44,0.13,-0.42,-0.76,-0.316,9.442,0.0,-0.07,-0.01
1775934572.12753,-164.5,0.17,-0.51,-0.75,-0.218,9.541,-0.02,-0.06,0.01
1775934572.1375513,-164.57,0.26,-0.53,-0.481,0.006,9.587,-0.04,-0.05,0.03
1775934572.1467125,-164.62,0.35,-0.51,-0.078,0.283,9.646,-0.03,-0.05,0.04
1775934572.157514,-164.64,0.43,-0.5,0.263,0.357,9.69,-0.02,-0.04,0.02
1775934572.1675332,-164.61,0.51,-0.52,0.584,0.354,9.721,-0.02,-0.02,0.0
1775934572.1767015,-164.59,0.53,-0.54,0.689,0.101,9.745,-0.03,-0.01,-0.02
1775934572.1867402,-164.58,0.5,-0.59,0.698,-0.243,9.694,-0.02,0.02,-0.02
1775934572.197529,-164.6,0.45,-0.64,0.469,-0.432,9.697,-0.01,0.03,-0.01
1775934572.2075381,-164.63,0.37,-0.65,0.157,-0.521,9.63,0.0,0.03,0.01
1775934572.2167094,-164.66,0.28,-0.64,-0.158,-0.514,9.549,0.02,0.03,0.02
1775934572.226731,-164.66,0.22,-0.61,-0.42,-0.401,9.537,0.02,0.02,0.01
1775934572.2366993,-164.67,0.19,-0.55,-0.54,-0.266,9.579,0.02,0.0,0.0
1775934572.246718,-164.66,0.19,-0.51,-0.532,0.001,9.64,0.02,-0.02,-0.01
1775934572.2566905,-164.64,0.22,-0.46,-0.405,0.243,9.673,0.01,-0.02,-0.01
1775934572.2666793,-164.61,0.25,-0.42,-0.205,0.414,9.703,0.0,-0.02,-0.02
1775934572.2767012,-164.58,0.3,-0.41,-0.002,0.442,9.732,-0.02,-0.02,-0.02
1775934572.2867088,-164.57,0.31,-0.43,0.141,0.307,9.753,-0.02,-0.01,-0.02
1775934572.296702,-164.57,0.3,-0.47,0.176,0.132,9.767,-0.02,0.0,-0.01
1775934572.3066773,-164.59,0.28,-0.52,0.116,-0.073,9.742,-0.02,0.02,0.0
1775934572.3167357,-164.62,0.24,-0.57,-0.004,-0.263,9.679,-0.02,0.02,0.01
1775934572.3267136,-164.64,0.2,-0.58,-0.145,-0.377,9.63,-0.01,0.01,0.02
1775934572.3366835,-164.66,0.17,-0.58,-0.257,-0.49,9.633,0.01,0.0,0.01
1775934572.3466947,-164.66,0.16,-0.58,-0.311,-0.411,9.673,0.01,-0.01,0.0
1775934572.3567212,-164.66,0.17,-0.56,-0.255,-0.287,9.684,0.01,-0.02,0.0
1775934572.3666804,-164.66,0.19,-0.52,-0.144,-0.101,9.718,0.01,-0.02,-0.01
1775934572.3766668,-164.64,0.21,-0.49,-0.04,0.108,9.743,0.0,-0.02,-0.01
1775934572.386696,-164.63,0.22,-0.46,0.053,0.224,9.76,0.0,-0.01,-0.01
1775934572.3966465,-164.62,0.22,-0.44,0.078,0.245,9.773,-0.01,0.0,-0.02
1775934572.4066324,-164.61,0.2,-0.45,0.036,0.193,9.782,-0.02,0.01,-0.01
1775934572.4166784,-164.62,0.17,-0.47,-0.031,0.081,9.731,-0.02,0.01,-0.01
1775934572.4266713,-164.62,0.14,-0.5,-0.148,-0.024,9.7,-0.02,0.01,0.0
1775934572.4366932,-164.64,0.12,-0.51,-0.21,-0.126,9.665,-0.01,0.0,0.0
1775934572.4467635,-164.64,0.11,-0.52,-0.232,-0.226,9.671,-0.01,-0.01,0.0
1775934572.4566686,-164.64,0.11,-0.54,-0.208,-0.275,9.708,0.0,-0.01,0.0
1775934572.4666634,-164.64,0.13,-0.53,-0.138,-0.277,9.735,0.0,-0.02,-0.01
1775934572.476676,-164.65,0.14,-0.54,-0.09,-0.497,9.744,0.0,-0.01,-0.01
1775934572.4866774,-164.79,0.17,-0.56,0.006,-0.916,9.699,0.0,-0.01,0.01
1775934572.4966486,-165.16,0.14,-0.71,0.0,-1.672,9.554,0.02,-0.02,0.09
1775934572.5066547,-165.81,0.24,-0.84,0.23,-2.048,9.108,-0.01,0.02,0.24
1775934572.5166733,-166.67,0.16,-1.1,-0.764,-1.932,9.296,-0.02,-0.05,0.39
1775934572.526655,-167.66,0.09,-0.88,-1.205,-1.297,9.432,-0.05,-0.01,0.48
1775934572.5367627,-168.81,0.03,-0.93,-0.683,-2.117,8.648,0.11,-0.03,0.54
1775934572.546652,-169.96,0.18,-1.05,-0.348,-0.638,8.778,0.04,-0.04,0.65
1775934572.5567753,-170.82,0.31,-0.73,-0.359,0.823,9.05,-0.04,-0.09,0.6
1775934572.5666938,-171.33,0.3,-0.21,-0.028,0.933,9.038,0.07,-0.05,0.42
1775934572.5766668,-171.62,0.41,-0.19,0.51,0.926,8.945,0.15,0.01,0.22
1775934572.5869052,-171.68,0.43,-0.16,0.669,1.744,9.174,-0.01,-0.02,0.12
1775934572.5966835,-171.56,0.47,0.11,0.61,1.736,9.343,-0.03,0.02,0.0
1775934572.6068215,-171.4,0.41,0.17,0.586,0.932,9.221,0.05,0.02,-0.08
1775934572.616634,-171.33,0.35,0.03,0.35,0.495,9.253,0.01,0.03,-0.09
1775934572.626653,-171.38,0.27,-0.04,-0.005,0.368,9.399,-0.05,0.03,-0.02
1775934572.6366735,-171.51,0.21,-0.04,-0.195,0.195,9.409,-0.02,0.02,0.05
1775934572.6466568,-171.61,0.17,-0.06,-0.447,0.051,9.506,0.0,0.0,0.07
1775934572.6566155,-171.65,0.16,-0.11,-0.469,0.092,9.515,-0.02,-0.01,0.05
1775934572.6666377,-171.62,0.19,-0.08,-0.413,0.054,9.587,-0.02,-0.02,0.01
1775934572.676661,-171.57,0.23,-0.08,-0.284,-0.168,9.646,0.01,-0.03,-0.02
1775934572.6870651,-171.54,0.28,-0.12,-0.063,-0.289,9.685,0.01,-0.03,-0.03
1775934572.6966515,-171.55,0.32,-0.14,0.147,-0.274,9.719,-0.01,-0.02,-0.02
1775934572.7066457,-171.59,0.34,-0.15,0.286,-0.302,9.671,0.0,-0.01,0.01
1775934572.7166183,-171.63,0.34,-0.18,0.272,-0.214,9.697,0.0,0.0,0.02
1775934572.726645,-171.64,0.3,-0.16,0.157,-0.095,9.726,-0.02,0.02,0.02
1775934572.736641,-171.62,0.24,-0.17,-0.026,-0.211,9.727,0.0,0.02,0.0
1775934572.746602,-171.59,0.18,-0.2,-0.193,-0.267,9.679,0.0,0.02,-0.02
1775934572.756613,-171.56,0.14,-0.21,-0.315,-0.293,9.648,-0.01,0.01,-0.02
1775934572.7666228,-171.57,0.14,-0.21,-0.381,-0.315,9.629,0.0,-0.01,-0.01
1775934572.776618,-171.59,0.15,-0.21,-0.322,-0.229,9.651,0.0,-0.02,0.0
1775934572.786658,-171.6,0.18,-0.2,-0.198,-0.102,9.694,0.0,-0.02,0.01
1775934572.7967565,-171.6,0.22,-0.18,-0.026,-0.072,9.725,0.0,-0.02,0.0
1775934572.8065784,-171.6,0.25,-0.18,0.097,-0.043,9.748,0.0,-0.02,-0.01
1775934572.8165803,-171.59,0.25,-0.19,0.174,-0.083,9.763,-0.01,-0.01,-0.01
1775934572.8266022,-171.59,0.24,-0.21,0.148,-0.154,9.763,-0.01,0.01,0.0
1775934572.8366265,-171.59,0.21,-0.24,0.037,-0.216,9.764,-0.01,0.01,-0.01
1775934572.8466074,-171.59,0.17,-0.28,-0.102,-0.283,9.749,-0.02,0.01,-0.01
1775934572.8566024,-171.58,0.13,-0.3,-0.234,-0.352,9.684,-0.01,0.01,-0.01
1775934572.8666203,-171.58,0.11,-0.31,-0.283,-0.359,9.609,-0.01,0.0,-0.01
1775934572.8766146,-171.59,0.11,-0.31,-0.255,-0.313,9.621,0.0,-0.01,0.0
1775934572.88661,-171.6,0.13,-0.3,-0.171,-0.245,9.672,0.01,-0.02,0.0
1775934572.8966243,-171.61,0.16,-0.29,-0.047,-0.151,9.707,0.0,-0.02,0.0
1775934572.9066236,-171.61,0.18,-0.27,0.061,-0.066,9.735,0.0,-0.02,0.0
1775934572.9166222,-171.61,0.2,-0.27,0.123,0.005,9.755,0.0,-0.01,0.0
1775934572.9266145,-171.59,0.19,-0.27,0.105,-0.012,9.762,-0.01,0.0,-0.01
1775934572.9365788,-171.59,0.16,-0.29,0.04,-0.102,9.745,-0.01,0.01,-0.01
1775934572.946587,-171.59,0.14,-0.31,-0.054,-0.222,9.718,-0.01,0.01,-0.01
1775934572.95666,-171.59,0.11,-0.34,-0.139,-0.316,9.707,-0.01,0.0,-0.01
1775934572.966639,-171.59,0.1,-0.36,-0.198,-0.353,9.735,-0.01,0.0,0.0
1775934572.976635,-171.59,0.09,-0.38,-0.204,-0.32,9.742,0.0,-0.01,0.0
1775934572.9868212,-171.59,0.1,-0.38,-0.153,-0.206,9.685,0.0,-0.01,0.0
1775934572.9965825,-171.59,0.13,-0.38,-0.145,-0.104,9.605,-0.01,-0.02,-0.01
1775934573.006817,-171.59,0.13,-0.45,-0.267,-0.196,9.659,-0.02,-0.02,-0.01
1775934573.0171087,-171.63,0.01,-0.48,-0.228,-0.099,9.584,-0.05,0.0,0.0
1775934573.0267153,-171.72,0.1,-0.53,0.372,-0.659,9.362,-0.01,0.04,0.02
1775934573.0366352,-171.92,0.34,-0.7,-0.144,-0.607,9.46,-0.01,-0.05,0.06
1775934573.046572,-172.14,0.21,-0.77,-0.328,0.081,9.336,-0.07,-0.09,0.11
1775934573.056582,-172.41,0.22,-0.74,-0.116,0.433,9.054,-0.06,0.03,0.11
1775934573.0665715,-172.64,0.21,-0.76,0.129,0.481,8.98,-0.02,-0.02,0.15
1775934573.0766034,-172.78,0.27,-0.8,0.129,0.644,9.141,-0.05,0.01,0.11
1775934573.085795,-172.82,0.28,-0.75,0.046,0.805,9.319,-0.04,-0.02,0.06
1775934573.096561,-172.75,0.3,-0.7,-0.008,0.495,9.45,-0.01,-0.02,0.0
1775934573.1065614,-172.61,0.31,-0.74,-0.084,0.084,9.545,0.01,-0.02,-0.05
1775934573.1157298,-172.43,0.33,-0.83,-0.089,-0.184,9.544,-0.02,-0.02,-0.09
1775934573.126586,-172.28,0.32,-0.87,-0.148,-0.364,9.581,-0.03,-0.02,-0.11
1775934573.1365762,-172.2,0.3,-0.87,-0.077,-0.757,9.476,0.0,-0.01,-0.08
1775934573.146587,-172.21,0.34,-0.92,0.019,-0.817,9.363,0.03,0.01,-0.03
1775934573.1565576,-172.26,0.31,-0.91,-0.165,-0.762,9.465,0.0,-0.02,0.01
1775934573.1665566,-172.35,0.28,-0.89,-0.099,-0.592,9.519,0.02,0.01,0.03
1775934573.1765802,-172.43,0.23,-0.88,-0.183,-0.477,9.596,0.02,0.01,0.04
1775934573.1857111,-172.49,0.18,-0.86,-0.011,-0.121,9.623,-0.01,0.02,0.04
1775934573.1965806,-172.52,0.19,-0.8,-0.131,0.086,9.667,-0.01,0.02,0.03
1775934573.2065592,-172.53,0.14,-0.78,-0.16,0.326,9.556,0.0,-0.01,0.02
1775934573.2156906,-172.5,0.13,-0.73,-0.237,0.569,9.586,-0.02,0.01,-0.01
1775934573.2257028,-172.44,0.11,-0.66,-0.09,0.687,9.539,-0.01,0.0,-0.02
1775934573.235741,-172.37,0.17,-0.59,-0.117,0.522,9.556,0.01,0.0,-0.04
1775934573.246555,-172.33,0.19,-0.6,-0.123,0.321,9.61,0.02,-0.03,-0.04
1775934573.2557132,-172.31,0.22,-0.61,-0.145,0.184,9.664,-0.01,-0.03,-0.02
1775934573.2657068,-172.33,0.22,-0.64,-0.037,0.025,9.678,-0.02,-0.02,-0.01
1775934573.2757542,-172.38,0.24,-0.68,-0.049,-0.103,9.639,-0.02,-0.01,0.02
1775934573.286555,-172.44,0.23,-0.72,-0.068,-0.131,9.654,-0.02,-0.01,0.02
1775934573.2957225,-172.48,0.21,-0.74,-0.062,-0.187,9.696,-0.02,0.0,0.02
1775934573.3057208,-172.48,0.2,-0.77,-0.053,-0.269,9.723,-0.01,0.01,0.02
1775934573.3157206,-172.47,0.17,-0.79,-0.144,-0.293,9.745,-0.01,0.0,0.0
1775934573.3257349,-172.44,0.14,-0.8,-0.177,-0.304,9.712,-0.01,0.0,-0.02
1775934573.335751,-172.4,0.14,-0.8,-0.165,-0.308,9.688,0.0,0.0,-0.02
1775934573.3465526,-172.36,0.14,-0.79,-0.194,-0.285,9.695,0.0,-0.01,-0.03
1775934573.3557193,-172.35,0.14,-0.77,-0.225,-0.247,9.714,0.01,-0.02,-0.02
1775934573.3657396,-172.36,0.13,-0.74,-0.157,-0.172,9.739,0.01,-0.01,-0.01
1775934573.3757272,-172.38,0.15,-0.71,-0.073,-0.069,9.76,0.01,0.0,0.01
1775934573.3857064,-172.43,0.16,-0.68,-0.057,0.069,9.773,0.01,-0.01,0.02
1775934573.3956966,-172.45,0.15,-0.65,-0.019,0.195,9.763,0.0,-0.01,0.02
1775934573.405719,-172.46,0.15,-0.63,0.053,0.254,9.7,-0.01,0.0,0.01
1775934573.4156816,-172.46,0.16,-0.62,0.065,0.301,9.705,-0.01,0.0,0.0
1775934573.425681,-172.45,0.15,-0.61,-0.006,0.29,9.732,-0.02,-0.01,-0.01
1775934573.43568,-172.42,0.12,-0.62,-0.043,0.169,9.754,-0.01,0.0,-0.02
1775934573.4456837,-172.41,0.1,-0.65,-0.079,0.012,9.768,-0.02,0.01,-0.02
1775934573.4556248,-172.41,0.08,-0.68,-0.138,-0.096,9.78,-0.02,0.0,-0.01
1775934573.4656932,-172.41,0.06,-0.7,-0.192,-0.148,9.761,-0.02,0.0,0.0
1775934573.475664,-172.43,0.05,-0.71,-0.195,-0.213,9.659,-0.01,0.0,0.0
1775934573.4860613,-172.44,0.06,-0.71,-0.202,-0.224,9.627,0.0,-0.01,0.01
1775934573.496015,-172.43,0.07,-0.69,-0.194,-0.018,9.669,0.01,-0.02,0.0
1775934573.5056522,-172.29,0.07,-0.58,-0.062,0.392,9.651,0.01,-0.02,-0.02
1775934573.5156727,-172.1,0.12,-0.57,-0.131,-0.175,9.662,0.01,-0.01,-0.11
1775934573.5256495,-172.01,0.11,-0.69,-0.122,-0.633,9.701,0.0,-0.02,-0.11
1775934573.5356655,-172.1,0.13,-0.8,-0.241,-0.831,9.73,-0.02,-0.01,-0.02
1775934573.5456605,-172.32,0.06,-0.84,0.121,-0.68,9.596,-0.02,0.0,0.07
1775934573.5556786,-172.57,0.09,-0.79,0.066,-0.32,9.473,0.0,0.03,0.12
1775934573.5656564,-172.78,0.05,-0.72,0.114,0.152,9.403,0.01,-0.01,0.14
1775934573.5757735,-172.9,0.04,-0.64,0.188,0.437,9.469,0.01,0.01,0.1
1775934573.5856843,-172.91,0.08,-0.53,0.061,0.721,9.559,0.01,0.0,0.05
1775934573.5957065,-172.8,0.06,-0.42,-0.074,0.774,9.624,0.02,-0.02,-0.02
1775934573.6056457,-172.6,0.03,-0.41,-0.162,0.589,9.673,0.02,-0.01,-0.08
1775934573.6160824,-172.4,0.02,-0.46,-0.111,0.337,9.687,-0.02,0.0,-0.11
1775934573.625667,-172.24,0.04,-0.54,-0.184,0.071,9.688,-0.03,0.0,-0.11
1775934573.6356363,-172.16,0.03,-0.61,-0.176,-0.196,9.521,-0.03,-0.02,-0.08
1775934573.6456587,-172.17,0.04,-0.66,-0.188,-0.471,9.469,-0.02,-0.01,-0.04
1775934573.6556714,-172.27,0.04,-0.71,-0.066,-0.616,9.505,0.0,-0.02,0.02
1775934573.6657896,-172.41,0.06,-0.74,-0.047,-0.584,9.585,-0.01,-0.01,0.06
1775934573.6756442,-172.54,0.05,-0.73,-0.01,-0.411,9.645,0.0,-0.01,0.08
1775934573.6856394,-172.61,0.05,-0.7,-0.012,-0.158,9.689,0.0,0.0,0.06
1775934573.6956263,-172.62,0.04,-0.66,-0.01,0.03,9.714,0.0,0.0,0.02
1775934573.7056704,-172.55,0.02,-0.61,-0.055,0.116,9.67,0.01,0.01,-0.02
1775934573.7156641,-172.47,-0.0,-0.58,-0.071,0.152,9.593,0.01,0.0,-0.04
1775934573.7256634,-172.38,-0.0,-0.57,-0.093,0.122,9.581,0.0,0.0,-0.05
1775934573.73564,-172.32,-0.0,-0.55,-0.111,0.087,9.636,0.0,-0.01,-0.05
1775934573.745626,-172.3,0.0,-0.55,-0.127,-0.053,9.682,0.0,-0.01,-0.03
1775934573.7556427,-172.34,0.0,-0.57,-0.091,-0.133,9.714,0.0,-0.01,-0.01
1775934573.7656584,-172.41,0.0,-0.59,-0.069,-0.109,9.741,-0.01,-0.01,0.02
1775934573.7756238,-172.46,-0.01,-0.6,-0.055,-0.035,9.757,-0.02,0.0,0.03
1775934573.785628,-172.5,-0.02,-0.6,-0.065,0.056,9.756,-0.02,0.0,0.03
1775934573.7956324,-172.5,-0.04,-0.59,-0.046,0.068,9.717,-0.01,0.0,0.02
1775934573.8056495,-172.48,-0.04,-0.59,-0.068,0.077,9.718,-0.01,0.0,-0.01
1775934573.8156374,-172.43,-0.04,-0.58,-0.093,0.037,9.737,-0.01,-0.01,-0.02
1775934573.8256466,-172.39,-0.04,-0.57,-0.114,-0.066,9.745,0.0,-0.01,-0.03
1775934573.835628,-172.36,-0.03,-0.57,-0.139,-0.174,9.737,0.01,-0.01,-0.02
1775934573.8456438,-172.38,-0.03,-0.58,-0.162,-0.231,9.756,0.0,-0.01,-0.01
1775934573.855632,-172.41,-0.04,-0.6,-0.147,-0.222,9.77,0.0,-0.01,0.01
1775934573.8656456,-172.44,-0.04,-0.61,-0.111,-0.164,9.78,-0.01,0.0,0.02
1775934573.875616,-172.46,-0.05,-0.6,-0.059,-0.117,9.762,-0.01,0.0,0.02
1775934573.8856459,-172.47,-0.05,-0.6,-0.04,-0.037,9.751,-0.01,0.0,0.01
1775934573.8956592,-172.46,-0.05,-0.59,-0.038,0.031,9.745,-0.01,0.0,0.0
1775934573.9056263,-172.43,-0.05,-0.58,-0.046,0.067,9.744,-0.01,0.0,-0.02
1775934573.9156344,-172.41,-0.06,-0.56,-0.051,0.038,9.753,0.0,0.0,-0.02
1775934573.9256494,-172.39,-0.05,-0.56,-0.071,-0.023,9.767,0.0,-0.01,-0.02
1775934573.9356287,-172.39,-0.06,-0.56,-0.073,-0.065,9.779,0.0,-0.01,-0.01
1775934573.9455876,-172.41,-0.07,-0.57,-0.075,-0.077,9.787,-0.01,0.0,0.0
1775934573.955607,-172.43,-0.07,-0.57,-0.06,-0.054,9.759,-0.01,0.0,0.01
1775934573.9655595,-172.44,-0.07,-0.55,-0.06,-0.037,9.723,0.0,0.0,0.01
1775934573.9756052,-172.44,-0.07,-0.54,-0.062,-0.043,9.717,0.0,-0.01,0.0
1775934573.9856136,-172.43,-0.07,-0.54,-0.079,-0.065,9.739,0.0,-0.01,-0.01
1775934573.9955857,-172.42,-0.08,-0.55,-0.081,-0.087,9.749,-0.01,-0.01,-0.01
1775934574.0055983,-172.41,-0.08,-0.56,-0.113,-0.11,9.757,-0.01,0.0,-0.01
1775934574.0156167,-172.41,-0.07,-0.57,-0.108,-0.123,9.768,-0.01,-0.01,-0.01
1775934574.025594,-172.41,-0.1,-0.57,-0.132,-0.127,9.779,-0.01,-0.01,-0.01
1775934574.035708,-172.41,-0.09,-0.58,-0.054,-0.103,9.761,-0.01,0.01,0.0
1775934574.0456367,-172.43,-0.09,-0.57,-0.046,-0.134,9.727,-0.01,-0.01,0.0
1775934574.05561,-172.43,-0.08,-0.57,0.0,-0.096,9.651,0.0,0.0,0.0
1775934574.0656383,-172.43,-0.07,-0.57,-0.028,-0.034,9.671,0.0,-0.01,0.0
1775934574.0762198,-172.43,-0.08,-0.55,-0.029,0.062,9.707,-0.01,0.0,-0.01
1775934574.0855532,-172.43,-0.08,-0.52,-0.047,-0.137,9.726,0.0,0.0,-0.01
1775934574.0955572,-172.43,-0.1,-0.53,0.087,-0.038,9.742,0.01,0.0,-0.01
1775934574.1055732,-172.43,-0.08,-0.47,0.11,0.0,9.493,0.01,0.0,-0.01
1775934574.1155908,-172.42,-0.06,-0.33,0.004,-0.051,9.523,0.03,-0.01,0.0
1775934574.1256003,-172.46,-0.04,-0.18,0.126,-0.533,9.145,0.08,0.0,0.0
1775934574.1355557,-172.55,-0.02,-0.18,-0.017,-0.73,9.21,0.09,-0.02,0.02
1775934574.1455908,-172.65,-0.01,-0.22,-0.216,-0.377,9.369,0.02,-0.02,0.05
1775934574.1555731,-172.71,-0.05,-0.16,-0.292,-0.073,9.485,-0.02,-0.02,0.05
1775934574.165565,-172.72,-0.03,-0.13,-0.342,-0.011,9.572,0.01,-0.01,0.02
1775934574.1755733,-172.69,-0.02,-0.13,-0.329,0.074,9.584,0.0,-0.02,0.0
1775934574.184735,-172.64,0.01,-0.15,-0.182,0.014,9.535,-0.02,-0.02,-0.03
1775934574.1955788,-172.6,0.05,-0.18,-0.05,-0.137,9.563,-0.01,-0.02,-0.03
1775934574.2055852,-172.6,0.07,-0.21,0.113,-0.236,9.629,-0.02,-0.02,-0.02
1775934574.2155728,-172.62,0.07,-0.24,0.207,-0.279,9.677,-0.01,0.0,0.0
1775934574.224775,-172.66,0.07,-0.25,0.247,-0.263,9.712,-0.01,0.01,0.02
1775934574.2355587,-172.68,0.06,-0.25,0.108,-0.168,9.737,0.0,0.01,0.02
1775934574.2447367,-172.67,0.04,-0.23,-0.034,-0.086,9.727,0.0,0.0,0.0
1775934574.2547245,-172.64,-0.0,-0.22,-0.187,-0.139,9.706,0.0,0.0,-0.02
1775934574.2647626,-172.62,-0.03,-0.23,-0.25,-0.194,9.66,0.0,0.0,-0.02
1775934574.2755623,-172.62,-0.03,-0.24,-0.263,-0.234,9.69,0.0,-0.01,-0.02
1775934574.285558,-172.64,-0.03,-0.25,-0.24,-0.206,9.711,0.0,-0.01,0.0
1775934574.2955732,-172.65,-0.03,-0.26,-0.169,-0.139,9.737,-0.01,-0.01,0.01
1775934574.3047373,-172.64,-0.0,-0.27,-0.08,-0.15,9.748,-0.01,-0.01,0.0
1775934574.3147445,-172.63,0.0,-0.29,0.019,-0.232,9.764,-0.01,-0.01,-0.01
1775934574.3255665,-172.63,0.01,-0.31,0.067,-0.278,9.776,-0.01,-0.01,-0.01
1775934574.3347542,-172.64,0.01,-0.31,0.022,-0.266,9.763,0.0,0.0,0.0
1775934574.3455672,-172.65,-0.01,-0.32,-0.056,-0.189,9.73,0.0,0.01,0.01
1775934574.354737,-172.65,-0.04,-0.3,-0.144,-0.098,9.73,0.0,0.0,0.0
1775934574.3647428,-172.64,-0.05,-0.28,-0.206,-0.069,9.751,0.0,0.0,-0.01
1775934574.3755448,-172.63,-0.07,-0.28,-0.211,-0.084,9.735,0.0,-0.01,-0.01
1775934574.3847024,-172.62,-0.06,-0.3,-0.184,-0.131,9.702,-0.01,-0.01,-0.01
1775934574.3947258,-172.64,-0.05,-0.31,-0.111,-0.183,9.69,-0.01,-0.01,0.0
1775934574.4055483,-172.65,-0.04,-0.33,-0.063,-0.211,9.721,-0.01,-0.01,0.0
1775934574.4147103,-172.67,-0.03,-0.35,-0.019,-0.214,9.744,-0.01,-0.01,0.01
1775934574.4246955,-172.66,-0.05,-0.35,-0.016,-0.206,9.76,-0.01,0.0,0.0
1775934574.4346886,-172.64,-0.05,-0.35,-0.066,-0.186,9.773,-0.01,0.0,-0.01
1775934574.4446983,-172.63,-0.07,-0.35,-0.104,-0.192,9.742,0.0,0.0,-0.01
1775934574.454691,-172.63,-0.08,-0.36,-0.148,-0.186,9.724,0.0,0.0,-0.01
1775934574.4646533,-172.63,-0.08,-0.36,-0.157,-0.147,9.737,0.0,-0.01,-0.01
1775934574.474726,-172.64,-0.08,-0.36,-0.141,-0.126,9.756,0.0,-0.01,0.0
1775934574.484725,-172.64,-0.08,-0.36,-0.131,-0.222,9.77,0.0,-0.01,0.0
1775934574.494683,-172.71,-0.09,-0.39,-0.005,-0.872,9.72,-0.01,-0.01,0.0
1775934574.5046816,-173.01,-0.11,-0.53,0.019,-1.366,9.482,0.0,0.0,0.05
1775934574.514707,-173.63,-0.08,-0.63,0.426,-2.646,8.833,0.02,0.02,0.19
1775934574.52471,-174.63,-0.04,-0.93,1.386,-3.302,8.584,0.05,0.01,0.4
1775934574.5346801,-175.95,0.05,-1.18,0.782,-3.081,8.795,-0.04,0.02,0.59
1775934574.544711,-177.34,-0.05,-1.24,0.636,-1.711,9.045,-0.05,0.02,0.74
1775934574.5548105,-178.64,-0.12,-1.19,0.189,-0.405,9.248,-0.04,0.02,0.75
1775934574.564721,-179.67,-0.18,-0.99,-0.02,1.079,9.396,-0.04,0.01,0.69
1775934574.574834,179.6,-0.23,-0.82,-0.542,1.506,9.506,-0.02,-0.02,0.5
1775934574.5846672,179.13,-0.28,-0.8,-0.633,1.8,9.585,-0.02,-0.02,0.36
1775934574.594826,178.94,-0.29,-0.69,-0.673,2.237,9.536,-0.06,-0.02,0.21
1775934574.6050303,178.98,-0.24,-0.53,-0.659,2.267,9.432,-0.02,-0.03,0.06
1775934574.614693,179.17,-0.18,-0.41,-0.496,1.751,9.363,0.02,-0.05,-0.05
1775934574.6247232,179.35,-0.11,-0.38,-0.278,1.079,9.482,0.02,-0.04,-0.12
1775934574.634648,179.43,-0.06,-0.43,0.119,0.208,9.568,0.02,-0.03,-0.1
1775934574.644672,179.33,0.05,-0.53,0.48,-0.313,9.632,0.01,-0.02,-0.02
1775934574.654676,179.15,0.11,-0.6,0.61,-0.21,9.679,-0.01,-0.03,0.06
1775934574.6646836,178.97,0.14,-0.59,0.594,0.184,9.713,-0.02,0.0,0.11
1775934574.67468,178.9,0.08,-0.55,0.499,0.542,9.574,-0.02,0.01,0.09
1775934574.684656,178.94,0.01,-0.52,0.176,0.49,9.538,-0.02,0.03,0.02
1775934574.6946602,179.03,-0.06,-0.55,-0.121,0.14,9.57,-0.02,0.03,-0.04
1775934574.704698,179.08,-0.12,-0.6,-0.358,-0.377,9.606,-0.01,0.02,-0.06
1775934574.7147102,179.08,-0.15,-0.68,-0.513,-0.65,9.56,0.0,0.0,-0.03
1775934574.7246678,179.03,-0.15,-0.7,-0.447,-0.502,9.493,-0.01,-0.02,0.01
1775934574.7346833,178.99,-0.1,-0.66,-0.341,-0.2,9.545,0.0,-0.03,0.02
1775934574.7446475,178.99,-0.03,-0.58,-0.098,0.102,9.602,0.02,-0.03,0.02
1775934574.754811,179.03,0.02,-0.52,0.119,0.29,9.657,0.01,-0.03,-0.01
1775934574.7646668,179.06,0.06,-0.48,0.307,0.253,9.697,0.01,-0.01,-0.02
1775934574.7746556,179.08,0.07,-0.5,0.364,0.151,9.726,0.0,0.0,-0.02
1775934574.7846894,179.06,0.04,-0.53,0.296,0.029,9.747,-0.02,0.01,-0.01
1775934574.7946408,179.01,-0.0,-0.57,0.132,-0.062,9.683,-0.02,0.02,0.02
1775934574.8046367,178.99,-0.06,-0.6,-0.098,-0.11,9.627,-0.02,0.02,0.02
1775934574.8146663,178.99,-0.1,-0.61,-0.262,-0.196,9.559,-0.02,0.01,0.01
1775934574.8246946,179.0,-0.12,-0.62,-0.376,-0.31,9.624,0.0,-0.01,-0.01
1775934574.8346367,179.01,-0.1,-0.63,-0.341,-0.317,9.647,0.0,-0.02,-0.02
1775934574.8447328,179.01,-0.08,-0.61,-0.238,-0.243,9.652,0.01,-0.02,-0.01
1775934574.8546352,179.01,-0.05,-0.59,-0.073,-0.083,9.672,0.01,-0.02,0.0
1775934574.864642,179.03,-0.02,-0.55,0.067,0.077,9.708,0.0,-0.02,-0.01
1775934574.874632,179.05,-0.0,-0.53,0.175,0.085,9.735,0.0,-0.01,-0.02
1775934574.8846402,179.06,0.01,-0.53,0.225,0.048,9.739,-0.01,0.0,-0.02
1775934574.894635,179.06,-0.0,-0.55,0.17,-0.055,9.745,-0.01,0.0,-0.01
1775934574.9046812,179.02,-0.02,-0.57,0.069,-0.145,9.751,-0.01,0.01,0.01
1775934574.9146426,178.98,-0.05,-0.6,-0.038,-0.108,9.76,-0.02,0.01,0.02
1775934574.924642,178.96,-0.08,-0.59,-0.144,-0.093,9.69,-0.02,0.01,0.02
1775934574.9346404,178.97,-0.1,-0.59,-0.236,-0.086,9.67,0.0,0.0,0.0
1775934574.9446428,179.0,-0.1,-0.58,-0.254,-0.129,9.703,0.0,-0.01,-0.02
1775934574.9546392,179.02,-0.1,-0.59,-0.204,-0.151,9.73,0.0,-0.02,-0.02
1775934574.966643,179.03,-0.07,-0.58,-0.093,-0.166,9.703,0.0,-0.02,-0.02
1775934574.9752195,179.03,-0.04,-0.58,0.028,-0.128,9.712,0.0,-0.02,-0.01
1775934574.9847295,179.01,-0.02,-0.57,0.134,-0.053,9.737,0.0,-0.02,0.0
1775934574.9946573,179.01,-0.01,-0.56,0.158,0.0,9.756,0.0,-0.01,0.0
1775934575.0046911,179.01,-0.02,-0.55,0.119,0.032,9.755,-0.01,0.01,0.0
1775934575.0146852,179.02,-0.05,-0.55,0.05,-0.002,9.717,-0.01,0.01,-0.01
1775934575.0246987,179.01,-0.06,-0.57,-0.054,-0.068,9.718,-0.01,0.01,-0.01
1775934575.0348604,179.0,-0.08,-0.58,-0.127,-0.098,9.715,-0.01,0.0,0.0
1775934575.0448296,178.99,-0.1,-0.58,-0.166,-0.127,9.681,-0.01,0.0,0.0
1775934575.0547817,178.99,-0.09,-0.58,-0.148,-0.14,9.693,0.0,-0.01,0.0
1775934575.0647273,179.0,-0.07,-0.57,-0.098,-0.131,9.723,0.0,-0.02,-0.01
1775934575.0746,179.01,-0.06,-0.57,-0.038,-0.114,9.745,0.0,-0.02,-0.01
1775934575.0846066,179.02,-0.05,-0.57,0.036,-0.091,9.727,0.0,-0.01,-0.01
1775934575.094634,179.02,-0.04,-0.56,0.066,-0.063,9.747,0.0,-0.01,-0.01
1775934575.104608,179.01,-0.04,-0.55,0.048,-0.04,9.763,0.0,0.0,0.0
1775934575.114597,179.01,-0.05,-0.55,0.04,-0.025,9.764,-0.01,0.0,0.0
1775934575.1246035,179.01,-0.07,-0.56,-0.022,-0.043,9.767,-0.01,0.0,0.0
1775934575.1346152,179.01,-0.07,-0.57,-0.051,-0.086,9.738,-0.01,0.0,-0.01
1775934575.1446338,179.0,-0.07,-0.57,-0.087,-0.102,9.756,-0.01,-0.01,0.0
1775934575.1547663,179.0,-0.08,-0.57,-0.096,-0.111,9.741,0.0,-0.01,0.0
1775934575.1646473,179.0,-0.08,-0.57,-0.091,-0.096,9.739,0.0,-0.01,0.0
1775934575.1745872,179.01,-0.07,-0.55,-0.056,-0.087,9.749,0.0,-0.01,-0.01
1775934575.1846452,179.01,-0.07,-0.55,-0.024,-0.084,9.764,0.0,-0.01,-0.01
1775934575.1945891,179.01,-0.07,-0.55,0.001,-0.092,9.769,0.0,-0.01,-0.01
1775934575.2046049,179.01,-0.06,-0.56,0.025,-0.092,9.75,-0.01,0.0,-0.01
1775934575.2146018,179.01,-0.06,-0.56,-0.018,-0.134,9.747,-0.01,-0.01,0.0
1775934575.224587,179.0,-0.07,-0.57,-0.103,-0.171,9.747,0.0,0.0,0.0
1775934575.2345853,179.01,-0.09,-0.56,-0.121,-0.127,9.747,0.0,-0.01,0.0
1775934575.2445905,179.02,-0.07,-0.52,0.023,-0.143,9.721,0.0,0.0,-0.01
1775934575.2546039,179.0,-0.02,-0.45,-0.087,-0.514,9.745,0.02,-0.01,-0.02
1775934575.2645705,178.89,-0.12,-0.52,0.175,-0.873,9.545,0.05,-0.02,0.02
1775934575.2745838,178.7,-0.08,-0.61,-0.183,-1.015,9.475,0.01,0.03,0.06
1775934575.2837458,178.45,-0.11,-0.65,0.273,-0.625,8.942,-0.02,-0.02,0.12
1775934575.2937722,178.24,-0.03,-0.6,0.0,-0.165,9.022,-0.02,0.0,0.13
1775934575.304571,178.1,-0.09,-0.5,0.022,0.048,9.222,0.01,-0.03,0.11
1775934575.3145857,178.05,-0.11,-0.42,-0.096,0.111,9.378,0.02,0.02,0.06
1775934575.3245878,178.03,-0.13,-0.42,-0.08,0.102,9.491,0.02,0.01,0.02
1775934575.3345847,178.06,-0.13,-0.42,-0.116,0.186,9.576,-0.01,0.0,0.0
1775934575.3437495,178.11,-0.13,-0.4,-0.131,0.317,9.606,-0.02,-0.01,-0.02
1775934575.3545878,178.2,-0.12,-0.35,-0.028,0.328,9.347,-0.01,-0.01,-0.04
1775934575.3637295,178.28,-0.09,-0.35,-0.19,0.176,9.332,0.0,-0.02,-0.05
1775934575.3737478,178.34,-0.12,-0.36,-0.089,0.103,9.326,-0.01,-0.02,-0.05
1775934575.3845549,178.38,-0.11,-0.36,0.036,-0.075,9.432,-0.01,0.01,-0.04
1775934575.3945684,178.34,-0.09,-0.38,0.079,-0.356,9.532,0.01,-0.01,-0.02
1775934575.4037292,178.25,-0.08,-0.43,0.008,-0.428,9.606,0.0,-0.01,0.02
1775934575.4137156,178.15,-0.1,-0.47,0.062,-0.383,9.617,-0.01,-0.01,0.05
1775934575.4237516,178.07,-0.09,-0.51,0.059,-0.168,9.539,-0.02,0.01,0.05
1775934575.4345567,178.06,-0.09,-0.5,0.016,0.065,9.515,-0.02,-0.01,0.03
1775934575.4437294,178.1,-0.09,-0.46,-0.075,0.091,9.557,-0.01,-0.01,-0.01
1775934575.4537306,178.17,-0.11,-0.45,-0.077,-0.035,9.604,0.0,-0.01,-0.03
1775934575.463778,178.23,-0.11,-0.47,-0.067,-0.199,9.659,0.0,0.0,-0.05
1775934575.4737694,178.27,-0.11,-0.49,-0.044,-0.35,9.699,0.0,-0.01,-0.04
1775934575.4837413,178.26,-0.1,-0.51,-0.029,-0.378,9.729,0.0,-0.01,-0.02
1775934575.4937415,178.23,-0.1,-0.51,0.002,-0.283,9.685,0.0,-0.01,0.01
1775934575.504571,178.19,-0.08,-0.48,0.016,-0.158,9.598,0.0,-0.01,0.02
1775934575.5137277,178.16,-0.07,-0.46,0.038,-0.069,9.585,0.01,-0.01,0.02
1775934575.5237582,178.14,-0.07,-0.45,0.02,-0.006,9.644,0.0,-0.01,0.01
1775934575.5340748,178.14,-0.08,-0.45,0.02,0.034,9.687,-0.01,0.0,0.01
1775934575.5437126,178.16,-0.08,-0.45,0.006,0.008,9.72,-0.01,0.0,-0.01
1775934575.5537245,178.19,-0.1,-0.47,-0.01,-0.05,9.738,-0.01,0.0,-0.02
1775934575.563735,178.22,-0.11,-0.5,-0.042,-0.109,9.696,-0.02,0.0,-0.02
1775934575.573703,178.24,-0.11,-0.5,-0.054,-0.17,9.628,-0.01,0.0,-0.02
1775934575.5837135,178.24,-0.12,-0.51,-0.062,-0.235,9.599,-0.01,0.0,-0.02
1775934575.593739,178.24,-0.11,-0.52,-0.062,-0.283,9.63,0.0,-0.01,-0.01
1775934575.6037316,178.21,-0.11,-0.52,-0.054,-0.275,9.678,0.0,-0.01,0.01
1775934575.6137104,178.18,-0.09,-0.52,-0.031,-0.241,9.713,0.0,-0.01,0.02
1775934575.6237254,178.15,-0.09,-0.52,0.0,-0.152,9.739,0.0,-0.01,0.02
1775934575.6337066,178.15,-0.08,-0.5,0.012,-0.06,9.729,0.0,-0.01,0.01
1775934575.6436856,178.15,-0.08,-0.49,0.025,-0.006,9.718,0.0,0.0,0.0
1775934575.6536925,178.18,-0.08,-0.48,0.026,-0.004,9.72,0.0,0.0,-0.02
1775934575.6638846,178.21,-0.09,-0.49,0.005,-0.047,9.744,-0.01,0.0,-0.02
1775934575.6737027,178.22,-0.1,-0.5,0.0,-0.125,9.76,-0.01,0.0,-0.02
1775934575.683698,178.22,-0.1,-0.52,-0.008,-0.202,9.774,-0.01,0.0,-0.01
1775934575.6937022,178.21,-0.1,-0.54,-0.019,-0.249,9.772,-0.01,-0.01,0.0
1775934575.703688,178.18,-0.1,-0.56,-0.029,-0.225,9.745,-0.01,-0.01,0.01
1775934575.7138052,178.16,-0.11,-0.54,-0.037,-0.175,9.724,0.0,0.0,0.01
1775934575.7236722,178.15,-0.11,-0.53,-0.084,-0.109,9.741,0.0,0.0,0.01
1775934575.7336729,178.1,-0.09,-0.51,-0.138,0.086,9.745,0.0,-0.01,0.0
1775934575.7437167,178.04,-0.13,-0.47,-0.018,0.254,9.553,0.01,-0.02,0.04
1775934575.7536712,178.06,-0.09,-0.5,-0.005,0.259,9.594,-0.03,0.02,0.02
1775934575.763833,178.13,-0.11,-0.52,0.014,0.028,9.652,-0.04,-0.02,-0.03
1775934575.773841,178.19,-0.04,-0.58,0.023,-0.311,9.669,-0.01,0.0,-0.04
1775934575.7836757,178.22,-0.09,-0.62,0.004,-0.501,9.554,-0.01,-0.02,-0.03
1775934575.7936683,178.22,-0.06,-0.66,0.055,-0.545,9.303,0.0,0.02,-0.02
1775934575.8036668,178.24,-0.07,-0.65,0.157,-0.395,9.33,0.0,-0.01,0.0
1775934575.8137226,178.27,-0.04,-0.59,0.044,-0.381,9.457,0.01,-0.02,-0.02
1775934575.8236387,178.28,-0.06,-0.56,0.18,-0.456,9.544,0.04,0.0,-0.02
1775934575.8337014,178.25,-0.05,-0.54,0.138,-0.281,9.615,0.02,0.0,-0.01
1775934575.8436809,178.21,-0.04,-0.5,0.081,-0.061,9.666,0.01,0.0,0.02
1775934575.853696,178.18,-0.06,-0.47,0.029,0.163,9.696,0.0,0.0,0.02
1775934575.863736,178.18,-0.08,-0.47,-0.04,0.358,9.694,-0.02,0.0,0.01
1775934575.873698,178.2,-0.1,-0.45,-0.075,0.445,9.627,-0.02,0.0,-0.01
1775934575.8836684,178.24,-0.13,-0.44,-0.135,0.319,9.585,-0.02,0.0,-0.02
1775934575.8936634,178.26,-0.15,-0.47,-0.164,0.143,9.638,-0.02,0.0,-0.02
1775934575.9036496,178.29,-0.15,-0.5,-0.189,-0.083,9.683,-0.02,0.0,-0.02
1775934575.9136965,178.27,-0.16,-0.54,-0.159,-0.286,9.708,-0.01,-0.01,-0.01
1775934575.9236605,178.24,-0.14,-0.59,-0.14,-0.393,9.723,-0.01,-0.01,0.01
1775934575.9336765,178.18,-0.11,-0.63,-0.09,-0.405,9.666,-0.01,-0.02,0.02
1775934575.9436936,178.15,-0.09,-0.64,-0.049,-0.353,9.653,-0.01,-0.02,0.02
1775934575.953655,178.13,-0.07,-0.64,0.02,-0.273,9.667,-0.01,-0.02,0.02
1775934575.9636703,178.13,-0.05,-0.62,0.069,-0.211,9.706,0.0,-0.01,0.01
1775934575.9736974,178.14,-0.04,-0.61,0.113,-0.189,9.733,0.0,-0.01,-0.01
1775934575.9836564,178.16,-0.04,-0.6,0.14,-0.171,9.754,0.0,0.0,-0.02
1775934575.9936543,178.18,-0.04,-0.59,0.135,-0.132,9.768,0.0,0.0,-0.02
1775934576.003655,178.2,-0.05,-0.59,0.117,-0.081,9.732,0.0,0.01,-0.02
1775934576.01366,178.2,-0.06,-0.57,0.089,-0.037,9.681,0.0,0.01,-0.01
1775934576.023652,178.2,-0.08,-0.55,0.032,-0.01,9.676,0.0,0.01,-0.01
1775934576.0336564,178.2,-0.1,-0.54,-0.051,-0.007,9.711,0.0,0.0,0.0
1775934576.0436542,178.19,-0.12,-0.54,-0.113,-0.005,9.737,0.0,0.0,0.0
1775934576.0536585,178.19,-0.13,-0.54,-0.15,-0.008,9.753,-0.01,0.0,0.0
1775934576.063657,178.19,-0.14,-0.55,-0.162,-0.04,9.744,-0.01,-0.01,0.0
1775934576.073642,178.21,-0.14,-0.56,-0.159,-0.067,9.75,-0.01,-0.01,-0.01
1775934576.0836437,178.22,-0.13,-0.58,-0.132,-0.139,9.721,-0.01,-0.01,-0.02
1775934576.093622,178.23,-0.12,-0.59,-0.077,-0.217,9.708,-0.01,-0.01,-0.02
1775934576.1036649,178.23,-0.1,-0.61,-0.029,-0.279,9.735,-0.01,-0.01,-0.01
1775934576.1136458,178.21,-0.09,-0.62,0.018,-0.286,9.755,0.0,-0.02,0.0
1775934576.1236563,178.18,-0.07,-0.62,0.068,-0.23,9.769,0.0,-0.01,0.01
1775934576.1336563,178.16,-0.07,-0.61,0.097,-0.138,9.78,0.0,-0.01,0.01
1775934576.1436546,178.15,-0.06,-0.59,0.097,-0.049,9.784,0.0,0.0,0.01
1775934576.1536572,178.16,-0.07,-0.57,0.068,0.016,9.791,0.0,0.0,0.0
1775934576.1636612,178.18,-0.08,-0.56,0.029,0.026,9.79,0.0,0.0,-0.01
1775934576.1736073,178.2,-0.09,-0.56,0.005,-0.012,9.785,-0.01,0.0,-0.02
1775934576.1836112,178.21,-0.11,-0.57,-0.04,-0.101,9.786,-0.01,0.0,-0.02
1775934576.1936343,178.21,-0.12,-0.59,-0.062,-0.176,9.766,-0.01,0.0,-0.01
1775934576.2036297,178.19,-0.13,-0.61,-0.085,-0.222,9.754,-0.01,0.0,0.0
1775934576.2136338,178.18,-0.13,-0.63,-0.085,-0.22,9.733,-0.01,0.0,0.01
1775934576.2236626,178.17,-0.12,-0.62,-0.077,-0.174,9.731,0.0,-0.01,0.01
1775934576.2336664,178.16,-0.12,-0.6,-0.078,-0.157,9.718,0.0,-0.01,0.0
1775934576.2436118,178.17,-0.11,-0.58,-0.071,-0.117,9.732,0.01,-0.01,0.0
1775934576.253624,178.17,-0.11,-0.57,-0.014,-0.086,9.753,0.01,-0.01,-0.01
1775934576.2636416,178.18,-0.09,-0.57,0.016,-0.059,9.768,0.0,-0.01,-0.01
1775934576.2735934,178.19,-0.09,-0.58,0.038,-0.005,9.779,-0.01,-0.01,-0.01
1775934576.2836158,178.2,-0.08,-0.56,0.04,-0.011,9.749,-0.01,0.0,-0.01
1775934576.293633,178.2,-0.09,-0.57,0.062,-0.123,9.638,0.0,-0.01,-0.01
1775934576.3035798,178.21,-0.09,-0.6,0.079,-0.133,9.629,-0.01,0.0,-0.01
1775934576.3135982,178.19,-0.11,-0.61,0.013,-0.125,9.527,-0.02,0.0,-0.01
1775934576.3236034,178.18,-0.08,-0.58,-0.244,-0.109,9.563,0.0,0.0,0.01
1775934576.333614,178.17,-0.11,-0.58,-0.234,-0.38,9.402,0.02,-0.02,0.01
1775934576.3436298,178.14,-0.1,-0.61,-0.407,-0.39,9.438,0.0,-0.01,0.0
1775934576.3535745,178.1,-0.07,-0.58,-0.582,-0.473,9.416,0.01,-0.03,0.02
1775934576.363612,178.07,-0.03,-0.57,-0.492,-0.487,9.459,0.02,-0.04,0.02
1775934576.3735788,178.03,0.02,-0.55,-0.339,-0.326,9.551,0.02,-0.05,0.02
1775934576.3835914,177.99,0.09,-0.52,-0.043,-0.055,9.62,0.0,-0.03,0.02
1775934576.3935745,177.97,0.16,-0.47,0.268,0.16,9.67,0.0,-0.02,0.02
1775934576.4035778,177.97,0.2,-0.42,0.492,0.216,9.707,0.01,-0.02,0.0
1775934576.4129727,177.99,0.22,-0.43,0.527,0.182,9.733,0.0,0.0,-0.01
1775934576.423586,178.01,0.2,-0.45,0.436,0.095,9.742,-0.02,0.02,-0.02
1775934576.4335997,178.01,0.14,-0.47,0.24,-0.116,9.634,-0.02,0.02,-0.02
1775934576.4435952,178.0,0.08,-0.5,-0.044,-0.296,9.578,-0.01,0.02,0.0
1775934576.4536064,177.97,0.02,-0.53,-0.303,-0.303,9.612,-0.01,0.02,0.01
1775934576.4627597,177.95,-0.02,-0.52,-0.471,-0.272,9.624,0.0,0.0,0.01
1775934576.4735813,177.94,-0.03,-0.49,-0.504,-0.172,9.593,0.01,-0.01,0.01
1775934576.4836178,177.96,-0.02,-0.46,-0.428,-0.026,9.633,0.01,-0.02,-0.01
1775934576.4927468,177.99,0.01,-0.43,-0.23,0.042,9.679,0.0,-0.02,-0.02
1775934576.5027578,178.03,0.05,-0.43,-0.024,-0.004,9.714,0.0,-0.02,-0.02
1775934576.5127764,178.04,0.08,-0.45,0.168,-0.062,9.739,-0.01,-0.01,-0.02
1775934576.5227482,178.03,0.1,-0.48,0.267,-0.178,9.75,-0.02,-0.01,-0.01
1775934576.5327241,178.0,0.1,-0.52,0.253,-0.275,9.741,-0.02,0.0,0.01
1775934576.5427547,177.97,0.07,-0.55,0.135,-0.293,9.733,-0.02,0.01,0.02
1775934576.552779,177.94,0.03,-0.55,-0.047,-0.286,9.691,-0.01,0.01,0.02
1775934576.5635986,177.94,-0.0,-0.55,-0.219,-0.231,9.663,0.0,0.01,0.01
1775934576.5727386,177.95,-0.04,-0.53,-0.334,-0.144,9.67,0.0,0.0,-0.01
1775934576.5827372,177.98,-0.05,-0.5,-0.364,-0.093,9.679,0.01,-0.01,-0.02
1775934576.5927649,178.0,-0.04,-0.49,-0.302,-0.074,9.694,0.01,-0.02,-0.02
1775934576.6027353,178.01,-0.03,-0.49,-0.176,-0.063,9.724,0.0,-0.02,-0.02
1775934576.6127543,178.01,0.01,-0.5,-0.017,-0.105,9.747,-0.01,-0.02,-0.01
1775934576.622709,178.01,0.03,-0.52,0.109,-0.15,9.763,-0.01,-0.01,-0.01
1775934576.6327293,178.0,0.05,-0.54,0.178,-0.188,9.769,-0.01,-0.01,0.0
1775934576.6427062,177.99,0.05,-0.55,0.159,-0.226,9.757,-0.01,0.0,0.0
1775934576.6528156,177.97,0.02,-0.57,0.066,-0.231,9.772,-0.01,0.01,0.01
1775934576.6627305,177.96,-0.01,-0.57,-0.059,-0.211,9.759,0.0,0.01,0.01
1775934576.6727414,177.96,-0.04,-0.56,-0.19,-0.159,9.725,0.0,0.01,0.0
1775934576.6827343,177.96,-0.07,-0.55,-0.277,-0.105,9.69,0.0,0.0,-0.01
1775934576.692725,177.98,-0.07,-0.54,-0.287,-0.089,9.688,0.0,-0.01,-0.01
1775934576.702702,177.99,-0.07,-0.53,-0.23,-0.101,9.713,0.0,-0.01,-0.02
1775934576.7127023,178.01,-0.04,-0.54,-0.097,-0.214,9.738,0.0,-0.02,-0.02
1775934576.722707,178.01,-0.02,-0.57,-0.116,-0.153,9.757,-0.01,-0.02,-0.01
1775934576.732683,178.06,-0.0,-0.48,0.151,-0.637,9.414,-0.01,-0.01,-0.01
1775934576.7426963,178.11,0.01,-0.43,0.207,-1.308,9.215,0.06,-0.02,-0.04
1775934576.7527187,178.13,0.08,-0.47,0.487,-1.007,9.372,0.09,0.02,-0.03
1775934576.7626803,178.17,0.01,-0.41,0.922,-0.719,9.381,0.04,0.01,-0.01
1775934576.7727196,178.21,0.07,-0.4,0.736,-0.683,9.495,0.01,0.04,-0.04
1775934576.782708,178.2,0.08,-0.41,0.685,-0.625,9.55,0.0,-0.01,-0.02
