timestamp,yaw,pitch,roll,accel_x,accel_y,accel_z,gyro_x,gyro_y,gyro_z
1778774727.1050127,-68.73,-0.26,-0.02,-0.043,0.0,9.809,0.0,0.0,0.0
1778774727.1149626,-68.73,-0.26,-0.02,-0.044,0.002,9.809,0.0,0.0,-0.01
1778774727.124996,-68.73,-0.26,-0.02,-0.044,0.0,9.809,-0.01,0.0,-0.01
1778774727.1349766,-68.73,-0.26,-0.02,-0.041,-0.004,9.809,-0.01,-0.01,0.0
1778774727.14499,-68.73,-0.26,-0.02,-0.042,-0.004,9.809,-0.01,-0.01,0.0
1778774727.1549466,-68.73,-0.26,-0.02,-0.046,-0.006,9.809,0.0,0.0,0.0
1778774727.1649425,-68.73,-0.26,-0.02,-0.048,-0.01,9.809,0.0,0.0,-0.01
1778774727.1749985,-68.73,-0.26,-0.02,-0.051,-0.008,9.809,0.0,-0.01,0.0
1778774727.185126,-68.73,-0.26,-0.02,-0.048,-0.004,9.809,0.0,-0.01,-0.01
1778774727.1955757,-68.73,-0.26,-0.02,-0.048,-0.001,9.809,0.0,0.0,-0.01
1778774727.2049615,-68.73,-0.26,-0.02,-0.046,-0.002,9.809,-0.01,0.0,0.0
1778774727.214937,-68.73,-0.26,-0.02,-0.042,-0.004,9.809,0.0,-0.01,-0.01
1778774727.2249334,-68.73,-0.26,-0.02,-0.038,-0.001,9.809,0.0,0.0,-0.01
1778774727.2349393,-68.73,-0.26,-0.02,-0.04,0.0,9.809,0.0,0.0,0.0
1778774727.244922,-68.73,-0.26,-0.02,-0.04,-0.002,9.809,0.0,0.0,0.0
1778774727.2549326,-68.73,-0.26,-0.02,-0.04,0.0,9.809,0.0,0.0,0.0
1778774727.2649274,-68.73,-0.26,-0.02,-0.04,0.001,9.809,0.0,0.0,-0.01
1778774727.2749386,-68.73,-0.26,-0.02,-0.043,0.0,9.809,0.0,0.0,0.0
1778774727.284927,-68.73,-0.26,-0.02,-0.049,0.0,9.809,0.0,0.0,0.0
1778774727.2949493,-68.73,-0.26,-0.02,-0.048,0.002,9.809,0.0,0.0,-0.01
1778774727.3049648,-68.73,-0.26,-0.02,-0.048,-0.004,9.809,0.0,-0.01,0.0
1778774727.3149347,-68.73,-0.26,-0.02,-0.043,-0.005,9.809,0.0,-0.01,0.0
1778774727.3249347,-68.73,-0.26,-0.02,-0.041,-0.001,9.809,0.0,-0.01,0.0
1778774727.3349452,-68.73,-0.26,-0.02,-0.035,-0.004,9.809,0.0,0.0,-0.01
1778774727.3449306,-68.73,-0.26,-0.02,-0.034,-0.006,9.806,0.0,0.0,0.0
1778774727.354933,-68.73,-0.26,-0.02,-0.04,-0.002,9.808,-0.01,0.0,-0.01
1778774727.3649325,-68.73,-0.26,-0.02,-0.043,-0.002,9.808,0.0,0.0,0.0
1778774727.3749712,-68.73,-0.26,-0.02,-0.041,-0.005,9.808,-0.01,-0.01,-0.01
1778774727.3849542,-68.73,-0.26,-0.02,-0.041,-0.006,9.808,0.0,-0.01,0.0
1778774727.394944,-68.73,-0.26,-0.02,-0.046,-0.005,9.809,0.0,0.0,0.0
1778774727.4049733,-68.73,-0.26,-0.02,-0.047,-0.001,9.809,0.0,0.0,-0.01
1778774727.414932,-68.73,-0.26,-0.02,-0.047,0.0,9.809,0.0,0.0,-0.01
1778774727.4249668,-68.73,-0.26,-0.02,-0.046,-0.004,9.809,0.0,0.0,0.0
1778774727.434939,-68.73,-0.26,-0.02,-0.046,-0.002,9.809,0.0,0.0,0.0
1778774727.4449198,-68.73,-0.26,-0.02,-0.044,0.0,9.809,0.0,0.0,0.0
1778774727.454936,-68.73,-0.26,-0.02,-0.046,-0.004,9.809,0.0,0.0,-0.01
1778774727.4649374,-68.73,-0.26,-0.02,-0.042,-0.004,9.809,0.0,0.0,0.0
1778774727.4749186,-68.73,-0.26,-0.02,-0.04,0.0,9.809,0.0,-0.01,-0.01
1778774727.484974,-68.73,-0.26,-0.02,-0.04,0.0,9.809,0.0,0.0,0.0
1778774727.4948995,-68.73,-0.26,-0.02,-0.038,0.0,9.809,0.0,-0.01,0.0
1778774727.5049536,-68.73,-0.26,-0.02,-0.038,0.002,9.809,0.0,0.0,-0.01
1778774727.51492,-68.73,-0.26,-0.02,-0.042,0.002,9.809,0.0,-0.01,0.0
1778774727.5249023,-68.73,-0.26,-0.02,-0.04,0.001,9.809,0.0,0.0,-0.01
1778774727.5348976,-68.73,-0.26,-0.02,-0.04,-0.002,9.809,0.0,-0.01,0.0
1778774727.544961,-68.73,-0.26,-0.02,-0.041,-0.002,9.809,0.0,-0.01,0.0
1778774727.554899,-68.73,-0.26,-0.02,-0.041,0.005,9.809,0.0,0.0,0.0
1778774727.5648956,-68.74,-0.25,-0.01,-0.04,0.002,9.81,0.0,0.0,0.0
1778774727.5749187,-68.74,-0.25,-0.01,-0.04,0.001,9.81,0.0,-0.01,0.0
1778774727.5849144,-68.74,-0.25,-0.01,-0.042,0.0,9.81,0.0,-0.01,0.0
1778774727.594888,-68.74,-0.25,-0.01,-0.047,0.0,9.81,0.0,-0.01,0.0
1778774727.604894,-68.73,-0.25,-0.01,-0.048,-0.002,9.809,0.0,-0.01,-0.01
1778774727.6149213,-68.73,-0.25,-0.01,-0.043,-0.001,9.809,0.0,0.0,-0.01
1778774727.6249287,-68.74,-0.25,-0.01,-0.041,-0.005,9.81,-0.01,0.0,-0.01
1778774727.6349056,-68.73,-0.25,-0.02,-0.04,-0.004,9.809,0.0,0.0,0.0
1778774727.6449232,-68.73,-0.25,-0.02,-0.046,-0.001,9.809,-0.01,-0.01,-0.01
1778774727.6549048,-68.73,-0.25,-0.02,-0.047,-0.001,9.809,0.0,-0.01,-0.01
1778774727.6648884,-68.73,-0.25,-0.02,-0.049,0.0,9.809,0.0,-0.01,0.0
1778774727.6740773,-68.73,-0.25,-0.02,-0.046,0.0,9.809,0.0,0.0,-0.01
1778774727.6847258,-68.73,-0.25,-0.02,-0.043,-0.002,9.809,0.0,-0.01,0.0
1778774727.6955926,-68.73,-0.25,-0.02,-0.043,-0.005,9.809,0.0,0.0,0.0
1778774727.7041473,-68.73,-0.25,-0.01,-0.043,-0.002,9.808,0.0,0.0,-0.01
1778774727.7141228,-68.73,-0.25,-0.01,-0.05,-0.001,9.808,0.0,0.0,0.0
1778774727.7249072,-68.73,-0.25,-0.01,-0.049,-0.01,9.808,0.0,-0.01,-0.01
1778774727.734888,-68.73,-0.26,-0.02,-0.05,-0.005,9.809,0.0,0.0,-0.01
1778774727.744052,-68.73,-0.26,-0.02,-0.048,0.002,9.809,0.0,-0.01,0.0
1778774727.7544768,-68.73,-0.26,-0.02,-0.043,0.004,9.809,-0.01,0.0,-0.01
1778774727.7640755,-68.73,-0.25,-0.01,-0.043,0.0,9.809,0.0,0.0,0.0
1778774727.7740705,-68.73,-0.25,-0.01,-0.044,0.0,9.809,0.0,-0.01,-0.01
1778774727.7840328,-68.73,-0.25,-0.01,-0.041,0.001,9.809,0.0,0.0,-0.01
1778774727.7948692,-68.73,-0.25,-0.01,-0.046,-0.002,9.809,0.0,0.0,0.0
1778774727.8040435,-68.73,-0.25,-0.01,-0.051,-0.002,9.809,0.0,0.0,0.0
1778774727.814048,-68.73,-0.26,-0.02,-0.049,0.0,9.809,0.0,-0.01,-0.01
1778774727.8240097,-68.73,-0.26,-0.02,-0.051,0.002,9.809,0.0,-0.01,-0.01
1778774727.8340378,-68.73,-0.26,-0.02,-0.053,0.0,9.809,-0.01,0.0,0.0
1778774727.8440425,-68.73,-0.26,-0.02,-0.055,-0.002,9.809,-0.01,0.0,0.0
1778774727.8540094,-68.73,-0.26,-0.02,-0.05,-0.005,9.809,0.0,0.0,0.0
1778774727.8640103,-68.73,-0.26,-0.02,-0.047,-0.004,9.809,-0.01,-0.01,0.0
1778774727.8740036,-68.73,-0.26,-0.02,-0.047,-0.002,9.809,0.0,-0.01,0.0
1778774727.8840125,-68.73,-0.26,-0.02,-0.046,-0.005,9.809,-0.01,0.0,0.0
1778774727.89401,-68.73,-0.26,-0.02,-0.047,-0.005,9.809,0.0,-0.01,0.0
1778774727.903993,-68.73,-0.26,-0.02,-0.048,-0.005,9.809,0.0,-0.01,0.0
1778774727.9140081,-68.73,-0.26,-0.02,-0.047,-0.005,9.809,0.0,0.0,-0.01
1778774727.924007,-68.73,-0.26,-0.02,-0.048,-0.004,9.809,0.0,-0.01,0.0
1778774727.9340086,-68.73,-0.26,-0.02,-0.044,-0.002,9.809,0.0,-0.01,-0.01
1778774727.9439812,-68.73,-0.26,-0.02,-0.042,-0.005,9.809,0.0,0.0,0.0
1778774727.9539833,-68.73,-0.26,-0.02,-0.046,-0.004,9.809,-0.01,-0.01,0.0
1778774727.964024,-68.74,-0.26,-0.02,-0.049,-0.004,9.81,0.0,-0.01,0.0
1778774727.9739974,-68.74,-0.26,-0.02,-0.05,-0.007,9.81,0.0,0.0,0.0
1778774727.9839823,-68.74,-0.26,-0.02,-0.044,-0.007,9.81,-0.01,0.0,0.0
1778774727.99401,-68.74,-0.26,-0.02,-0.042,-0.004,9.81,0.0,0.0,0.0
1778774728.0039835,-68.74,-0.26,-0.02,-0.04,0.0,9.81,-0.01,0.0,-0.01
1778774728.0139976,-68.74,-0.26,-0.02,-0.036,0.0,9.81,-0.01,-0.01,0.0
1778774728.0239658,-68.74,-0.26,-0.02,-0.042,0.0,9.81,0.0,-0.01,0.0
1778774728.0339532,-68.74,-0.26,-0.02,-0.044,0.002,9.81,-0.01,0.0,-0.01
1778774728.0440154,-68.74,-0.26,-0.02,-0.046,0.0,9.81,0.0,-0.01,0.0
1778774728.053981,-68.74,-0.26,-0.02,-0.048,-0.005,9.81,0.0,-0.01,0.0
1778774728.063998,-68.74,-0.26,-0.02,-0.047,-0.002,9.81,0.0,0.0,0.0
1778774728.0739985,-68.74,-0.26,-0.02,-0.044,-0.004,9.81,0.0,0.0,0.0
1778774728.0839684,-68.74,-0.26,-0.02,-0.044,-0.001,9.81,-0.01,0.0,-0.01
1778774728.0939815,-68.74,-0.26,-0.02,-0.047,-0.001,9.81,0.0,-0.01,-0.01
1778774728.1039462,-68.74,-0.26,-0.02,-0.047,0.0,9.81,0.0,-0.01,-0.01
1778774728.114,-68.74,-0.26,-0.02,-0.048,0.0,9.81,0.0,-0.01,0.0
1778774728.1239812,-68.74,-0.26,-0.02,-0.051,-0.001,9.81,0.0,-0.01,0.0
1778774728.133965,-68.74,-0.26,-0.02,-0.05,0.0,9.81,0.0,0.0,-0.01
1778774728.1439488,-68.74,-0.26,-0.02,-0.05,0.001,9.81,0.0,0.0,0.0
1778774728.153951,-68.74,-0.26,-0.02,-0.046,0.001,9.81,-0.01,-0.01,-0.01
1778774728.1639493,-68.74,-0.26,-0.02,-0.046,0.0,9.81,-0.01,0.0,-0.01
1778774728.173982,-68.74,-0.26,-0.02,-0.043,0.0,9.81,0.0,0.0,-0.01
1778774728.1839483,-68.74,-0.26,-0.02,-0.043,0.0,9.81,0.0,-0.01,0.0
1778774728.1939533,-68.74,-0.26,-0.02,-0.044,0.0,9.809,-0.01,-0.01,0.0
1778774728.203957,-68.74,-0.26,-0.02,-0.042,-0.002,9.809,0.0,-0.01,0.0
1778774728.2139528,-68.74,-0.26,-0.02,-0.041,-0.002,9.809,0.0,-0.01,-0.01
1778774728.223937,-68.74,-0.26,-0.02,-0.037,0.0,9.809,0.0,0.0,-0.01
1778774728.2339427,-68.74,-0.25,-0.02,-0.035,-0.005,9.81,0.0,-0.01,-0.01
1778774728.2443516,-68.74,-0.26,-0.03,-0.04,-0.002,9.81,0.0,-0.01,-0.01
1778774728.2539523,-68.74,-0.25,-0.02,-0.048,0.004,9.81,0.0,0.0,-0.01
1778774728.263951,-68.74,-0.26,-0.02,-0.047,0.006,9.81,0.0,-0.01,0.0
1778774728.273934,-68.74,-0.26,-0.02,-0.046,0.012,9.81,0.0,0.0,-0.01
1778774728.2839222,-68.74,-0.26,-0.02,-0.044,0.005,9.81,0.0,-0.01,-0.01
1778774728.293954,-68.74,-0.26,-0.02,-0.044,-0.001,9.81,0.0,-0.01,0.0
1778774728.30395,-68.74,-0.26,-0.02,-0.047,-0.001,9.81,0.0,-0.01,-0.01
1778774728.3139374,-68.74,-0.26,-0.02,-0.05,-0.005,9.81,0.0,0.0,0.0
1778774728.3239038,-68.74,-0.26,-0.02,-0.056,-0.004,9.81,0.0,-0.01,0.0
1778774728.3339515,-68.74,-0.26,-0.02,-0.055,-0.002,9.81,0.0,-0.01,0.0
1778774728.3439195,-68.74,-0.26,-0.02,-0.05,-0.002,9.81,0.0,0.0,0.0
1778774728.3539057,-68.74,-0.26,-0.02,-0.049,-0.001,9.81,0.0,0.0,0.0
1778774728.3639505,-68.74,-0.26,-0.02,-0.049,-0.002,9.81,0.0,-0.01,0.0
1778774728.3739533,-68.74,-0.26,-0.02,-0.042,-0.002,9.81,0.0,-0.01,0.0
1778774728.3839204,-68.74,-0.26,-0.02,-0.044,-0.001,9.81,-0.01,0.0,0.0
1778774728.3939211,-68.74,-0.26,-0.02,-0.046,-0.005,9.81,-0.01,0.0,-0.01
1778774728.4039204,-68.74,-0.26,-0.02,-0.043,-0.005,9.81,0.0,-0.01,0.0
1778774728.4139085,-68.74,-0.26,-0.02,-0.047,-0.005,9.81,-0.01,0.0,0.0
1778774728.423918,-68.74,-0.26,-0.02,-0.046,-0.007,9.81,0.0,0.0,0.0
1778774728.43392,-68.74,-0.26,-0.02,-0.04,-0.01,9.81,0.0,-0.01,-0.01
1778774728.4439032,-68.74,-0.26,-0.02,-0.043,-0.007,9.81,0.0,0.0,-0.01
1778774728.4539032,-68.74,-0.26,-0.02,-0.047,0.0,9.81,-0.01,-0.01,0.0
1778774728.4638846,-68.74,-0.26,-0.02,-0.041,0.002,9.81,0.0,-0.01,0.0
1778774728.4739053,-68.74,-0.26,-0.02,-0.042,0.002,9.81,0.0,0.0,0.0
1778774728.4838872,-68.74,-0.26,-0.02,-0.044,0.005,9.81,0.0,0.0,0.0
1778774728.4930797,-68.74,-0.26,-0.02,-0.04,0.001,9.81,0.0,0.0,-0.01
1778774728.503905,-68.74,-0.26,-0.02,-0.037,0.0,9.81,0.0,0.0,-0.01
1778774728.5139048,-68.74,-0.26,-0.02,-0.037,-0.006,9.81,-0.01,0.0,-0.01
1778774728.5230951,-68.74,-0.26,-0.02,-0.04,-0.008,9.81,0.0,0.0,0.0
1778774728.5339046,-68.74,-0.26,-0.02,-0.043,-0.002,9.809,0.0,0.0,0.0
1778774728.543082,-68.74,-0.26,-0.02,-0.042,-0.001,9.809,0.0,0.0,0.0
1778774728.553063,-68.74,-0.26,-0.02,-0.038,-0.001,9.809,0.0,0.0,-0.01
1778774728.5630863,-68.74,-0.26,-0.02,-0.037,0.0,9.809,0.0,0.0,0.0
1778774728.5730531,-68.74,-0.26,-0.02,-0.041,-0.002,9.809,0.0,-0.01,0.0
1778774728.5839,-68.74,-0.26,-0.02,-0.042,-0.001,9.809,0.0,0.0,0.0
1778774728.5930378,-68.74,-0.26,-0.02,-0.042,0.0,9.809,0.0,0.0,0.0
1778774728.603051,-68.74,-0.26,-0.02,-0.041,0.0,9.809,0.0,0.0,0.0
1778774728.6130602,-68.74,-0.26,-0.02,-0.043,0.001,9.809,0.0,0.0,0.0
1778774728.6239007,-68.74,-0.26,-0.02,-0.04,0.0,9.809,0.0,0.0,-0.01
1778774728.633062,-68.74,-0.26,-0.02,-0.044,-0.004,9.809,0.0,0.0,0.0
1778774728.6430407,-68.74,-0.26,-0.02,-0.043,-0.008,9.809,0.0,-0.01,0.0
1778774728.6530344,-68.74,-0.26,-0.02,-0.038,-0.005,9.809,0.0,0.0,0.0
1778774728.6630228,-68.74,-0.26,-0.02,-0.04,-0.004,9.809,0.0,0.0,0.0
1778774728.67302,-68.74,-0.26,-0.02,-0.035,-0.001,9.809,-0.01,-0.01,0.0
1778774728.6830094,-68.74,-0.25,-0.02,-0.037,0.0,9.809,-0.01,0.0,0.0
1778774728.6930387,-68.74,-0.25,-0.02,-0.034,-0.005,9.809,0.0,-0.01,0.0
1778774728.7030065,-68.74,-0.25,-0.02,-0.031,-0.004,9.809,0.0,-0.01,0.0
1778774728.7130506,-68.74,-0.25,-0.02,-0.032,-0.004,9.809,0.0,0.0,0.0
1778774728.7230084,-68.74,-0.25,-0.02,-0.042,-0.006,9.809,0.0,0.0,0.0
1778774728.733042,-68.74,-0.25,-0.02,-0.046,-0.007,9.809,0.0,-0.01,-0.01
1778774728.74301,-68.74,-0.25,-0.02,-0.043,-0.005,9.809,0.0,0.0,-0.01
1778774728.7530074,-68.74,-0.25,-0.02,-0.046,-0.004,9.809,-0.01,0.0,0.0
1778774728.7629814,-68.74,-0.25,-0.02,-0.044,-0.002,9.809,-0.01,0.0,-0.01
1778774728.7729864,-68.74,-0.25,-0.02,-0.041,-0.004,9.809,0.0,0.0,-0.01
1778774728.7829676,-68.74,-0.25,-0.02,-0.044,0.0,9.809,-0.01,-0.01,0.0
1778774728.7930226,-68.74,-0.25,-0.02,-0.049,0.001,9.809,0.0,-0.01,-0.01
1778774728.8030038,-68.74,-0.25,-0.02,-0.046,0.0,9.809,0.0,0.0,0.0
1778774728.8129902,-68.74,-0.25,-0.02,-0.046,0.0,9.809,0.0,-0.01,0.0
1778774728.8229687,-68.74,-0.25,-0.02,-0.047,0.0,9.809,-0.01,0.0,0.0
1778774728.8330185,-68.74,-0.25,-0.02,-0.046,0.0,9.808,-0.01,-0.01,0.0
1778774728.8429966,-68.74,-0.25,-0.02,-0.047,0.005,9.808,0.0,0.0,0.0
1778774728.8530285,-68.74,-0.25,-0.02,-0.042,0.001,9.809,-0.01,0.0,-0.01
1778774728.8630173,-68.74,-0.25,-0.02,-0.043,0.0,9.809,-0.01,0.0,-0.01
1778774728.8729966,-68.74,-0.25,-0.02,-0.047,-0.001,9.809,0.0,0.0,0.0
1778774728.8829827,-68.74,-0.25,-0.02,-0.046,-0.002,9.808,0.0,-0.01,-0.01
1778774728.892976,-68.74,-0.25,-0.02,-0.049,0.001,9.808,0.0,-0.01,-0.01
1778774728.9029493,-68.74,-0.25,-0.02,-0.05,0.0,9.808,-0.01,-0.01,0.0
1778774728.9130251,-68.74,-0.26,-0.02,-0.046,0.001,9.808,0.0,0.0,-0.01
1778774728.9230018,-68.74,-0.25,-0.02,-0.048,-0.004,9.808,0.0,0.0,-0.01
1778774728.9330063,-68.74,-0.25,-0.02,-0.047,0.0,9.808,-0.01,-0.01,-0.01
1778774728.942965,-68.74,-0.25,-0.02,-0.047,0.001,9.809,0.0,0.0,0.0
1778774728.9530022,-68.74,-0.26,-0.02,-0.05,-0.002,9.809,0.0,0.0,0.0
1778774728.9629662,-68.74,-0.26,-0.02,-0.048,-0.006,9.809,0.0,0.0,0.0
1778774728.9729798,-68.74,-0.26,-0.02,-0.049,-0.006,9.809,-0.01,0.0,-0.01
1778774728.9834015,-68.74,-0.26,-0.02,-0.049,-0.006,9.809,0.0,0.0,0.0
1778774728.9929938,-68.74,-0.26,-0.02,-0.047,-0.01,9.809,0.0,0.0,-0.01
1778774729.0029814,-68.74,-0.26,-0.02,-0.049,-0.012,9.809,-0.01,-0.01,-0.01
1778774729.0129972,-68.74,-0.26,-0.02,-0.047,-0.012,9.809,0.0,0.0,-0.01
1778774729.0229528,-68.74,-0.26,-0.02,-0.049,-0.008,9.809,0.0,0.0,0.0
1778774729.0329623,-68.74,-0.26,-0.02,-0.048,-0.011,9.809,0.0,-0.01,0.0
1778774729.042984,-68.74,-0.26,-0.02,-0.047,-0.013,9.809,0.0,0.0,0.0
1778774729.0529633,-68.74,-0.26,-0.02,-0.042,-0.013,9.809,0.0,-0.01,0.0
1778774729.0629506,-68.74,-0.26,-0.02,-0.042,-0.005,9.809,0.0,0.0,0.0
1778774729.0729449,-68.74,-0.26,-0.02,-0.04,-0.008,9.809,0.0,0.0,0.0
1778774729.082957,-68.74,-0.26,-0.02,-0.04,-0.005,9.809,0.0,0.0,-0.01
1778774729.0929646,-68.74,-0.26,-0.02,-0.043,-0.001,9.809,-0.01,0.0,0.0
1778774729.102953,-68.74,-0.26,-0.02,-0.043,0.001,9.809,0.0,-0.01,0.0
1778774729.1129317,-68.74,-0.26,-0.02,-0.047,0.001,9.809,0.0,-0.01,-0.01
1778774729.1229234,-68.74,-0.26,-0.02,-0.051,0.001,9.809,-0.01,-0.01,0.0
1778774729.1329634,-68.74,-0.26,-0.02,-0.054,0.002,9.809,0.0,0.0,0.0
1778774729.1429536,-68.74,-0.26,-0.02,-0.048,0.007,9.809,-0.01,0.0,0.0
1778774729.152935,-68.74,-0.26,-0.02,-0.044,0.002,9.809,0.0,0.0,-0.01
1778774729.1629558,-68.74,-0.26,-0.02,-0.046,0.0,9.809,0.0,0.0,0.0
1778774729.1729662,-68.74,-0.26,-0.02,-0.042,0.0,9.809,-0.01,0.0,0.0
1778774729.182921,-68.74,-0.26,-0.02,-0.042,-0.004,9.809,-0.01,0.0,0.0
1778774729.1929157,-68.74,-0.26,-0.02,-0.04,-0.001,9.809,0.0,-0.01,0.0
1778774729.2029524,-68.74,-0.26,-0.02,-0.04,-0.006,9.809,0.0,0.0,-0.01
1778774729.212961,-68.74,-0.26,-0.02,-0.041,-0.005,9.809,0.0,0.0,-0.01
1778774729.2229192,-68.74,-0.26,-0.02,-0.043,-0.007,9.809,-0.01,0.0,0.0
1778774729.2329137,-68.74,-0.26,-0.02,-0.044,-0.001,9.809,0.0,0.0,0.0
1778774729.242887,-68.74,-0.26,-0.02,-0.043,-0.002,9.809,0.0,0.0,-0.01
1778774729.25291,-68.74,-0.26,-0.02,-0.047,-0.002,9.806,-0.01,-0.01,0.0
1778774729.262953,-68.74,-0.26,-0.02,-0.047,-0.006,9.806,0.0,-0.01,0.0
1778774729.272931,-68.74,-0.26,-0.02,-0.043,-0.006,9.808,0.0,0.0,0.0
1778774729.2828867,-68.74,-0.26,-0.02,-0.038,-0.004,9.808,0.0,0.0,0.0
1778774729.2928984,-68.74,-0.26,-0.03,-0.035,-0.002,9.808,0.0,-0.01,0.0
1778774729.302888,-68.74,-0.26,-0.03,-0.037,-0.004,9.808,-0.01,0.0,0.0
1778774729.3128982,-68.74,-0.26,-0.03,-0.043,-0.006,9.809,-0.01,-0.01,-0.01
1778774729.3221097,-68.74,-0.26,-0.03,-0.043,-0.002,9.809,0.0,0.0,0.0
1778774729.332881,-68.74,-0.26,-0.03,-0.043,-0.002,9.808,-0.01,0.0,-0.01
1778774729.3429086,-68.74,-0.26,-0.03,-0.05,-0.001,9.809,0.0,0.0,0.0
1778774729.3528998,-68.74,-0.26,-0.02,-0.048,0.0,9.809,0.0,-0.01,0.0
1778774729.3628874,-68.76,-0.26,-0.03,-0.048,-0.004,9.809,-0.01,-0.01,0.0
1778774729.3728817,-68.74,-0.26,-0.03,-0.049,0.001,9.806,0.0,-0.01,0.0
1778774729.3820858,-68.76,-0.26,-0.02,-0.049,-0.001,9.808,-0.01,0.0,-0.01
1778774729.3928988,-68.74,-0.26,-0.02,-0.049,0.0,9.808,0.0,0.0,0.0
1778774729.4020455,-68.74,-0.26,-0.02,-0.046,0.0,9.808,0.0,0.0,0.0
1778774729.4120514,-68.74,-0.26,-0.02,-0.046,0.0,9.809,0.0,0.0,-0.01
1778774729.4228916,-68.76,-0.26,-0.02,-0.041,0.001,9.809,0.0,-0.01,-0.01
1778774729.4320788,-68.74,-0.26,-0.02,-0.036,0.001,9.809,0.0,-0.01,0.0
1778774729.4420605,-68.74,-0.26,-0.03,-0.037,0.006,9.809,0.0,-0.01,-0.01
1778774729.4520495,-68.74,-0.26,-0.02,-0.04,0.001,9.809,0.0,0.0,0.0
1778774729.4620562,-68.74,-0.26,-0.02,-0.043,0.0,9.809,0.0,0.0,0.0
1778774729.4720466,-68.74,-0.26,-0.02,-0.042,-0.006,9.809,0.0,0.0,0.0
1778774729.4828784,-68.74,-0.26,-0.02,-0.038,-0.007,9.809,0.0,0.0,-0.01
1778774729.4928987,-68.74,-0.26,-0.03,-0.037,-0.004,9.809,0.0,-0.01,-0.01
1778774729.5020266,-68.74,-0.26,-0.03,-0.04,0.002,9.809,0.0,0.0,0.0
1778774729.5120487,-68.74,-0.26,-0.03,-0.042,0.006,9.809,0.0,-0.01,-0.01
1778774729.5220275,-68.74,-0.26,-0.02,-0.044,0.002,9.809,0.0,0.0,0.0
1778774729.5320969,-68.74,-0.26,-0.02,-0.041,0.002,9.809,0.0,0.0,-0.01
1778774729.5420554,-68.74,-0.26,-0.02,-0.035,0.004,9.809,0.0,0.0,0.0
1778774729.5520282,-68.74,-0.25,-0.02,-0.036,0.005,9.809,0.0,0.0,-0.01
1778774729.5620294,-68.74,-0.25,-0.02,-0.034,0.007,9.809,0.0,-0.01,-0.01
1778774729.5720081,-68.75,-0.25,-0.02,-0.032,0.005,9.809,0.0,0.0,0.0
1778774729.581999,-68.74,-0.25,-0.02,-0.038,0.001,9.809,0.0,0.0,0.0
1778774729.5919993,-68.76,-0.25,-0.02,-0.041,0.002,9.809,-0.01,0.0,0.0
1778774729.6020012,-68.76,-0.25,-0.02,-0.04,0.008,9.809,-0.01,-0.01,0.0
1778774729.6120136,-68.76,-0.25,-0.02,-0.04,0.008,9.809,0.0,-0.01,0.0
1778774729.6220114,-68.76,-0.25,-0.02,-0.047,0.008,9.809,-0.01,0.0,-0.01
1778774729.6320093,-68.76,-0.26,-0.02,-0.051,0.008,9.806,-0.01,-0.01,-0.01
1778774729.6420116,-68.76,-0.26,-0.02,-0.049,0.006,9.808,0.0,-0.01,-0.01
1778774729.652016,-68.76,-0.26,-0.02,-0.048,0.002,9.808,-0.01,0.0,0.0
1778774729.662002,-68.76,-0.26,-0.02,-0.048,0.0,9.808,-0.01,0.0,-0.01
1778774729.6719596,-68.76,-0.26,-0.02,-0.049,-0.002,9.809,0.0,0.0,0.0
1778774729.6819718,-68.76,-0.26,-0.03,-0.05,-0.004,9.809,-0.01,-0.01,0.0
1778774729.6919708,-68.76,-0.26,-0.02,-0.05,-0.001,9.809,0.0,-0.01,-0.01
1778774729.7019866,-68.76,-0.26,-0.03,-0.047,-0.005,9.809,-0.01,0.0,-0.01
1778774729.71201,-68.76,-0.26,-0.03,-0.041,-0.004,9.809,0.0,0.0,0.0
1778774729.721998,-68.76,-0.26,-0.03,-0.047,-0.005,9.809,0.0,0.0,0.0
1778774729.7319705,-68.76,-0.26,-0.02,-0.046,-0.002,9.809,0.0,0.0,0.0
1778774729.7419965,-68.76,-0.26,-0.03,-0.046,0.0,9.809,0.0,-0.01,-0.01
1778774729.7519412,-68.76,-0.26,-0.02,-0.04,0.0,9.809,0.0,-0.01,0.0
1778774729.7620175,-68.76,-0.26,-0.03,-0.042,0.001,9.809,0.0,0.0,0.0
1778774729.7719688,-68.76,-0.26,-0.02,-0.046,0.005,9.809,0.0,0.0,0.0
1778774729.7819695,-68.76,-0.26,-0.02,-0.046,0.001,9.809,0.0,0.0,-0.01
1778774729.791998,-68.74,-0.26,-0.02,-0.04,0.0,9.808,0.0,0.0,-0.01
1778774729.8019857,-68.74,-0.26,-0.02,-0.04,0.004,9.808,0.0,0.0,-0.01
1778774729.8119507,-68.76,-0.26,-0.02,-0.037,0.004,9.808,0.0,0.0,0.0
1778774729.8219528,-68.76,-0.26,-0.02,-0.038,0.004,9.808,0.0,-0.01,0.0
1778774729.8319993,-68.76,-0.26,-0.02,-0.035,-0.001,9.808,0.0,-0.01,0.0
1778774729.8424325,-68.76,-0.25,-0.02,-0.037,-0.002,9.809,0.0,-0.01,0.0
1778774729.851985,-68.76,-0.26,-0.02,-0.042,0.0,9.809,0.0,-0.01,-0.01
1778774729.861954,-68.76,-0.26,-0.02,-0.042,0.0,9.809,-0.01,0.0,0.0
1778774729.8719518,-68.76,-0.26,-0.02,-0.044,-0.001,9.809,-0.01,-0.01,-0.01
1778774729.8819563,-68.76,-0.25,-0.02,-0.042,-0.001,9.809,0.0,0.0,-0.01
1778774729.891952,-68.76,-0.25,-0.02,-0.046,-0.001,9.809,-0.01,-0.01,0.0
1778774729.9019544,-68.76,-0.25,-0.02,-0.04,-0.004,9.809,0.0,-0.01,-0.01
1778774729.9119534,-68.76,-0.25,-0.02,-0.038,-0.004,9.809,0.0,-0.01,0.0
1778774729.9219532,-68.76,-0.25,-0.02,-0.037,-0.005,9.809,-0.01,-0.01,0.0
1778774729.9319596,-68.76,-0.25,-0.02,-0.038,-0.006,9.809,0.0,0.0,0.0
1778774729.941954,-68.76,-0.25,-0.02,-0.041,-0.002,9.809,-0.01,0.0,-0.01
1778774729.9519808,-68.76,-0.25,-0.02,-0.047,-0.001,9.809,0.0,0.0,0.0
1778774729.9619517,-68.76,-0.26,-0.03,-0.049,-0.005,9.809,0.0,0.0,0.0
1778774729.9719527,-68.74,-0.26,-0.03,-0.049,-0.001,9.809,-0.01,0.0,0.0
1778774729.9819376,-68.74,-0.26,-0.02,-0.044,0.0,9.809,0.0,0.0,-0.01
1778774729.9919207,-68.74,-0.26,-0.02,-0.046,-0.001,9.809,0.0,-0.01,-0.01
1778774730.0019512,-68.74,-0.26,-0.02,-0.044,-0.001,9.809,0.0,0.0,0.0
1778774730.0119352,-68.74,-0.26,-0.02,-0.049,0.0,9.809,0.0,0.0,-0.01
1778774730.0219176,-68.74,-0.26,-0.02,-0.049,-0.001,9.809,0.0,-0.01,-0.01
1778774730.0319192,-68.74,-0.26,-0.02,-0.046,0.0,9.809,0.0,-0.01,-0.01
1778774730.0419042,-68.74,-0.26,-0.02,-0.042,0.0,9.809,-0.01,0.0,-0.01
1778774730.0518858,-68.74,-0.25,-0.02,-0.042,-0.001,9.809,0.0,-0.01,-0.01
1778774730.061902,-68.74,-0.25,-0.02,-0.044,-0.001,9.809,-0.01,-0.01,-0.01
1778774730.0719666,-68.74,-0.26,-0.02,-0.046,0.001,9.809,-0.01,0.0,0.0
1778774730.0819027,-68.74,-0.26,-0.02,-0.049,0.005,9.809,0.0,0.0,0.0
1778774730.0918958,-68.74,-0.26,-0.02,-0.046,0.001,9.809,0.0,0.0,0.0
1778774730.1019068,-68.74,-0.26,-0.02,-0.044,0.001,9.809,0.0,0.0,0.0
1778774730.11189,-68.74,-0.26,-0.02,-0.048,0.004,9.809,0.0,0.0,-0.01
1778774730.1219225,-68.74,-0.26,-0.02,-0.048,0.007,9.809,0.0,0.0,0.0
1778774730.132334,-68.74,-0.26,-0.02,-0.047,0.006,9.809,0.0,0.0,0.0
1778774730.1418872,-68.74,-0.26,-0.02,-0.047,0.006,9.809,-0.01,-0.01,-0.01
1778774730.151079,-68.76,-0.26,-0.02,-0.047,0.005,9.809,-0.01,0.0,0.0
1778774730.1619043,-68.76,-0.26,-0.02,-0.05,0.007,9.809,0.0,-0.01,0.0
1778774730.1718874,-68.74,-0.26,-0.02,-0.048,0.005,9.809,-0.01,0.0,0.0
1778774730.1818726,-68.74,-0.26,-0.02,-0.044,0.0,9.809,0.0,0.0,-0.01
1778774730.1910794,-68.74,-0.26,-0.02,-0.044,-0.001,9.809,0.0,-0.01,-0.01
1778774730.2010727,-68.74,-0.26,-0.02,-0.047,-0.006,9.809,0.0,0.0,-0.01
1778774730.211904,-68.74,-0.26,-0.02,-0.047,-0.007,9.809,0.0,0.0,-0.01
1778774730.2218888,-68.74,-0.26,-0.02,-0.049,-0.008,9.809,0.0,0.0,-0.01
1778774730.231064,-68.74,-0.26,-0.02,-0.047,-0.006,9.809,0.0,0.0,0.0
1778774730.2410567,-68.74,-0.26,-0.02,-0.042,-0.001,9.809,0.0,-0.01,0.0
1778774730.2518928,-68.74,-0.26,-0.02,-0.046,0.001,9.809,0.0,-0.01,0.0
1778774730.2610295,-68.74,-0.26,-0.02,-0.05,0.002,9.809,0.0,0.0,-0.01
1778774730.271887,-68.74,-0.26,-0.02,-0.05,0.004,9.809,0.0,0.0,0.0
1778774730.2811148,-68.74,-0.26,-0.02,-0.051,0.004,9.809,0.0,0.0,-0.01
1778774730.2910604,-68.74,-0.26,-0.01,-0.053,0.002,9.809,0.0,-0.01,-0.01
1778774730.301056,-68.76,-0.26,-0.01,-0.051,0.001,9.809,0.0,0.0,0.0
1778774730.3110285,-68.76,-0.26,-0.01,-0.049,0.004,9.809,0.0,0.0,0.0
1778774730.3210747,-68.76,-0.26,-0.01,-0.046,-0.002,9.809,-0.01,-0.01,0.0
1778774730.3310254,-68.76,-0.26,-0.02,-0.046,-0.004,9.809,0.0,-0.01,0.0
1778774730.3410358,-68.76,-0.26,-0.02,-0.044,-0.007,9.809,0.0,0.0,0.0
1778774730.3510408,-68.76,-0.26,-0.02,-0.046,-0.008,9.809,0.0,-0.01,0.0
1778774730.3610485,-68.76,-0.26,-0.02,-0.043,-0.005,9.809,-0.01,0.0,-0.01
1778774730.371026,-68.76,-0.26,-0.02,-0.043,-0.004,9.809,0.0,0.0,-0.01
1778774730.3810182,-68.76,-0.26,-0.02,-0.048,-0.002,9.809,0.0,-0.01,-0.01
1778774730.3910277,-68.76,-0.26,-0.02,-0.048,0.0,9.809,-0.01,-0.01,0.0
1778774730.4010007,-68.76,-0.26,-0.02,-0.049,0.002,9.809,0.0,0.0,0.0
1778774730.411044,-68.76,-0.27,-0.02,-0.051,0.002,9.809,-0.01,0.0,0.0
1778774730.4210224,-68.76,-0.27,-0.02,-0.05,0.0,9.809,0.0,0.0,-0.01
1778774730.4309976,-68.76,-0.27,-0.02,-0.049,-0.004,9.809,0.0,0.0,0.0
1778774730.441033,-68.76,-0.27,-0.02,-0.044,-0.005,9.808,0.0,0.0,-0.01
1778774730.4510276,-68.76,-0.26,-0.02,-0.043,-0.008,9.808,0.0,-0.01,0.0
1778774730.4610186,-68.76,-0.26,-0.02,-0.04,-0.007,9.808,-0.01,0.0,-0.01
1778774730.4710102,-68.76,-0.26,-0.02,-0.041,-0.01,9.808,0.0,0.0,-0.01
1778774730.4810073,-68.76,-0.26,-0.02,-0.04,-0.004,9.809,0.0,0.0,0.0
1778774730.4909952,-68.76,-0.26,-0.02,-0.038,-0.002,9.809,0.0,-0.01,-0.01
1778774730.5010257,-68.76,-0.26,-0.02,-0.042,-0.005,9.809,0.0,0.0,-0.01
1778774730.5110288,-68.76,-0.26,-0.02,-0.043,-0.004,9.809,0.0,0.0,0.0
1778774730.5210228,-68.76,-0.26,-0.02,-0.038,-0.001,9.809,0.0,0.0,0.0
1778774730.5310001,-68.76,-0.26,-0.02,-0.036,-0.001,9.809,0.0,0.0,0.0
1778774730.5410225,-68.76,-0.26,-0.02,-0.036,-0.001,9.809,0.0,0.0,0.0
1778774730.5509994,-68.76,-0.26,-0.02,-0.034,-0.004,9.809,0.0,0.0,0.0
1778774730.5610132,-68.76,-0.26,-0.02,-0.031,-0.008,9.809,0.0,-0.01,-0.01
1778774730.5709853,-68.74,-0.26,-0.02,-0.035,-0.005,9.809,0.0,-0.01,-0.01
1778774730.5809999,-68.74,-0.26,-0.02,-0.036,-0.002,9.808,0.0,0.0,-0.01
1778774730.590973,-68.74,-0.26,-0.02,-0.036,-0.004,9.808,0.0,0.0,-0.01
1778774730.6009624,-68.74,-0.26,-0.02,-0.041,-0.002,9.809,0.0,0.0,-0.01
1778774730.6109867,-68.74,-0.26,-0.02,-0.041,0.0,9.809,0.0,-0.01,0.0
1778774730.6209555,-68.74,-0.26,-0.02,-0.037,0.002,9.809,0.0,0.0,-0.01
1778774730.6310017,-68.74,-0.26,-0.02,-0.04,0.004,9.809,0.0,0.0,-0.01
1778774730.6409981,-68.74,-0.26,-0.02,-0.047,0.001,9.809,0.0,0.0,-0.01
1778774730.6509523,-68.74,-0.26,-0.02,-0.044,0.002,9.809,-0.01,0.0,-0.01
1778774730.6609614,-68.74,-0.26,-0.02,-0.05,-0.005,9.809,0.0,-0.01,-0.01
1778774730.670974,-68.74,-0.26,-0.02,-0.049,-0.001,9.809,0.0,-0.01,-0.01
1778774730.6809828,-68.74,-0.26,-0.02,-0.048,-0.002,9.809,0.0,-0.01,0.0
1778774730.6909838,-68.74,-0.26,-0.02,-0.044,-0.004,9.809,0.0,0.0,0.0
1778774730.7009664,-68.74,-0.26,-0.02,-0.04,-0.005,9.809,0.0,0.0,0.0
1778774730.7109604,-68.74,-0.26,-0.02,-0.043,-0.006,9.809,0.0,0.0,-0.01
1778774730.7209864,-68.74,-0.26,-0.02,-0.048,-0.002,9.809,0.0,0.0,0.0
1778774730.7309518,-68.74,-0.26,-0.02,-0.046,-0.004,9.809,0.0,-0.01,0.0
1778774730.7409644,-68.74,-0.26,-0.02,-0.043,-0.001,9.809,-0.01,-0.01,0.0
1778774730.7509525,-68.74,-0.26,-0.02,-0.043,-0.001,9.809,0.0,0.0,-0.01
1778774730.760947,-68.74,-0.26,-0.02,-0.043,-0.001,9.809,-0.01,0.0,0.0
1778774730.7709508,-68.74,-0.26,-0.02,-0.044,0.0,9.809,0.0,0.0,-0.01
1778774730.780965,-68.74,-0.26,-0.02,-0.046,0.004,9.809,0.0,0.0,-0.01
1778774730.7909517,-68.74,-0.26,-0.02,-0.042,0.011,9.809,-0.01,0.0,-0.01
1778774730.8009503,-68.74,-0.26,-0.02,-0.044,0.006,9.809,0.0,-0.01,0.0
1778774730.8109524,-68.74,-0.26,-0.02,-0.046,0.005,9.809,0.0,0.0,-0.01
1778774730.820974,-68.74,-0.26,-0.02,-0.048,0.002,9.809,0.0,0.0,-0.01
1778774730.8309205,-68.74,-0.26,-0.02,-0.047,0.005,9.809,0.0,0.0,0.0
1778774730.8409607,-68.74,-0.26,-0.02,-0.047,0.005,9.809,0.0,0.0,-0.01
1778774730.8509507,-68.74,-0.26,-0.02,-0.049,0.004,9.809,-0.01,0.0,0.0
1778774730.8609164,-68.74,-0.26,-0.02,-0.05,-0.001,9.809,0.0,0.0,0.0
1778774730.871365,-68.74,-0.26,-0.02,-0.044,-0.008,9.809,0.0,-0.01,-0.01
1778774730.880924,-68.74,-0.26,-0.02,-0.049,-0.012,9.809,0.0,-0.01,-0.01
1778774730.890953,-68.74,-0.26,-0.02,-0.044,-0.005,9.809,0.0,0.0,-0.01
1778774730.900931,-68.74,-0.26,-0.02,-0.044,-0.004,9.809,0.0,-0.01,0.0
1778774730.9109085,-68.74,-0.26,-0.02,-0.049,-0.006,9.809,0.0,0.0,0.0
1778774730.9209156,-68.74,-0.26,-0.02,-0.053,-0.005,9.809,-0.01,-0.01,-0.01
1778774730.9308891,-68.74,-0.26,-0.02,-0.054,-0.005,9.809,0.0,0.0,-0.01
1778774730.940964,-68.74,-0.26,-0.02,-0.054,-0.001,9.809,-0.01,0.0,0.0
1778774730.950921,-68.74,-0.26,-0.02,-0.053,-0.002,9.809,0.0,0.0,-0.01
1778774730.960914,-68.74,-0.27,-0.02,-0.051,-0.005,9.809,0.0,0.0,0.0
1778774730.9709053,-68.74,-0.27,-0.02,-0.047,-0.007,9.809,-0.01,0.0,-0.01
1778774730.9808996,-68.74,-0.26,-0.02,-0.049,-0.008,9.809,0.0,0.0,-0.01
1778774730.9901109,-68.74,-0.26,-0.02,-0.049,-0.006,9.809,0.0,-0.01,0.0
1778774731.0009122,-68.74,-0.27,-0.02,-0.048,-0.005,9.809,0.0,0.0,0.0
1778774731.0109088,-68.74,-0.26,-0.02,-0.043,-0.002,9.809,0.0,-0.01,-0.01
1778774731.0209002,-68.74,-0.26,-0.02,-0.043,0.0,9.809,-0.01,-0.01,0.0
1778774731.030891,-68.74,-0.26,-0.02,-0.044,0.001,9.809,0.0,-0.01,-0.01
1778774731.0400712,-68.74,-0.26,-0.02,-0.043,0.0,9.809,0.0,0.0,-0.01
1778774731.0509071,-68.74,-0.26,-0.02,-0.046,-0.004,9.809,0.0,0.0,0.0
1778774731.060895,-68.74,-0.26,-0.02,-0.037,-0.002,9.809,0.0,0.0,-0.01
1778774731.0700586,-68.74,-0.26,-0.02,-0.038,-0.001,9.809,0.0,-0.01,0.0
1778774731.0800295,-68.74,-0.26,-0.02,-0.038,0.0,9.809,0.0,-0.01,0.0
1778774731.0908682,-68.74,-0.26,-0.02,-0.042,0.0,9.809,0.0,0.0,0.0
1778774731.1008842,-68.74,-0.26,-0.02,-0.046,0.002,9.809,0.0,-0.01,-0.01
1778774731.1100328,-68.74,-0.26,-0.01,-0.048,-0.001,9.809,0.0,0.0,0.0
1778774731.1208973,-68.74,-0.26,-0.02,-0.046,-0.001,9.809,0.0,0.0,0.0
1778774731.130075,-68.74,-0.26,-0.02,-0.047,0.0,9.809,0.0,-0.01,-0.01
1778774731.1400294,-68.74,-0.26,-0.01,-0.047,0.001,9.809,0.0,0.0,0.0
1778774731.150053,-68.74,-0.26,-0.01,-0.051,0.006,9.809,0.0,0.0,-0.01
1778774731.1600282,-68.74,-0.26,-0.01,-0.05,0.005,9.809,0.0,-0.01,0.0
1778774731.1700501,-68.74,-0.26,-0.01,-0.05,0.006,9.809,0.0,0.0,-0.01
1778774731.1800308,-68.74,-0.26,-0.01,-0.05,0.008,9.809,0.0,0.0,0.0
1778774731.1900477,-68.74,-0.26,-0.01,-0.047,0.01,9.809,0.0,-0.01,0.0
1778774731.200043,-68.74,-0.26,-0.01,-0.048,0.005,9.809,0.0,-0.01,0.0
1778774731.2100532,-68.74,-0.26,-0.01,-0.046,0.006,9.809,0.0,-0.01,0.0
1778774731.220029,-68.74,-0.26,-0.01,-0.043,0.004,9.809,0.0,-0.01,-0.01
1778774731.230456,-68.74,-0.26,-0.01,-0.04,0.0,9.809,0.0,0.0,-0.01
1778774731.2399855,-68.74,-0.26,-0.01,-0.037,0.001,9.809,-0.01,-0.01,0.0
1778774731.2500083,-68.74,-0.26,-0.02,-0.04,0.001,9.809,-0.01,0.0,0.0
1778774731.2600074,-68.74,-0.26,-0.02,-0.042,0.0,9.809,0.0,-0.01,-0.01
1778774731.2700214,-68.74,-0.26,-0.01,-0.041,-0.004,9.809,0.0,-0.01,0.0
1778774731.2800252,-68.74,-0.26,-0.02,-0.042,-0.002,9.809,0.0,0.0,0.0
1778774731.2900097,-68.74,-0.26,-0.02,-0.042,0.0,9.809,-0.01,0.0,0.0
1778774731.3000116,-68.74,-0.26,-0.02,-0.043,0.0,9.809,-0.01,-0.01,0.0
1778774731.3099856,-68.74,-0.26,-0.02,-0.036,0.001,9.809,0.0,-0.01,0.0
1778774731.3199844,-68.74,-0.26,-0.02,-0.04,0.0,9.809,0.0,-0.01,-0.01
1778774731.3300116,-68.74,-0.26,-0.02,-0.046,-0.002,9.809,0.0,0.0,0.0
1778774731.3400164,-68.74,-0.26,-0.02,-0.046,-0.001,9.809,-0.01,0.0,-0.01
1778774731.3500009,-68.74,-0.26,-0.02,-0.051,-0.007,9.809,-0.01,0.0,0.0
1778774731.359984,-68.74,-0.26,-0.02,-0.05,-0.004,9.808,0.0,-0.01,0.0
1778774731.370011,-68.74,-0.26,-0.02,-0.048,-0.005,9.808,0.0,0.0,0.0
1778774731.3799977,-68.74,-0.26,-0.02,-0.049,-0.001,9.809,0.0,-0.01,0.0
1778774731.3899858,-68.74,-0.26,-0.02,-0.053,-0.001,9.809,0.0,-0.01,0.0
1778774731.3999705,-68.74,-0.26,-0.01,-0.055,-0.005,9.809,-0.01,0.0,0.0
1778774731.4099867,-68.74,-0.26,-0.02,-0.053,-0.004,9.809,0.0,-0.01,-0.01
1778774731.42,-68.74,-0.26,-0.02,-0.056,-0.002,9.809,-0.01,0.0,0.0
1778774731.4299545,-68.74,-0.27,-0.02,-0.053,-0.001,9.809,-0.01,-0.01,-0.01
1778774731.4399676,-68.74,-0.26,-0.02,-0.056,-0.005,9.809,-0.01,-0.01,-0.01
1778774731.449955,-68.74,-0.26,-0.02,-0.054,-0.001,9.809,0.0,-0.01,-0.01
1778774731.4599504,-68.74,-0.27,-0.02,-0.051,0.0,9.809,0.0,-0.01,-0.01
1778774731.4699867,-68.74,-0.27,-0.02,-0.05,-0.002,9.809,0.0,0.0,-0.01
1778774731.4799857,-68.74,-0.27,-0.02,-0.049,-0.005,9.809,0.0,-0.01,-0.01
1778774731.489968,-68.74,-0.27,-0.02,-0.051,-0.006,9.809,0.0,0.0,-0.01
1778774731.499951,-68.74,-0.27,-0.02,-0.053,-0.01,9.809,-0.01,0.0,0.0
1778774731.5100026,-68.74,-0.27,-0.02,-0.046,-0.007,9.809,0.0,-0.01,0.0
1778774731.5199692,-68.74,-0.27,-0.02,-0.04,-0.007,9.809,0.0,0.0,0.0
1778774731.5299528,-68.74,-0.27,-0.02,-0.038,-0.006,9.809,0.0,0.0,0.0
1778774731.5400014,-68.74,-0.26,-0.02,-0.046,-0.01,9.809,0.0,-0.01,0.0
1778774731.5499878,-68.74,-0.27,-0.02,-0.044,-0.002,9.809,0.0,0.0,-0.01
1778774731.5599499,-68.74,-0.27,-0.02,-0.046,0.0,9.809,0.0,-0.01,0.0
1778774731.5699546,-68.74,-0.27,-0.02,-0.044,-0.001,9.809,0.0,0.0,-0.01
1778774731.5799196,-68.74,-0.26,-0.02,-0.046,0.0,9.809,0.0,-0.01,0.0
1778774731.589955,-68.74,-0.27,-0.02,-0.046,0.0,9.809,0.0,-0.01,-0.01
1778774731.5999515,-68.74,-0.27,-0.02,-0.044,0.004,9.809,-0.01,0.0,-0.01
1778774731.6099548,-68.74,-0.27,-0.02,-0.043,0.001,9.809,0.0,0.0,-0.01
1778774731.6199384,-68.74,-0.27,-0.02,-0.044,0.0,9.809,0.0,0.0,0.0
1778774731.6299553,-68.74,-0.27,-0.02,-0.043,0.0,9.809,0.0,0.0,0.0
1778774731.6399238,-68.74,-0.27,-0.02,-0.046,0.0,9.809,0.0,0.0,-0.01
1778774731.6499255,-68.74,-0.26,-0.02,-0.041,-0.001,9.809,0.0,-0.01,-0.01
1778774731.6599302,-68.74,-0.26,-0.02,-0.043,-0.002,9.809,0.0,-0.01,-0.01
1778774731.6699572,-68.74,-0.26,-0.02,-0.04,0.001,9.809,0.0,-0.01,0.0
1778774731.6799555,-68.74,-0.26,-0.02,-0.038,-0.004,9.808,0.0,0.0,-0.01
1778774731.690337,-68.74,-0.26,-0.02,-0.038,-0.004,9.808,0.0,0.0,-0.01
1778774731.6999228,-68.74,-0.26,-0.02,-0.043,-0.002,9.808,0.0,0.0,-0.01
1778774731.709943,-68.74,-0.26,-0.02,-0.041,-0.004,9.809,0.0,-0.01,0.0
1778774731.7199094,-68.74,-0.26,-0.02,-0.043,-0.001,9.809,0.0,-0.01,-0.01
1778774731.7299063,-68.74,-0.26,-0.02,-0.043,0.002,9.809,0.0,-0.01,-0.01
1778774731.7399564,-68.74,-0.26,-0.02,-0.044,-0.001,9.809,0.0,0.0,0.0
1778774731.7499266,-68.74,-0.26,-0.02,-0.038,-0.007,9.809,-0.01,0.0,0.0
1778774731.7599065,-68.74,-0.26,-0.02,-0.04,-0.004,9.809,-0.01,-0.01,0.0
1778774731.7699187,-68.74,-0.26,-0.02,-0.038,-0.006,9.809,-0.01,0.0,0.0
1778774731.7798886,-68.74,-0.26,-0.02,-0.042,-0.006,9.809,0.0,0.0,-0.01
1778774731.7899466,-68.74,-0.26,-0.02,-0.046,-0.002,9.809,0.0,0.0,-0.01
1778774731.7999277,-68.74,-0.26,-0.02,-0.048,-0.002,9.809,0.0,-0.01,0.0
1778774731.8099086,-68.74,-0.26,-0.02,-0.047,0.002,9.809,0.0,0.0,-0.01
1778774731.8207667,-68.74,-0.26,-0.02,-0.044,0.005,9.809,0.0,-0.01,0.0
1778774731.83077,-68.74,-0.26,-0.02,-0.048,0.001,9.808,0.0,-0.01,0.0
1778774731.8406017,-68.74,-0.26,-0.02,-0.048,0.001,9.806,0.0,-0.01,0.0
1778774731.8491912,-68.74,-0.26,-0.02,-0.05,0.0,9.808,0.0,0.0,-0.01
1778774731.8599179,-68.74,-0.26,-0.02,-0.042,-0.001,9.808,0.0,0.0,-0.01
1778774731.8698921,-68.74,-0.26,-0.02,-0.044,-0.005,9.808,0.0,0.0,0.0
1778774731.8798769,-68.74,-0.26,-0.02,-0.047,-0.004,9.809,0.0,0.0,0.0
1778774731.8890777,-68.74,-0.26,-0.02,-0.048,-0.005,9.809,-0.01,0.0,0.0
1778774731.899907,-68.74,-0.26,-0.02,-0.048,-0.005,9.809,0.0,-0.01,0.0
1778774731.9098847,-68.76,-0.26,-0.02,-0.05,0.0,9.809,0.0,-0.01,0.0
1778774731.9190876,-68.74,-0.26,-0.02,-0.049,0.002,9.809,-0.01,0.0,0.0
1778774731.9290783,-68.74,-0.26,-0.02,-0.048,0.002,9.809,0.0,-0.01,-0.01
1778774731.9390695,-68.74,-0.26,-0.02,-0.044,0.004,9.809,0.0,-0.01,-0.01
1778774731.9494617,-68.74,-0.26,-0.02,-0.038,0.001,9.809,-0.01,0.0,0.0
1778774731.9590514,-68.74,-0.26,-0.02,-0.038,0.004,9.809,0.0,0.0,-0.01
1778774731.9698822,-68.74,-0.26,-0.02,-0.046,-0.005,9.809,0.0,0.0,-0.01
1778774731.9790697,-68.74,-0.26,-0.02,-0.044,-0.006,9.809,0.0,0.0,0.0
1778774731.9890714,-68.74,-0.26,-0.02,-0.043,-0.005,9.809,0.0,-0.01,-0.01
1778774731.9990697,-68.74,-0.26,-0.02,-0.046,-0.006,9.809,0.0,0.0,-0.01
1778774732.0090337,-68.74,-0.26,-0.02,-0.042,0.0,9.809,0.0,0.0,-0.01
1778774732.0190334,-68.74,-0.26,-0.02,-0.038,0.006,9.809,0.0,0.0,0.0
1778774732.029059,-68.74,-0.26,-0.02,-0.042,0.001,9.809,0.0,0.0,0.0
1778774732.0390422,-68.74,-0.26,-0.02,-0.042,0.0,9.809,-0.01,-0.01,-0.01
1778774732.0491152,-68.74,-0.26,-0.02,-0.041,-0.002,9.809,0.0,0.0,0.0
1778774732.059049,-68.74,-0.26,-0.02,-0.046,-0.004,9.809,-0.01,0.0,0.0
1778774732.069019,-68.74,-0.26,-0.02,-0.049,-0.004,9.809,0.0,0.0,0.0
1778774732.0790298,-68.76,-0.26,-0.02,-0.042,-0.004,9.809,0.0,0.0,-0.01
1778774732.089028,-68.76,-0.26,-0.02,-0.042,0.0,9.808,0.0,0.0,0.0
1778774732.099014,-68.76,-0.27,-0.02,-0.043,-0.005,9.809,0.0,0.0,-0.01
1778774732.1090117,-68.74,-0.26,-0.02,-0.042,-0.006,9.809,0.0,0.0,0.0
1778774732.119001,-68.74,-0.26,-0.02,-0.042,-0.004,9.809,0.0,-0.01,-0.01
1778774732.129036,-68.74,-0.27,-0.02,-0.042,-0.002,9.809,0.0,0.0,-0.01
1778774732.139401,-68.74,-0.26,-0.02,-0.047,-0.005,9.809,0.0,-0.01,0.0
1778774732.1490438,-68.74,-0.26,-0.02,-0.051,-0.002,9.809,0.0,-0.01,-0.01
1778774732.1590147,-68.74,-0.27,-0.02,-0.049,-0.002,9.809,-0.01,0.0,-0.01
1778774732.1690183,-68.74,-0.27,-0.02,-0.041,-0.008,9.806,-0.01,0.0,-0.01
1778774732.1789877,-68.74,-0.27,-0.02,-0.042,-0.004,9.808,0.0,0.0,0.0
1778774732.1889863,-68.74,-0.27,-0.02,-0.044,-0.005,9.808,0.0,-0.01,0.0
1778774732.199014,-68.74,-0.27,-0.02,-0.038,-0.004,9.808,0.0,0.0,-0.01
1778774732.2090228,-68.74,-0.27,-0.02,-0.041,0.0,9.809,0.0,-0.01,0.0
1778774732.2189867,-68.74,-0.27,-0.02,-0.043,-0.001,9.809,0.0,-0.01,0.0
1778774732.2289932,-68.74,-0.26,-0.02,-0.042,-0.005,9.809,0.0,-0.01,-0.01
1778774732.2389853,-68.74,-0.26,-0.02,-0.044,-0.001,9.809,0.0,-0.01,-0.01
1778774732.2489963,-68.74,-0.26,-0.02,-0.043,-0.001,9.809,-0.01,0.0,0.0
1778774732.2589993,-68.74,-0.26,-0.02,-0.043,-0.001,9.809,0.0,-0.01,0.0
1778774732.2690096,-68.74,-0.26,-0.02,-0.035,-0.004,9.809,0.0,-0.01,0.0
1778774732.2789693,-68.74,-0.26,-0.02,-0.032,-0.001,9.809,0.0,0.0,-0.01
1778774732.2889795,-68.74,-0.26,-0.02,-0.037,-0.001,9.806,0.0,-0.01,-0.01
1778774732.298969,-68.74,-0.26,-0.02,-0.043,-0.008,9.806,0.0,-0.01,-0.01
1778774732.308979,-68.74,-0.26,-0.02,-0.046,-0.011,9.808,0.0,-0.01,0.0
1778774732.3189414,-68.74,-0.26,-0.02,-0.046,-0.007,9.808,0.0,0.0,0.0
1778774732.328948,-68.74,-0.26,-0.02,-0.042,-0.004,9.808,-0.01,0.0,-0.01
1778774732.3389995,-68.74,-0.26,-0.02,-0.038,-0.004,9.808,0.0,0.0,0.0
1778774732.3494663,-68.74,-0.26,-0.02,-0.034,0.0,9.809,0.0,-0.01,-0.01
1778774732.359414,-68.74,-0.26,-0.02,-0.035,0.0,9.809,0.0,-0.01,-0.01
1778774732.3689647,-68.74,-0.26,-0.02,-0.037,0.002,9.809,0.0,-0.01,0.0
1778774732.3789554,-68.74,-0.26,-0.02,-0.035,-0.001,9.809,-0.01,-0.01,0.0
1778774732.3889945,-68.74,-0.26,-0.02,-0.037,0.0,9.809,0.0,-0.01,0.0
1778774732.398956,-68.74,-0.26,-0.02,-0.037,0.0,9.809,0.0,0.0,-0.01
1778774732.4089568,-68.74,-0.26,-0.02,-0.043,-0.005,9.809,0.0,0.0,-0.01
1778774732.4189615,-68.74,-0.26,-0.02,-0.04,0.001,9.809,0.0,-0.01,0.0
1778774732.4289656,-68.74,-0.26,-0.02,-0.046,-0.001,9.805,0.0,0.0,0.0
1778774732.4389517,-68.74,-0.26,-0.02,-0.047,-0.002,9.806,-0.01,0.0,0.0
1778774732.448933,-68.74,-0.26,-0.02,-0.048,0.0,9.808,0.0,0.0,-0.01
1778774732.4589531,-68.74,-0.26,-0.02,-0.046,0.0,9.808,0.0,-0.01,0.0
1778774732.4689658,-68.74,-0.26,-0.02,-0.048,0.002,9.808,0.0,0.0,-0.01
1778774732.4789379,-68.74,-0.26,-0.02,-0.049,0.004,9.808,0.0,0.0,-0.01
1778774732.4889634,-68.74,-0.26,-0.02,-0.05,0.002,9.808,0.0,0.0,-0.01
1778774732.498953,-68.74,-0.26,-0.02,-0.049,-0.005,9.808,0.0,-0.01,-0.01
1778774732.5089633,-68.74,-0.26,-0.02,-0.048,0.0,9.809,0.0,-0.01,-0.01
1778774732.518923,-68.74,-0.26,-0.02,-0.048,0.0,9.809,0.0,-0.01,0.0
1778774732.528964,-68.74,-0.26,-0.02,-0.049,-0.002,9.809,0.0,0.0,-0.01
1778774732.538955,-68.74,-0.26,-0.02,-0.047,-0.004,9.809,0.0,0.0,0.0
1778774732.548947,-68.74,-0.26,-0.02,-0.046,-0.007,9.808,-0.01,0.0,0.0
1778774732.55894,-68.74,-0.26,-0.02,-0.042,-0.006,9.809,-0.01,0.0,-0.01
1778774732.568927,-68.74,-0.26,-0.02,-0.04,-0.007,9.809,0.0,-0.01,0.0
1778774732.5789564,-68.74,-0.26,-0.02,-0.04,-0.004,9.809,0.0,0.0,0.0
1778774732.5889447,-68.74,-0.26,-0.02,-0.041,-0.001,9.809,-0.01,0.0,0.0
1778774732.5989053,-68.74,-0.26,-0.02,-0.037,0.0,9.809,0.0,0.0,-0.01
1778774732.6089318,-68.74,-0.26,-0.02,-0.043,0.002,9.809,0.0,0.0,0.0
1778774732.6188884,-68.74,-0.26,-0.02,-0.046,0.0,9.809,0.0,0.0,0.0
1778774732.6289468,-68.74,-0.26,-0.02,-0.049,-0.002,9.809,0.0,-0.01,0.0
1778774732.6389215,-68.74,-0.26,-0.02,-0.047,-0.005,9.809,0.0,0.0,-0.01
1778774732.6489162,-68.74,-0.26,-0.02,-0.05,-0.011,9.809,0.0,0.0,0.0
1778774732.6588883,-68.76,-0.26,-0.02,-0.049,-0.011,9.809,0.0,0.0,0.0
1778774732.6689289,-68.76,-0.26,-0.02,-0.05,-0.01,9.809,0.0,0.0,0.0
1778774732.678927,-68.74,-0.26,-0.02,-0.048,-0.008,9.809,0.0,0.0,-0.01
1778774732.688915,-68.74,-0.26,-0.02,-0.05,-0.007,9.809,0.0,0.0,-0.01
1778774732.698872,-68.74,-0.26,-0.02,-0.049,-0.005,9.809,0.0,0.0,0.0
1778774732.708897,-68.76,-0.26,-0.02,-0.047,-0.001,9.805,-0.01,-0.01,0.0
1778774732.7189167,-68.76,-0.26,-0.02,-0.041,0.0,9.806,0.0,0.0,0.0
1778774732.728948,-68.76,-0.26,-0.02,-0.037,0.0,9.808,-0.01,-0.01,0.0
1778774732.739314,-68.76,-0.26,-0.02,-0.04,-0.002,9.808,0.0,-0.01,0.0
1778774732.748492,-68.76,-0.26,-0.02,-0.049,0.0,9.808,0.0,-0.01,0.0
1778774732.7588842,-68.76,-0.26,-0.02,-0.055,0.0,9.808,0.0,0.0,0.0
1778774732.7680588,-68.76,-0.26,-0.02,-0.05,0.0,9.808,-0.01,0.0,0.0
1778774732.7780318,-68.76,-0.26,-0.02,-0.054,0.0,9.808,0.0,-0.01,0.0
1778774732.7888978,-68.76,-0.26,-0.02,-0.053,0.0,9.808,0.0,0.0,0.0
1778774732.7988677,-68.76,-0.26,-0.02,-0.05,-0.001,9.809,-0.01,0.0,0.0
1778774732.8080306,-68.76,-0.26,-0.02,-0.05,-0.002,9.809,0.0,0.0,0.0
1778774732.8180318,-68.76,-0.26,-0.02,-0.048,0.001,9.809,-0.01,0.0,-0.01
1778774732.82805,-68.76,-0.26,-0.02,-0.046,0.004,9.809,-0.01,0.0,-0.01
1778774732.8388844,-68.76,-0.26,-0.02,-0.044,0.001,9.809,-0.01,0.0,0.0
1778774732.8480458,-68.76,-0.27,-0.02,-0.042,0.002,9.809,0.0,0.0,-0.01
1778774732.8580306,-68.76,-0.27,-0.02,-0.044,0.0,9.809,-0.01,0.0,-0.01
1778774732.8680365,-68.76,-0.27,-0.02,-0.048,0.0,9.809,-0.01,-0.01,0.0
1778774732.8780339,-68.76,-0.27,-0.02,-0.047,0.0,9.809,0.0,-0.01,0.0
1778774732.8880634,-68.76,-0.27,-0.02,-0.043,0.0,9.809,0.0,0.0,-0.01
1778774732.8980536,-68.76,-0.26,-0.02,-0.044,-0.004,9.809,0.0,0.0,0.0
1778774732.9080317,-68.76,-0.26,-0.02,-0.041,-0.004,9.809,-0.01,0.0,0.0
1778774732.9180684,-68.76,-0.26,-0.02,-0.042,-0.002,9.809,0.0,0.0,0.0
1778774732.9280317,-68.76,-0.27,-0.02,-0.044,-0.005,9.809,0.0,0.0,0.0
1778774732.9380143,-68.76,-0.27,-0.02,-0.046,-0.002,9.809,0.0,0.0,-0.01
1778774732.9480302,-68.76,-0.26,-0.02,-0.044,-0.001,9.809,0.0,-0.01,0.0
1778774732.9580023,-68.76,-0.26,-0.02,-0.043,0.0,9.809,0.0,-0.01,0.0
1778774732.96803,-68.76,-0.26,-0.02,-0.038,-0.004,9.809,0.0,-0.01,0.0
1778774732.9780111,-68.76,-0.26,-0.02,-0.04,-0.011,9.809,-0.01,-0.01,0.0
1778774732.9880157,-68.76,-0.26,-0.02,-0.036,-0.008,9.809,0.0,-0.01,0.0
1778774732.9980173,-68.76,-0.26,-0.02,-0.034,-0.011,9.809,0.0,-0.01,0.0
1778774733.0080132,-68.76,-0.26,-0.02,-0.037,-0.007,9.809,0.0,-0.01,-0.01
1778774733.0180092,-68.76,-0.26,-0.02,-0.042,-0.008,9.809,0.0,0.0,-0.01
1778774733.0279891,-68.76,-0.26,-0.02,-0.046,-0.006,9.809,-0.01,0.0,-0.01
1778774733.0379746,-68.76,-0.26,-0.02,-0.042,-0.005,9.809,0.0,0.0,-0.01
1778774733.0479836,-68.76,-0.26,-0.02,-0.043,-0.007,9.809,-0.01,-0.01,0.0
1778774733.0579753,-68.76,-0.26,-0.02,-0.043,-0.004,9.809,-0.01,0.0,-0.01
1778774733.0679798,-68.76,-0.26,-0.02,-0.046,-0.005,9.809,0.0,-0.01,-0.01
1778774733.0779855,-68.76,-0.26,-0.02,-0.05,-0.006,9.809,-0.01,0.0,0.0
1778774733.0884626,-68.76,-0.26,-0.02,-0.053,-0.007,9.809,0.0,0.0,0.0
1778774733.0979755,-68.76,-0.27,-0.03,-0.054,-0.007,9.809,0.0,-0.01,0.0
1778774733.1080225,-68.76,-0.27,-0.03,-0.056,-0.005,9.809,-0.01,0.0,0.0
1778774733.1180084,-68.76,-0.27,-0.03,-0.055,-0.006,9.809,-0.01,0.0,0.0
1778774733.1280048,-68.76,-0.27,-0.03,-0.051,-0.007,9.806,0.0,-0.01,-0.01
1778774733.1380057,-68.76,-0.27,-0.03,-0.05,-0.008,9.808,0.0,-0.01,0.0
1778774733.1479733,-68.76,-0.27,-0.03,-0.047,-0.01,9.808,0.0,0.0,0.0
1778774733.1579573,-68.76,-0.27,-0.03,-0.047,-0.006,9.808,0.0,-0.01,0.0
1778774733.167959,-68.76,-0.27,-0.03,-0.043,-0.005,9.808,-0.01,-0.01,0.0
1778774733.1779695,-68.76,-0.27,-0.03,-0.041,-0.004,9.809,0.0,0.0,0.0
1778774733.188002,-68.76,-0.26,-0.02,-0.043,-0.007,9.809,0.0,0.0,0.0
1778774733.1979883,-68.76,-0.27,-0.03,-0.046,-0.008,9.809,0.0,-0.01,0.0
1778774733.207956,-68.76,-0.27,-0.03,-0.048,-0.004,9.809,0.0,0.0,0.0
1778774733.2179873,-68.76,-0.26,-0.02,-0.05,0.0,9.809,0.0,0.0,0.0
1778774733.2279541,-68.76,-0.26,-0.02,-0.051,-0.001,9.809,0.0,0.0,0.0
1778774733.2379565,-68.76,-0.27,-0.03,-0.047,-0.002,9.809,0.0,0.0,0.0
1778774733.2479546,-68.76,-0.27,-0.03,-0.042,0.0,9.809,-0.01,-0.01,0.0
1778774733.2579727,-68.76,-0.26,-0.02,-0.036,0.001,9.809,0.0,0.0,0.0
1778774733.2679565,-68.76,-0.26,-0.02,-0.04,-0.001,9.809,0.0,0.0,0.0
1778774733.277956,-68.76,-0.26,-0.02,-0.041,-0.007,9.808,0.0,-0.01,0.0
1778774733.2879703,-68.76,-0.26,-0.02,-0.038,-0.007,9.809,0.0,0.0,-0.01
1778774733.2979684,-68.76,-0.26,-0.02,-0.041,-0.006,9.806,-0.01,0.0,0.0
1778774733.3079538,-68.76,-0.26,-0.02,-0.042,-0.007,9.808,0.0,0.0,-0.01
1778774733.317955,-68.76,-0.26,-0.02,-0.043,-0.01,9.808,0.0,-0.01,-0.01
1778774733.327952,-68.76,-0.26,-0.02,-0.044,-0.013,9.808,0.0,0.0,-0.01
1778774733.3379648,-68.76,-0.26,-0.02,-0.044,-0.013,9.808,-0.01,0.0,0.0
1778774733.3479555,-68.76,-0.26,-0.02,-0.043,-0.01,9.809,-0.01,0.0,-0.01
1778774733.3583472,-68.76,-0.26,-0.02,-0.044,-0.004,9.809,0.0,0.0,-0.01
1778774733.3679533,-68.76,-0.26,-0.02,-0.047,-0.002,9.809,0.0,0.0,-0.01
1778774733.3779724,-68.76,-0.27,-0.03,-0.044,-0.002,9.808,-0.01,0.0,-0.01
1778774733.3879583,-68.76,-0.27,-0.03,-0.044,-0.004,9.808,-0.01,0.0,0.0
1778774733.39793,-68.76,-0.27,-0.03,-0.043,-0.001,9.808,0.0,0.0,0.0
1778774733.407957,-68.76,-0.27,-0.03,-0.046,0.001,9.809,0.0,0.0,0.0
1778774733.417926,-68.76,-0.27,-0.03,-0.047,0.001,9.809,0.0,0.0,0.0
1778774733.4279063,-68.76,-0.26,-0.02,-0.047,0.004,9.809,0.0,-0.01,0.0
1778774733.4379272,-68.76,-0.26,-0.02,-0.053,0.001,9.809,0.0,-0.01,-0.01
1778774733.4479063,-68.76,-0.26,-0.02,-0.054,0.006,9.809,0.0,0.0,-0.01
1778774733.4578936,-68.76,-0.27,-0.02,-0.048,0.005,9.809,0.0,0.0,-0.01
1778774733.467937,-68.76,-0.27,-0.02,-0.049,0.002,9.809,0.0,0.0,-0.01
1778774733.4779282,-68.76,-0.27,-0.02,-0.047,0.001,9.809,-0.01,0.0,-0.01
1778774733.487888,-68.76,-0.27,-0.02,-0.046,-0.004,9.809,0.0,0.0,0.0
1778774733.49794,-68.76,-0.27,-0.02,-0.047,-0.004,9.809,0.0,0.0,0.0
1778774733.5079043,-68.76,-0.27,-0.02,-0.044,-0.002,9.809,0.0,0.0,0.0
1778774733.517891,-68.76,-0.27,-0.02,-0.046,-0.001,9.809,-0.01,0.0,0.0
1778774733.5279217,-68.76,-0.27,-0.02,-0.041,-0.002,9.809,0.0,0.0,0.0
1778774733.5379093,-68.76,-0.27,-0.02,-0.041,-0.006,9.809,0.0,0.0,-0.01
1778774733.548386,-68.76,-0.27,-0.02,-0.04,-0.001,9.809,0.0,0.0,-0.01
1778774733.5570927,-68.76,-0.27,-0.02,-0.038,0.001,9.809,0.0,-0.01,0.0
1778774733.5679111,-68.76,-0.27,-0.02,-0.038,0.002,9.809,0.0,0.0,-0.01
1778774733.577925,-68.76,-0.27,-0.02,-0.041,0.004,9.809,-0.01,0.0,-0.01
1778774733.5870957,-68.76,-0.27,-0.02,-0.042,0.002,9.809,0.0,0.0,0.0
1778774733.597062,-68.76,-0.27,-0.02,-0.043,0.002,9.809,0.0,-0.01,0.0
1778774733.6078885,-68.76,-0.27,-0.02,-0.044,-0.001,9.809,0.0,0.0,0.0
1778774733.61706,-68.76,-0.27,-0.02,-0.043,0.0,9.809,0.0,0.0,0.0
1778774733.6270516,-68.76,-0.27,-0.02,-0.042,0.0,9.809,-0.01,0.0,-0.01
1778774733.63707,-68.76,-0.27,-0.02,-0.037,0.0,9.809,0.0,0.0,0.0
1778774733.6470275,-68.76,-0.27,-0.02,-0.035,0.0,9.809,0.0,0.0,0.0
1778774733.6570563,-68.76,-0.27,-0.02,-0.036,0.002,9.809,0.0,-0.01,-0.01
1778774733.6670685,-68.76,-0.26,-0.01,-0.036,0.004,9.809,0.0,-0.01,0.0
1778774733.6771088,-68.76,-0.26,-0.01,-0.036,0.006,9.809,-0.01,-0.01,-0.01
1778774733.6870322,-68.76,-0.26,-0.01,-0.04,0.0,9.809,0.0,-0.01,0.0
1778774733.6970594,-68.76,-0.26,-0.01,-0.041,0.001,9.809,0.0,-0.01,-0.01
1778774733.7070265,-68.76,-0.26,-0.01,-0.042,0.0,9.809,0.0,0.0,-0.01
1778774733.717059,-68.76,-0.26,-0.01,-0.043,0.0,9.809,0.0,-0.01,0.0
1778774733.7270699,-68.76,-0.26,-0.02,-0.044,-0.002,9.809,-0.01,-0.01,-0.01
1778774733.7370567,-68.76,-0.26,-0.02,-0.049,-0.004,9.808,0.0,0.0,0.0
1778774733.7470362,-68.76,-0.26,-0.01,-0.044,-0.005,9.809,-0.01,-0.01,-0.01
1778774733.7570283,-68.76,-0.26,-0.02,-0.046,-0.011,9.809,0.0,0.0,-0.01
1778774733.7670178,-68.76,-0.26,-0.02,-0.046,-0.006,9.809,0.0,-0.01,-0.01
1778774733.7770286,-68.76,-0.26,-0.02,-0.048,-0.005,9.809,0.0,-0.01,-0.01
1778774733.7870185,-68.76,-0.26,-0.02,-0.05,-0.007,9.809,-0.01,-0.01,-0.01
1778774733.79702,-68.76,-0.26,-0.02,-0.051,-0.001,9.809,0.0,0.0,-0.01
1778774733.807,-68.76,-0.26,-0.01,-0.051,0.004,9.809,0.0,-0.01,0.0
1778774733.8170214,-68.76,-0.26,-0.01,-0.056,0.001,9.809,0.0,0.0,0.0
1778774733.8270311,-68.76,-0.26,-0.01,-0.059,0.004,9.809,0.0,-0.01,0.0
1778774733.837038,-68.76,-0.26,-0.01,-0.057,0.004,9.809,-0.01,0.0,-0.01
1778774733.8470016,-68.76,-0.26,-0.01,-0.057,0.002,9.809,0.0,-0.01,-0.01
1778774733.8570106,-68.76,-0.26,-0.01,-0.055,0.001,9.809,0.0,0.0,0.0
1778774733.867015,-68.76,-0.26,-0.01,-0.051,-0.001,9.809,0.0,0.0,0.0
1778774733.8770392,-68.76,-0.26,-0.01,-0.053,-0.004,9.809,0.0,-0.01,-0.01
1778774733.8870158,-68.76,-0.27,-0.02,-0.051,-0.01,9.809,0.0,-0.01,-0.01
1778774733.8970034,-68.76,-0.27,-0.02,-0.049,-0.011,9.809,0.0,0.0,0.0
1778774733.906986,-68.76,-0.27,-0.02,-0.048,-0.006,9.809,0.0,0.0,-0.01
1778774733.9169908,-68.76,-0.27,-0.02,-0.047,-0.01,9.809,0.0,-0.01,0.0
1778774733.9270148,-68.76,-0.27,-0.02,-0.046,-0.008,9.809,0.0,0.0,0.0
1778774733.9370062,-68.76,-0.27,-0.02,-0.043,-0.006,9.809,0.0,0.0,0.0
1778774733.9469872,-68.76,-0.27,-0.02,-0.043,-0.005,9.809,0.0,-0.01,-0.01
1778774733.9570084,-68.76,-0.27,-0.02,-0.041,-0.006,9.809,-0.01,0.0,0.0
1778774733.966986,-68.76,-0.27,-0.02,-0.037,-0.005,9.809,-0.01,0.0,-0.01
1778774733.9769874,-68.76,-0.27,-0.02,-0.036,-0.005,9.809,0.0,-0.01,0.0
1778774733.986958,-68.76,-0.27,-0.02,-0.036,0.002,9.809,0.0,0.0,-0.01
1778774733.9970107,-68.76,-0.27,-0.02,-0.042,0.0,9.809,0.0,0.0,0.0
1778774734.0069847,-68.76,-0.27,-0.02,-0.042,0.0,9.809,0.0,0.0,-0.01
1778774734.0169625,-68.76,-0.27,-0.02,-0.046,0.0,9.809,0.0,0.0,0.0
1778774734.0269861,-68.76,-0.27,-0.02,-0.044,0.0,9.809,-0.01,0.0,0.0
1778774734.0369687,-68.76,-0.27,-0.02,-0.047,-0.001,9.809,0.0,0.0,0.0
1778774734.046994,-68.76,-0.27,-0.02,-0.049,0.0,9.809,-0.01,0.0,0.0
1778774734.0569954,-68.76,-0.27,-0.02,-0.051,0.001,9.809,-0.01,-0.01,0.0
1778774734.0669897,-68.76,-0.27,-0.02,-0.054,-0.002,9.809,0.0,0.0,-0.01
1778774734.0769708,-68.76,-0.27,-0.02,-0.05,-0.002,9.809,0.0,0.0,-0.01
1778774734.0869718,-68.76,-0.27,-0.02,-0.054,-0.006,9.809,0.0,-0.01,-0.01
1778774734.0969648,-68.76,-0.27,-0.02,-0.054,-0.008,9.809,0.0,0.0,-0.01
1778774734.1069567,-68.76,-0.27,-0.02,-0.054,-0.01,9.809,0.0,0.0,-0.01
1778774734.1169658,-68.76,-0.27,-0.02,-0.057,-0.01,9.809,-0.01,0.0,-0.01
1778774734.1269584,-68.76,-0.27,-0.02,-0.053,-0.007,9.809,-0.01,0.0,0.0
1778774734.1369991,-68.76,-0.27,-0.02,-0.055,-0.01,9.809,-0.01,-0.01,0.0
1778774734.1474106,-68.76,-0.28,-0.02,-0.049,-0.004,9.809,0.0,-0.01,0.0
1778774734.1574078,-68.76,-0.27,-0.02,-0.048,-0.006,9.809,0.0,0.0,0.0
1778774734.1669588,-68.76,-0.27,-0.02,-0.047,-0.007,9.809,0.0,0.0,-0.01
1778774734.1769829,-68.76,-0.27,-0.02,-0.044,-0.008,9.809,-0.01,-0.01,-0.01
1778774734.1873615,-68.76,-0.27,-0.02,-0.042,-0.004,9.809,0.0,-0.01,0.0
1778774734.1969714,-68.76,-0.27,-0.02,-0.044,-0.004,9.809,0.0,-0.01,-0.01
1778774734.2069564,-68.76,-0.27,-0.02,-0.046,-0.004,9.809,-0.01,-0.01,0.0
1778774734.2169638,-68.76,-0.27,-0.02,-0.047,0.0,9.809,-0.01,0.0,-0.01
1778774734.2269385,-68.76,-0.27,-0.02,-0.048,-0.001,9.809,0.0,0.0,-0.01
1778774734.2369013,-68.76,-0.27,-0.02,-0.046,0.0,9.809,0.0,0.0,0.0
1778774734.2469578,-68.76,-0.27,-0.02,-0.048,0.0,9.809,-0.01,-0.01,0.0
1778774734.2569299,-68.76,-0.27,-0.02,-0.047,0.0,9.809,0.0,-0.01,0.0
1778774734.266908,-68.76,-0.27,-0.02,-0.047,0.0,9.806,0.0,0.0,-0.01
1778774734.2769125,-68.76,-0.27,-0.02,-0.048,0.001,9.808,-0.01,-0.01,-0.01
1778774734.286909,-68.76,-0.27,-0.02,-0.047,-0.001,9.808,0.0,0.0,-0.01
1778774734.2969463,-68.76,-0.27,-0.02,-0.048,-0.006,9.808,0.0,0.0,0.0
1778774734.3069232,-68.76,-0.27,-0.02,-0.048,-0.004,9.808,0.0,0.0,-0.01
1778774734.3169122,-68.76,-0.27,-0.02,-0.049,-0.001,9.809,0.0,0.0,0.0
1778774734.326907,-68.76,-0.27,-0.02,-0.047,-0.002,9.809,-0.01,0.0,0.0
1778774734.3369007,-68.76,-0.27,-0.03,-0.049,-0.001,9.809,0.0,-0.01,0.0
1778774734.346925,-68.76,-0.27,-0.03,-0.047,-0.005,9.808,0.0,0.0,0.0
1778774734.3569157,-68.76,-0.27,-0.03,-0.044,-0.005,9.809,0.0,-0.01,0.0
1778774734.3669064,-68.76,-0.27,-0.03,-0.042,-0.001,9.809,0.0,0.0,-0.01
1778774734.376901,-68.76,-0.27,-0.02,-0.04,0.002,9.805,0.0,-0.01,-0.01
1778774734.3860705,-68.76,-0.27,-0.02,-0.044,0.0,9.806,0.0,0.0,0.0
1778774734.3969173,-68.76,-0.27,-0.02,-0.044,-0.004,9.808,0.0,0.0,-0.01
1778774734.406906,-68.76,-0.27,-0.02,-0.047,-0.007,9.808,0.0,0.0,-0.01
1778774734.416917,-68.76,-0.27,-0.02,-0.049,-0.01,9.808,0.0,-0.01,-0.01
1778774734.4260874,-68.76,-0.28,-0.02,-0.049,-0.006,9.808,0.0,0.0,0.0
1778774734.4360807,-68.76,-0.27,-0.02,-0.053,-0.001,9.809,0.0,-0.01,0.0
1778774734.4473057,-68.76,-0.27,-0.02,-0.048,-0.001,9.809,0.0,0.0,-0.01
1778774734.4569156,-68.76,-0.27,-0.02,-0.043,0.0,9.809,0.0,-0.01,-0.01
1778774734.4668908,-68.76,-0.27,-0.02,-0.044,-0.001,9.809,0.0,-0.01,-0.01
1778774734.4760742,-68.76,-0.27,-0.02,-0.044,0.0,9.809,0.0,0.0,-0.01
1778774734.4860587,-68.76,-0.27,-0.02,-0.043,0.0,9.809,-0.01,0.0,0.0
1778774734.4960723,-68.76,-0.27,-0.02,-0.04,-0.001,9.809,0.0,0.0,0.0
1778774734.5060322,-68.76,-0.27,-0.02,-0.044,0.002,9.809,0.0,0.0,-0.01
1778774734.516052,-68.76,-0.27,-0.02,-0.043,0.0,9.808,-0.01,0.0,-0.01
1778774734.5260596,-68.76,-0.27,-0.02,-0.042,0.0,9.809,0.0,-0.01,0.0
1778774734.5360699,-68.76,-0.27,-0.02,-0.036,-0.002,9.809,-0.01,-0.01,0.0
1778774734.5460474,-68.76,-0.27,-0.02,-0.036,-0.002,9.809,-0.01,0.0,-0.01
1778774734.5560527,-68.76,-0.27,-0.02,-0.038,0.001,9.809,0.0,0.0,0.0
1778774734.5660548,-68.76,-0.27,-0.02,-0.038,-0.005,9.809,0.0,0.0,0.0
1778774734.5760527,-68.76,-0.27,-0.02,-0.038,-0.004,9.809,0.0,0.0,0.0
1778774734.586495,-68.76,-0.27,-0.02,-0.037,-0.004,9.809,0.0,0.0,0.0
1778774734.5960293,-68.76,-0.27,-0.02,-0.04,-0.007,9.809,0.0,0.0,-0.01
1778774734.6060503,-68.76,-0.27,-0.02,-0.038,-0.008,9.809,0.0,0.0,0.0
1778774734.6160192,-68.76,-0.27,-0.02,-0.034,-0.005,9.809,0.0,-0.01,-0.01
1778774734.626003,-68.76,-0.27,-0.02,-0.032,-0.002,9.809,0.0,-0.01,0.0
1778774734.6360023,-68.76,-0.27,-0.02,-0.036,-0.007,9.809,0.0,-0.01,-0.01
1778774734.6460066,-68.76,-0.27,-0.02,-0.044,-0.004,9.809,-0.01,0.0,-0.01
1778774734.656016,-68.76,-0.27,-0.02,-0.044,0.0,9.809,-0.01,-0.01,0.0
1778774734.6659873,-68.76,-0.27,-0.02,-0.041,0.0,9.809,0.0,0.0,0.0
1778774734.676,-68.76,-0.27,-0.02,-0.043,0.002,9.809,-0.01,0.0,0.0
1778774734.6860175,-68.76,-0.27,-0.02,-0.041,0.0,9.809,0.0,-0.01,0.0
1778774734.6960151,-68.76,-0.27,-0.02,-0.046,0.002,9.809,0.0,0.0,-0.01
1778774734.7060227,-68.76,-0.27,-0.02,-0.041,0.004,9.809,0.0,-0.01,-0.01
1778774734.7159882,-68.76,-0.27,-0.02,-0.036,0.0,9.809,0.0,0.0,0.0
1778774734.7259877,-68.76,-0.27,-0.02,-0.038,-0.002,9.809,0.0,-0.01,0.0
1778774734.7359726,-68.76,-0.27,-0.02,-0.042,-0.001,9.809,-0.01,0.0,-0.01
1778774734.7460403,-68.76,-0.27,-0.02,-0.04,0.002,9.809,-0.01,0.0,0.0
1778774734.756004,-68.76,-0.27,-0.02,-0.038,0.013,9.809,-0.01,0.0,-0.01
1778774734.7660582,-68.76,-0.27,-0.02,-0.043,0.02,9.806,0.0,-0.01,-0.01
1778774734.7759929,-68.76,-0.26,-0.01,-0.042,0.012,9.806,0.0,-0.01,0.0
1778774734.7859926,-68.76,-0.26,-0.01,-0.053,0.004,9.808,0.0,-0.01,0.0
1778774734.7959824,-68.76,-0.27,-0.02,-0.046,-0.002,9.808,0.0,-0.01,0.0
1778774734.8064196,-68.76,-0.27,-0.02,-0.043,-0.001,9.808,0.0,-0.01,0.0
1778774734.8159869,-68.76,-0.27,-0.02,-0.042,-0.004,9.808,-0.01,0.0,-0.01
1778774734.8259578,-68.76,-0.27,-0.02,-0.042,0.005,9.809,0.0,0.0,-0.01
1778774734.8359673,-68.76,-0.27,-0.02,-0.036,0.001,9.809,-0.01,-0.01,-0.01
1778774734.8459585,-68.76,-0.26,-0.01,-0.036,0.002,9.809,0.0,0.0,-0.01
1778774734.8560054,-68.76,-0.26,-0.01,-0.037,-0.001,9.809,0.0,0.0,-0.01
1778774734.866017,-68.76,-0.27,-0.02,-0.042,-0.005,9.809,0.0,-0.01,-0.01
1778774734.875956,-68.76,-0.27,-0.02,-0.04,-0.002,9.809,-0.01,-0.01,-0.01
1778774734.885992,-68.76,-0.27,-0.02,-0.042,0.001,9.809,-0.01,0.0,0.0
1778774734.8959734,-68.76,-0.27,-0.02,-0.038,0.002,9.809,-0.01,-0.01,0.0
1778774734.9059725,-68.76,-0.27,-0.02,-0.036,0.006,9.809,-0.01,-0.01,0.0
1778774734.9159565,-68.76,-0.26,-0.01,-0.038,0.004,9.809,-0.01,-0.01,0.0
1778774734.925957,-68.76,-0.26,-0.01,-0.041,0.004,9.809,0.0,-0.01,0.0
1778774734.9359558,-68.76,-0.26,-0.01,-0.036,0.002,9.809,0.0,-0.01,0.0
1778774734.9459872,-68.76,-0.26,-0.01,-0.036,0.001,9.809,0.0,-0.01,0.0
1778774734.9559531,-68.76,-0.26,-0.01,-0.046,-0.006,9.809,0.0,0.0,0.0
1778774734.9659598,-68.76,-0.26,-0.01,-0.05,-0.001,9.809,0.0,0.0,0.0
1778774734.975957,-68.76,-0.26,-0.01,-0.049,-0.004,9.809,0.0,0.0,0.0
1778774734.9859614,-68.76,-0.27,-0.02,-0.048,-0.004,9.809,-0.01,0.0,0.0
1778774734.9959412,-68.76,-0.27,-0.02,-0.048,0.0,9.809,-0.01,0.0,0.0
1778774735.0059097,-68.76,-0.27,-0.02,-0.046,0.0,9.809,-0.01,0.0,0.0
1778774735.0159585,-68.76,-0.26,-0.01,-0.049,0.001,9.809,0.0,0.0,0.0
1778774735.025961,-68.76,-0.26,-0.01,-0.051,0.005,9.809,0.0,-0.01,-0.01
1778774735.0359237,-68.76,-0.26,-0.01,-0.055,0.004,9.809,0.0,-0.01,0.0
1778774735.0459332,-68.76,-0.26,-0.01,-0.057,0.002,9.809,0.0,-0.01,-0.01
1778774735.0559614,-68.76,-0.26,-0.01,-0.05,0.002,9.809,0.0,-0.01,0.0
1778774735.0663657,-68.76,-0.26,-0.01,-0.051,0.0,9.809,0.0,-0.01,0.0
1778774735.0759542,-68.76,-0.26,-0.01,-0.05,-0.001,9.809,0.0,0.0,-0.01
1778774735.0859277,-68.76,-0.26,-0.01,-0.05,-0.002,9.809,0.0,-0.01,0.0
1778774735.095894,-68.76,-0.26,-0.01,-0.054,0.001,9.809,0.0,-0.01,0.0
1778774735.1059315,-68.76,-0.27,-0.01,-0.049,0.0,9.809,-0.01,0.0,0.0
1778774735.1159139,-68.76,-0.27,-0.01,-0.048,0.005,9.809,0.0,-0.01,0.0
1778774735.1259408,-68.76,-0.27,-0.01,-0.048,0.004,9.809,0.0,-0.01,0.0
1778774735.1359096,-68.76,-0.27,-0.01,-0.051,0.005,9.809,0.0,-0.01,0.0
1778774735.145901,-68.76,-0.27,-0.01,-0.053,0.006,9.809,0.0,-0.01,0.0
1778774735.155893,-68.76,-0.27,-0.01,-0.057,0.011,9.809,0.0,-0.01,-0.01
1778774735.165895,-68.76,-0.27,-0.01,-0.053,0.012,9.809,-0.01,-0.01,-0.01
1778774735.175893,-68.76,-0.27,-0.0,-0.044,0.017,9.809,0.0,-0.01,-0.01
1778774735.1850939,-68.76,-0.26,0.0,-0.046,0.019,9.808,0.0,-0.01,-0.01
1778774735.1950586,-68.76,-0.26,0.01,-0.046,0.013,9.808,0.0,-0.01,-0.01
1778774735.2059119,-68.76,-0.26,0.02,-0.048,0.008,9.808,0.0,-0.01,-0.01
1778774735.2159104,-68.76,-0.26,0.02,-0.05,0.0,9.809,0.0,-0.01,-0.01
1778774735.2258945,-68.76,-0.26,0.02,-0.05,-0.016,9.809,0.0,-0.01,-0.01
1778774735.2358935,-68.76,-0.26,0.02,-0.053,-0.032,9.809,0.0,-0.01,0.0
1778774735.2450895,-68.76,-0.26,0.02,-0.065,-0.055,9.809,0.0,-0.01,0.0
1778774735.2550523,-68.76,-0.26,0.0,-0.071,-0.069,9.809,-0.01,0.0,0.0
1778774735.2658937,-68.76,-0.27,-0.01,-0.071,-0.068,9.809,-0.01,0.0,0.0
1778774735.2750967,-68.76,-0.28,-0.03,-0.068,-0.049,9.809,-0.01,0.0,0.0
1778774735.2850516,-68.76,-0.28,-0.04,-0.051,-0.013,9.809,-0.02,0.0,0.0
1778774735.2950568,-68.76,-0.29,-0.05,-0.038,0.028,9.808,-0.02,0.0,-0.01
1778774735.3050435,-68.76,-0.28,-0.04,-0.018,0.065,9.808,-0.01,0.0,-0.01
1778774735.315054,-68.76,-0.28,-0.04,-0.013,0.079,9.808,-0.01,0.0,-0.01
1778774735.325063,-68.76,-0.27,-0.02,-0.018,0.071,9.808,0.0,-0.01,0.0
1778774735.335056,-68.76,-0.27,-0.0,-0.022,0.049,9.809,0.0,-0.01,-0.01
1778774735.3458822,-68.76,-0.27,0.01,-0.03,0.023,9.809,0.0,-0.01,0.0
1778774735.3550484,-68.76,-0.26,0.01,-0.044,-0.01,9.809,0.0,-0.01,0.0
1778774735.3650386,-68.76,-0.26,0.01,-0.056,-0.036,9.809,0.0,-0.01,0.0
1778774735.3750365,-68.76,-0.26,0.0,-0.057,-0.054,9.809,0.0,-0.01,0.0
1778774735.3850732,-68.76,-0.27,-0.01,-0.056,-0.044,9.809,-0.01,0.0,0.0
1778774735.3950365,-68.76,-0.28,-0.02,-0.053,-0.029,9.809,-0.01,0.0,0.0
1778774735.4050574,-68.76,-0.28,-0.03,-0.05,-0.002,9.809,-0.01,0.0,0.0
1778774735.4150329,-68.76,-0.28,-0.03,-0.041,0.02,9.809,-0.01,0.0,-0.01
1778774735.4250758,-68.76,-0.27,-0.03,-0.035,0.037,9.808,-0.01,0.0,-0.01
1778774735.4350195,-68.76,-0.27,-0.02,-0.029,0.044,9.808,0.0,-0.01,-0.01
1778774735.4450245,-68.76,-0.27,-0.01,-0.028,0.04,9.808,0.0,-0.01,0.0
1778774735.4550323,-68.76,-0.26,0.0,-0.034,0.022,9.809,0.0,-0.01,0.0
1778774735.4650095,-68.76,-0.26,0.0,-0.044,0.002,9.809,0.0,-0.01,0.0
1778774735.4750323,-68.76,-0.26,0.0,-0.054,-0.017,9.809,0.0,-0.01,0.0
1778774735.48501,-68.76,-0.26,0.0,-0.056,-0.032,9.809,0.0,-0.01,0.0
1778774735.4950051,-68.76,-0.27,-0.0,-0.054,-0.038,9.809,-0.01,0.0,0.0
1778774735.5050232,-68.77,-0.27,-0.02,-0.051,-0.029,9.81,-0.01,0.0,0.0
1778774735.5150304,-68.77,-0.27,-0.02,-0.044,-0.016,9.81,-0.01,0.0,0.0
1778774735.5250106,-68.77,-0.27,-0.03,-0.038,0.004,9.81,-0.01,0.0,0.0
1778774735.5349596,-68.77,-0.27,-0.02,-0.029,0.02,9.81,-0.01,0.0,0.0
1778774735.5449939,-68.77,-0.27,-0.01,-0.034,0.025,9.81,0.0,0.0,0.0
1778774735.5549731,-68.77,-0.27,-0.01,-0.038,0.024,9.81,0.0,-0.01,0.0
1778774735.5649948,-68.77,-0.27,-0.0,-0.044,0.012,9.81,0.0,-0.01,0.0
1778774735.5750008,-68.77,-0.26,0.0,-0.05,0.001,9.81,0.0,-0.01,0.0
1778774735.5850267,-68.77,-0.26,0.0,-0.054,-0.007,9.81,0.0,-0.01,-0.01
1778774735.5950062,-68.77,-0.26,0.0,-0.055,-0.014,9.81,0.0,-0.01,-0.01
1778774735.6050565,-68.77,-0.27,-0.0,-0.053,-0.018,9.809,0.0,0.0,0.0
1778774735.6149893,-68.77,-0.27,-0.0,-0.051,-0.018,9.809,-0.01,0.0,-0.01
1778774735.6249928,-68.77,-0.27,-0.01,-0.047,-0.013,9.81,-0.01,0.0,-0.01
1778774735.6349554,-68.77,-0.27,-0.01,-0.046,-0.008,9.808,-0.01,0.0,0.0
1778774735.6450083,-68.77,-0.27,-0.01,-0.043,0.0,9.808,-0.01,0.0,0.0
1778774735.6550043,-68.77,-0.27,-0.02,-0.046,0.013,9.809,-0.01,0.0,-0.01
1778774735.6650078,-68.77,-0.27,-0.01,-0.046,0.014,9.809,-0.01,0.0,-0.01
1778774735.6749988,-68.77,-0.27,-0.01,-0.044,0.02,9.809,0.0,-0.01,-0.01
1778774735.6849754,-68.77,-0.27,-0.0,-0.042,0.016,9.809,0.0,-0.01,0.0
1778774735.6949542,-68.77,-0.27,-0.0,-0.046,0.004,9.81,0.0,-0.01,-0.01
1778774735.704963,-68.77,-0.27,-0.0,-0.048,-0.012,9.81,0.0,-0.01,-0.01
1778774735.7150085,-68.77,-0.27,-0.0,-0.05,-0.016,9.81,0.0,-0.01,0.0
1778774735.7249932,-68.77,-0.27,-0.01,-0.051,-0.013,9.81,-0.01,0.0,0.0
1778774735.7349732,-68.77,-0.27,-0.01,-0.051,-0.005,9.81,-0.01,0.0,-0.01
1778774735.7449634,-68.77,-0.27,-0.01,-0.046,0.0,9.81,-0.01,0.0,-0.01
1778774735.7549572,-68.77,-0.27,-0.02,-0.046,0.007,9.81,-0.01,0.0,-0.01
1778774735.7649696,-68.77,-0.27,-0.01,-0.038,0.012,9.81,-0.01,0.0,0.0
1778774735.7749608,-68.77,-0.27,-0.01,-0.04,0.017,9.81,0.0,-0.01,-0.01
1778774735.7849784,-68.77,-0.27,-0.0,-0.035,0.012,9.81,0.0,-0.01,0.0
1778774735.7949593,-68.76,-0.27,-0.0,-0.041,0.004,9.809,0.0,-0.01,-0.01
1778774735.804964,-68.76,-0.27,-0.0,-0.046,-0.004,9.809,0.0,-0.01,-0.01
1778774735.814959,-68.76,-0.27,-0.0,-0.044,-0.008,9.809,0.0,-0.01,0.0
1778774735.8249643,-68.77,-0.27,-0.0,-0.053,-0.014,9.81,0.0,-0.01,0.0
1778774735.8349264,-68.77,-0.27,-0.01,-0.054,-0.024,9.81,0.0,-0.01,0.0
1778774735.8449624,-68.77,-0.27,-0.01,-0.05,-0.025,9.81,-0.01,0.0,0.0
1778774735.8554056,-68.77,-0.27,-0.02,-0.043,-0.019,9.81,-0.01,0.0,-0.01
1778774735.8649776,-68.77,-0.27,-0.03,-0.042,-0.005,9.81,-0.01,0.0,-0.01
1778774735.8749576,-68.77,-0.27,-0.03,-0.041,0.0,9.808,-0.01,0.0,-0.01
1778774735.8849359,-68.77,-0.27,-0.03,-0.042,0.007,9.809,-0.01,0.0,0.0
1778774735.8949094,-68.77,-0.27,-0.03,-0.038,0.012,9.809,-0.01,0.0,0.0
1778774735.904961,-68.77,-0.27,-0.03,-0.038,0.011,9.809,-0.01,0.0,0.0
1778774735.9149106,-68.77,-0.27,-0.03,-0.04,0.008,9.809,0.0,0.0,0.0
1778774735.9249153,-68.77,-0.27,-0.02,-0.037,0.008,9.809,0.0,-0.01,-0.01
1778774735.9349587,-68.77,-0.27,-0.02,-0.041,-0.002,9.809,0.0,-0.01,0.0
1778774735.9449675,-68.77,-0.27,-0.03,-0.046,-0.013,9.81,0.0,0.0,-0.01
1778774735.9549594,-68.77,-0.27,-0.03,-0.05,-0.013,9.81,-0.01,0.0,0.0
1778774735.9649448,-68.77,-0.28,-0.03,-0.053,-0.008,9.81,-0.01,0.0,-0.01
1778774735.974928,-68.77,-0.28,-0.03,-0.053,-0.002,9.809,-0.01,0.0,-0.01
1778774735.984937,-68.77,-0.28,-0.04,-0.041,0.002,9.809,-0.01,0.0,-0.01
1778774735.9949117,-68.77,-0.28,-0.04,-0.035,0.013,9.808,-0.01,0.0,0.0
1778774736.0049,-68.77,-0.28,-0.04,-0.03,0.018,9.808,-0.01,0.0,0.0
1778774736.0149245,-68.77,-0.28,-0.04,-0.032,0.018,9.809,-0.01,-0.01,-0.01
1778774736.0248973,-68.77,-0.28,-0.04,-0.035,0.017,9.809,-0.01,0.0,0.0
1778774736.0349264,-68.77,-0.28,-0.04,-0.041,0.012,9.809,-0.01,0.0,0.0
1778774736.0449767,-68.77,-0.28,-0.04,-0.047,0.004,9.81,-0.01,0.0,-0.01
1778774736.0549295,-68.77,-0.28,-0.04,-0.053,-0.001,9.81,-0.01,0.0,0.0
1778774736.0648928,-68.77,-0.28,-0.04,-0.054,0.004,9.81,-0.01,0.0,0.0
1778774736.0740585,-68.77,-0.29,-0.05,-0.047,0.005,9.81,-0.01,0.0,0.0
1778774736.0849173,-68.77,-0.29,-0.05,-0.038,0.011,9.81,-0.01,0.0,-0.01
1778774736.0949132,-68.77,-0.29,-0.05,-0.038,0.011,9.81,-0.01,0.0,-0.01
1778774736.1049006,-68.77,-0.29,-0.05,-0.035,0.012,9.81,-0.01,0.0,-0.01
1778774736.1140735,-68.77,-0.29,-0.05,-0.032,0.02,9.81,0.0,0.0,0.0
1778774736.1248963,-68.77,-0.28,-0.04,-0.041,0.018,9.81,0.0,0.0,0.0
1778774736.1340766,-68.77,-0.28,-0.04,-0.043,0.011,9.81,0.0,0.0,0.0
1778774736.144896,-68.77,-0.28,-0.04,-0.038,0.011,9.81,0.0,0.0,0.0
1778774736.15405,-68.77,-0.28,-0.04,-0.036,0.011,9.81,0.0,0.0,0.0
1778774736.1640418,-68.77,-0.28,-0.04,-0.038,0.014,9.81,0.0,0.0,0.0
1778774736.1740808,-68.77,-0.28,-0.04,-0.04,0.022,9.809,0.0,0.0,0.0
1778774736.1840355,-68.77,-0.28,-0.04,-0.038,0.02,9.809,0.0,-0.01,0.0
1778774736.1940863,-68.77,-0.28,-0.04,-0.035,0.018,9.809,0.0,-0.01,0.0
1778774736.204056,-68.77,-0.28,-0.04,-0.036,0.005,9.809,0.0,-0.01,-0.01
1778774736.21404,-68.77,-0.29,-0.03,-0.046,-0.005,9.809,0.0,0.0,0.0
1778774736.2240603,-68.77,-0.28,-0.04,-0.048,-0.011,9.809,-0.01,0.0,-0.01
1778774736.2340581,-68.77,-0.28,-0.04,-0.042,-0.016,9.81,-0.01,0.0,0.0
1778774736.2440405,-68.77,-0.29,-0.05,-0.043,-0.012,9.809,-0.01,0.0,-0.01
1778774736.2540214,-68.77,-0.29,-0.05,-0.043,0.001,9.809,-0.01,0.0,0.0
1778774736.263999,-68.77,-0.3,-0.06,-0.036,0.019,9.809,-0.01,0.0,0.0
1778774736.273995,-68.77,-0.29,-0.05,-0.03,0.028,9.809,-0.01,0.0,0.0
1778774736.2839708,-68.77,-0.29,-0.05,-0.031,0.041,9.809,-0.01,0.0,0.0
1778774736.2939985,-68.77,-0.29,-0.05,-0.029,0.04,9.809,0.0,-0.01,0.0
1778774736.3040137,-68.77,-0.28,-0.04,-0.038,0.037,9.809,0.0,-0.01,0.0
1778774736.3139956,-68.77,-0.28,-0.03,-0.037,0.03,9.809,0.0,-0.01,-0.01
1778774736.3239837,-68.77,-0.28,-0.02,-0.042,0.018,9.809,0.0,-0.01,-0.01
1778774736.334438,-68.77,-0.28,-0.02,-0.043,0.006,9.809,0.0,-0.01,-0.01
1778774736.3439832,-68.77,-0.28,-0.02,-0.049,0.0,9.809,0.0,-0.01,-0.01
1778774736.3546224,-68.77,-0.28,-0.02,-0.046,-0.008,9.809,0.0,-0.01,0.0
1778774736.3640246,-68.77,-0.28,-0.03,-0.044,-0.004,9.809,-0.01,0.0,0.0
1778774736.373989,-68.77,-0.28,-0.03,-0.043,-0.001,9.809,-0.01,0.0,-0.01
1778774736.3839834,-68.77,-0.28,-0.03,-0.04,0.005,9.809,-0.01,0.0,-0.01
1778774736.3939748,-68.77,-0.28,-0.04,-0.034,0.007,9.809,-0.01,0.0,-0.01
1778774736.403955,-68.77,-0.28,-0.04,-0.029,0.017,9.809,-0.01,0.0,0.0
1778774736.4139962,-68.77,-0.28,-0.03,-0.026,0.028,9.809,-0.01,0.0,0.0
1778774736.4239838,-68.77,-0.27,-0.03,-0.024,0.022,9.809,0.0,0.0,-0.01
1778774736.433995,-68.77,-0.27,-0.03,-0.031,0.012,9.809,0.0,-0.01,-0.01
1778774736.443987,-68.77,-0.28,-0.02,-0.035,0.01,9.808,0.0,-0.01,0.0
1778774736.4539504,-68.77,-0.27,-0.02,-0.038,0.004,9.809,0.0,-0.01,0.0
1778774736.463983,-68.77,-0.27,-0.02,-0.048,-0.005,9.809,0.0,-0.01,0.0
1778774736.473986,-68.77,-0.27,-0.02,-0.053,-0.019,9.809,0.0,-0.01,0.0
1778774736.4839816,-68.77,-0.27,-0.03,-0.057,-0.007,9.809,-0.01,0.0,-0.01
1778774736.4939806,-68.77,-0.28,-0.03,-0.042,0.004,9.809,-0.01,0.0,-0.01
1778774736.5039783,-68.77,-0.27,-0.03,-0.041,0.02,9.81,-0.01,0.0,-0.01
1778774736.5139656,-68.77,-0.27,-0.02,-0.023,0.038,9.809,-0.01,0.0,-0.01
1778774736.5239573,-68.77,-0.27,-0.01,-0.036,0.028,9.81,0.0,-0.01,0.0
1778774736.5339978,-68.77,-0.27,-0.0,-0.03,0.005,9.81,0.0,-0.01,-0.01
1778774736.5439968,-68.77,-0.26,-0.01,-0.054,-0.024,9.81,0.0,-0.01,-0.01
1778774736.5539927,-68.77,-0.27,-0.02,-0.059,-0.05,9.81,0.0,-0.01,-0.01
1778774736.5639825,-68.77,-0.27,-0.04,-0.068,-0.049,9.81,-0.01,0.0,-0.01
1778774736.5739684,-68.77,-0.28,-0.05,-0.056,-0.032,9.81,-0.01,0.0,0.0
1778774736.5839534,-68.77,-0.29,-0.06,-0.051,0.007,9.809,-0.02,0.0,0.0
1778774736.5939498,-68.77,-0.29,-0.06,-0.026,0.044,9.809,-0.01,0.0,0.0
1778774736.603985,-68.77,-0.29,-0.06,-0.014,0.075,9.809,-0.01,0.0,0.0
1778774736.6139634,-68.77,-0.29,-0.05,-0.014,0.083,9.809,0.0,0.0,0.0
1778774736.6239672,-68.77,-0.28,-0.04,-0.019,0.066,9.809,0.0,-0.01,0.0
1778774736.6339703,-68.77,-0.28,-0.03,-0.028,0.043,9.809,0.0,-0.01,-0.01
1778774736.6439874,-68.77,-0.27,-0.03,-0.035,0.019,9.809,0.0,-0.01,0.0
1778774736.6539845,-68.77,-0.27,-0.03,-0.043,-0.002,9.809,0.0,-0.01,-0.01
1778774736.663968,-68.77,-0.28,-0.03,-0.044,-0.005,9.81,0.0,-0.01,-0.01
1778774736.673967,-68.77,-0.28,-0.03,-0.043,-0.004,9.81,0.0,-0.01,-0.01
1778774736.6840107,-68.77,-0.28,-0.03,-0.048,0.004,9.81,0.0,0.0,-0.01
1778774736.6939685,-68.77,-0.28,-0.03,-0.049,0.007,9.81,-0.01,0.0,-0.01
1778774736.703967,-68.77,-0.28,-0.02,-0.043,0.007,9.81,0.0,0.0,0.0
1778774736.71399,-68.77,-0.28,-0.02,-0.042,0.013,9.81,0.0,0.0,0.0
1778774736.723928,-68.77,-0.28,-0.02,-0.044,0.016,9.81,0.0,0.0,-0.01
1778774736.7339103,-68.77,-0.27,-0.02,-0.044,0.017,9.81,0.0,-0.01,-0.01
1778774736.7439547,-68.77,-0.27,-0.02,-0.034,0.02,9.81,0.0,-0.01,0.0
1778774736.753956,-68.77,-0.27,-0.01,-0.028,0.022,9.81,0.0,-0.01,-0.01
1778774736.7639236,-68.77,-0.27,-0.0,-0.026,0.012,9.81,0.0,-0.01,0.0
1778774736.7739222,-68.77,-0.26,0.0,-0.029,0.001,9.81,0.0,-0.01,0.0
1778774736.7839558,-68.77,-0.26,0.0,-0.035,-0.014,9.81,0.0,-0.01,0.0
1778774736.7939234,-68.77,-0.26,0.0,-0.044,-0.031,9.81,0.0,-0.01,-0.01
1778774736.803928,-68.77,-0.27,-0.01,-0.046,-0.037,9.81,-0.01,0.0,-0.01
1778774736.8141124,-68.77,-0.27,-0.02,-0.05,-0.03,9.81,-0.01,0.0,-0.01
1778774736.8239217,-68.77,-0.28,-0.03,-0.043,-0.011,9.81,-0.01,0.0,-0.01
1778774736.833933,-68.76,-0.28,-0.03,-0.037,0.017,9.809,-0.01,0.0,-0.01
1778774736.8439093,-68.76,-0.28,-0.03,-0.029,0.028,9.809,-0.01,0.0,-0.01
1778774736.8539088,-68.76,-0.28,-0.03,-0.024,0.04,9.808,-0.01,0.0,-0.01
1778774736.8638937,-68.76,-0.27,-0.03,-0.03,0.038,9.808,0.0,-0.01,-0.01
1778774736.8738778,-68.76,-0.27,-0.02,-0.031,0.03,9.808,0.0,-0.01,0.0
1778774736.883907,-68.76,-0.27,-0.01,-0.031,0.028,9.809,0.0,-0.01,0.0
1778774736.8939085,-68.76,-0.27,-0.01,-0.037,0.006,9.808,0.0,-0.01,0.0
1778774736.9039104,-68.76,-0.26,-0.01,-0.05,-0.028,9.808,0.0,-0.01,-0.01
1778774736.9139075,-68.76,-0.27,-0.03,-0.06,-0.059,9.808,-0.01,-0.01,-0.01
1778774736.923907,-68.76,-0.28,-0.05,-0.06,-0.071,9.809,-0.01,0.0,-0.01
1778774736.9343982,-68.76,-0.29,-0.07,-0.059,-0.06,9.809,-0.02,0.0,-0.01
1778774736.9443967,-68.76,-0.3,-0.1,-0.048,-0.026,9.809,-0.02,0.0,-0.01
1778774736.9540513,-68.75,-0.3,-0.12,-0.041,0.024,9.809,-0.02,0.0,-0.01
1778774736.9638996,-68.75,-0.31,-0.13,-0.01,0.093,9.808,-0.02,0.0,0.0
1778774736.9730911,-68.75,-0.3,-0.12,0.006,0.137,9.808,-0.01,0.0,0.0
1778774736.9830875,-68.76,-0.29,-0.1,0.01,0.153,9.809,-0.01,0.0,0.0
1778774736.9930644,-68.76,-0.29,-0.07,-0.002,0.138,9.809,0.0,-0.01,-0.01
1778774737.0030327,-68.76,-0.28,-0.05,-0.018,0.11,9.809,0.01,-0.01,0.0
1778774737.0130365,-68.76,-0.27,-0.03,-0.018,0.068,9.809,0.01,-0.01,0.0
1778774737.0230339,-68.76,-0.27,-0.01,-0.026,0.022,9.809,0.01,-0.01,0.0
1778774737.0330384,-68.76,-0.27,-0.01,-0.053,-0.019,9.809,0.01,-0.01,-0.01
1778774737.04321,-68.76,-0.27,-0.02,-0.066,-0.037,9.809,0.0,-0.01,-0.01
1778774737.0531485,-68.76,-0.28,-0.02,-0.049,-0.028,9.809,-0.01,0.0,0.0
1778774737.063052,-68.76,-0.27,-0.03,-0.038,-0.006,9.809,-0.01,0.0,0.0
1778774737.0730612,-68.76,-0.27,-0.03,-0.032,0.017,9.809,-0.01,0.0,-0.01
1778774737.083032,-68.76,-0.27,-0.02,-0.037,0.031,9.809,-0.01,0.0,-0.01
1778774737.093027,-68.76,-0.27,-0.01,-0.029,0.03,9.808,0.0,-0.01,0.0
1778774737.1030335,-68.76,-0.27,-0.0,-0.022,0.028,9.808,0.0,-0.01,0.0
1778774737.1130936,-68.76,-0.26,0.0,-0.028,0.012,9.809,0.0,-0.01,0.0
1778774737.1230187,-68.76,-0.26,0.01,-0.037,0.006,9.809,0.0,-0.01,-0.01
1778774737.133,-68.76,-0.26,0.01,-0.048,0.0,9.809,0.0,-0.01,-0.01
1778774737.143166,-68.76,-0.26,0.01,-0.05,-0.002,9.809,0.0,-0.01,0.0
1778774737.1530411,-68.76,-0.26,0.01,-0.043,-0.005,9.809,0.0,-0.01,0.0
1778774737.1630056,-68.76,-0.26,0.01,-0.047,-0.002,9.809,0.0,-0.01,0.0
1778774737.1730382,-68.76,-0.26,0.01,-0.044,0.0,9.809,-0.01,0.0,0.0
1778774737.1830025,-68.76,-0.26,0.01,-0.042,0.005,9.809,-0.01,0.0,0.0
1778774737.1930058,-68.77,-0.26,0.01,-0.04,0.006,9.81,0.0,0.0,-0.01
1778774737.2030306,-68.77,-0.26,0.01,-0.038,0.017,9.81,-0.01,0.0,0.0
1778774737.2130072,-68.77,-0.26,0.01,-0.036,0.022,9.81,-0.01,0.0,-0.01
1778774737.2229972,-68.76,-0.26,0.01,-0.031,0.018,9.809,-0.01,0.0,-0.01
1778774737.2330053,-68.76,-0.26,0.01,-0.028,0.014,9.809,-0.01,0.0,-0.01
1778774737.2429893,-68.76,-0.26,0.01,-0.035,0.007,9.809,-0.01,0.0,-0.01
1778774737.252975,-68.76,-0.26,0.0,-0.042,0.001,9.805,-0.01,0.0,-0.01
1778774737.2630994,-68.76,-0.27,-0.0,-0.036,-0.001,9.806,-0.01,0.0,-0.01
1778774737.2730124,-68.76,-0.26,-0.01,-0.041,0.002,9.806,-0.01,0.0,0.0
1778774737.2831445,-68.76,-0.27,-0.02,-0.038,0.016,9.808,-0.01,0.0,0.0
1778774737.2929852,-68.76,-0.27,-0.02,-0.031,0.028,9.808,-0.01,0.0,0.0
1778774737.3029847,-68.76,-0.26,-0.01,-0.023,0.044,9.808,-0.01,0.0,-0.01
1778774737.3129785,-68.76,-0.27,-0.0,-0.019,0.049,9.809,0.0,0.0,-0.01
1778774737.3229685,-68.76,-0.26,0.01,-0.02,0.051,9.809,0.0,-0.01,-0.01
1778774737.333013,-68.76,-0.25,0.01,-0.028,0.046,9.809,0.0,-0.01,-0.01
1778774737.3430026,-68.76,-0.26,0.02,-0.038,0.032,9.809,0.0,-0.01,-0.01
1778774737.3530145,-68.76,-0.25,0.03,-0.038,0.012,9.809,0.0,-0.01,-0.01
1778774737.3629856,-68.76,-0.25,0.03,-0.041,-0.005,9.809,0.0,-0.01,0.0
1778774737.3729784,-68.76,-0.25,0.03,-0.047,-0.014,9.809,0.0,-0.01,0.0
1778774737.3829699,-68.76,-0.25,0.03,-0.048,-0.022,9.809,0.0,-0.01,-0.01
1778774737.3929868,-68.76,-0.25,0.03,-0.048,-0.023,9.809,0.0,-0.01,-0.01
1778774737.4031003,-68.76,-0.25,0.03,-0.05,-0.019,9.809,-0.01,0.0,-0.01
1778774737.4129622,-68.76,-0.25,0.03,-0.047,-0.011,9.809,-0.01,0.0,0.0
1778774737.4230978,-68.76,-0.25,0.03,-0.044,-0.005,9.809,-0.01,0.0,-0.01
1778774737.4329765,-68.76,-0.25,0.03,-0.042,-0.004,9.809,-0.01,0.0,-0.01
1778774737.4431267,-68.76,-0.25,0.03,-0.044,0.0,9.809,0.0,-0.01,0.0
1778774737.4529636,-68.76,-0.25,0.03,-0.047,-0.005,9.809,0.0,-0.01,0.0
1778774737.4629555,-68.76,-0.25,0.03,-0.048,-0.008,9.809,0.0,0.0,0.0
1778774737.472962,-68.76,-0.26,0.02,-0.044,0.0,9.809,0.0,0.0,-0.01
1778774737.4829566,-68.76,-0.25,0.03,-0.042,0.006,9.809,-0.01,0.0,0.0
1778774737.4929934,-68.76,-0.25,0.03,-0.042,0.01,9.809,0.0,0.0,0.0
1778774737.5029583,-68.76,-0.25,0.03,-0.04,0.008,9.809,0.0,-0.01,-0.01
1778774737.5129652,-68.76,-0.25,0.03,-0.049,0.008,9.809,0.0,-0.01,-0.01
1778774737.5229566,-68.76,-0.25,0.04,-0.046,-0.001,9.809,0.0,-0.01,0.0
1778774737.5329292,-68.76,-0.25,0.03,-0.049,-0.011,9.809,0.0,-0.01,0.0
1778774737.5429583,-68.76,-0.25,0.03,-0.05,-0.016,9.809,-0.01,0.0,0.0
1778774737.5529737,-68.76,-0.26,0.02,-0.054,-0.022,9.809,-0.01,0.0,-0.01
1778774737.5629709,-68.76,-0.26,0.02,-0.054,-0.025,9.809,-0.01,0.0,-0.01
1778774737.572951,-68.76,-0.26,0.0,-0.049,-0.008,9.809,-0.01,0.0,0.0
1778774737.582909,-68.76,-0.27,-0.0,-0.037,0.007,9.809,-0.01,0.0,0.0
1778774737.5929613,-68.76,-0.27,-0.0,-0.031,0.031,9.809,-0.01,0.0,-0.01
1778774737.60296,-68.76,-0.27,-0.0,-0.032,0.035,9.809,-0.01,0.0,-0.01
1778774737.6129785,-68.76,-0.27,-0.0,-0.031,0.04,9.809,-0.01,0.0,-0.01
1778774737.6229424,-68.76,-0.27,-0.0,-0.029,0.026,9.809,-0.01,-0.01,0.0
1778774737.6329496,-68.76,-0.26,-0.01,-0.034,0.013,9.809,-0.01,-0.01,0.0
1778774737.6429274,-68.76,-0.26,-0.01,-0.046,-0.006,9.809,-0.01,0.0,-0.01
1778774737.6529474,-68.76,-0.27,-0.03,-0.03,-0.013,9.808,-0.01,0.0,-0.01
1778774737.6629255,-68.76,-0.27,-0.04,-0.031,-0.034,9.808,-0.01,0.0,0.0
1778774737.672963,-68.76,-0.28,-0.06,-0.031,-0.012,9.803,-0.01,0.0,-0.01
1778774737.6829104,-68.76,-0.28,-0.07,-0.034,0.006,9.805,-0.02,0.0,-0.01
1778774737.6929152,-68.76,-0.28,-0.08,-0.022,0.044,9.803,-0.01,0.0,-0.01
1778774737.7028778,-68.76,-0.28,-0.08,-0.013,0.069,9.804,-0.01,0.0,0.0
1778774737.7129319,-68.76,-0.28,-0.08,-0.008,0.093,9.805,-0.01,0.0,0.0
1778774737.7229135,-68.76,-0.28,-0.06,-0.005,0.096,9.806,-0.01,0.0,-0.01
1778774737.732897,-68.76,-0.27,-0.05,-0.01,0.092,9.808,0.0,-0.01,0.0
1778774737.7428792,-68.76,-0.27,-0.05,-0.013,0.068,9.808,0.0,-0.01,0.0
1778774737.752963,-68.76,-0.27,-0.03,-0.019,0.047,9.808,0.0,-0.01,0.0
1778774737.7629359,-68.76,-0.27,-0.03,-0.022,0.025,9.808,0.0,-0.01,-0.01
1778774737.7729073,-68.76,-0.26,-0.02,-0.032,0.018,9.809,0.0,-0.01,0.0
1778774737.7828948,-68.76,-0.26,-0.02,-0.03,0.014,9.809,0.0,-0.01,-0.01
1778774737.792067,-68.76,-0.26,-0.02,-0.037,0.014,9.804,0.0,-0.01,0.0
1778774737.802059,-68.76,-0.26,-0.02,-0.037,0.014,9.805,0.0,-0.01,-0.01
1778774737.8120463,-68.77,-0.26,-0.02,-0.043,0.01,9.808,0.0,-0.01,0.0
1778774737.8221757,-68.77,-0.26,-0.02,-0.043,0.004,9.809,-0.01,-0.01,0.0
1778774737.8322182,-68.77,-0.26,-0.02,-0.043,0.0,9.809,-0.01,0.0,0.0
1778774737.8420966,-68.77,-0.27,-0.03,-0.042,0.004,9.809,-0.01,0.0,0.0
1778774737.8520107,-68.77,-0.27,-0.04,-0.042,0.017,9.808,-0.01,0.0,0.0
1778774737.8628807,-68.77,-0.27,-0.04,-0.034,0.03,9.808,-0.01,0.0,0.0
1778774737.8720217,-68.77,-0.27,-0.04,-0.028,0.047,9.808,-0.01,0.0,0.0
1778774737.882039,-68.77,-0.27,-0.03,-0.024,0.05,9.809,-0.01,0.0,0.0
1778774737.8920243,-68.77,-0.27,-0.03,-0.029,0.046,9.809,-0.01,-0.01,0.0
1778774737.902886,-68.77,-0.27,-0.03,-0.032,0.038,9.809,0.0,-0.01,0.0
1778774737.9120376,-68.77,-0.27,-0.03,-0.037,0.028,9.81,0.0,-0.01,-0.01
1778774737.92199,-68.77,-0.27,-0.03,-0.046,0.014,9.81,-0.01,0.0,-0.01
1778774737.9320202,-68.77,-0.27,-0.04,-0.046,0.011,9.81,-0.01,0.0,0.0
1778774737.942,-68.77,-0.27,-0.05,-0.046,0.011,9.81,-0.01,0.0,0.0
1778774737.9520118,-68.77,-0.27,-0.05,-0.043,0.018,9.81,-0.01,0.0,0.0
1778774737.9619975,-68.77,-0.27,-0.05,-0.043,0.028,9.81,-0.01,0.0,-0.01
1778774737.9719748,-68.77,-0.28,-0.06,-0.038,0.031,9.809,-0.01,0.0,0.0
1778774737.9819987,-68.77,-0.28,-0.06,-0.029,0.026,9.809,-0.01,0.0,0.0
1778774737.9920151,-68.77,-0.28,-0.07,-0.031,0.03,9.809,-0.01,0.0,0.0
1778774738.001973,-68.77,-0.28,-0.08,-0.031,0.034,9.809,-0.01,0.0,0.0
1778774738.0120144,-68.77,-0.29,-0.09,-0.031,0.037,9.809,-0.01,0.0,0.0
1778774738.0220006,-68.77,-0.29,-0.1,-0.028,0.047,9.81,-0.01,0.0,-0.01
1778774738.0320156,-68.77,-0.29,-0.11,-0.028,0.048,9.81,-0.01,0.0,-0.01
1778774738.0419996,-68.77,-0.3,-0.11,-0.034,0.044,9.81,-0.01,0.0,-0.01
1778774738.052018,-68.77,-0.3,-0.13,-0.03,0.053,9.81,-0.01,0.0,-0.01
1778774738.061999,-68.77,-0.3,-0.13,-0.025,0.062,9.81,-0.01,0.0,-0.01
1778774738.0719724,-68.77,-0.3,-0.13,-0.016,0.085,9.81,-0.01,0.0,0.0
1778774738.0819798,-68.77,-0.3,-0.13,-0.008,0.098,9.81,-0.01,0.0,-0.01
1778774738.0919604,-68.77,-0.3,-0.13,-0.012,0.107,9.81,-0.01,0.0,0.0
1778774738.1019745,-68.77,-0.3,-0.12,-0.008,0.105,9.81,-0.01,0.0,0.0
1778774738.1119754,-68.77,-0.3,-0.11,-0.008,0.102,9.81,0.0,0.0,0.0
1778774738.1220214,-68.77,-0.29,-0.11,-0.014,0.096,9.81,0.0,-0.01,0.0
1778774738.1319883,-68.77,-0.29,-0.1,-0.018,0.083,9.809,0.0,-0.01,0.0
1778774738.1419706,-68.77,-0.29,-0.09,-0.023,0.081,9.808,0.0,-0.01,0.0
1778774738.1519573,-68.77,-0.29,-0.07,-0.024,0.086,9.809,0.0,-0.01,0.0
1778774738.162001,-68.77,-0.28,-0.06,-0.022,0.085,9.809,0.0,-0.01,0.0
1778774738.171972,-68.77,-0.28,-0.05,-0.019,0.078,9.809,0.0,-0.01,0.0
1778774738.1819563,-68.77,-0.27,-0.04,-0.017,0.085,9.809,0.0,-0.01,0.0
1778774738.1920044,-68.77,-0.26,-0.01,-0.012,0.077,9.809,0.0,-0.01,0.0
1778774738.201996,-68.77,-0.26,0.01,-0.016,0.084,9.809,0.01,-0.01,0.0
1778774738.21199,-68.77,-0.25,0.03,-0.024,0.066,9.809,0.01,-0.01,0.0
1778774738.2219794,-68.77,-0.25,0.05,-0.028,0.026,9.809,0.01,-0.01,0.0
1778774738.2319942,-68.77,-0.24,0.06,-0.036,-0.016,9.809,0.01,-0.01,0.0
1778774738.2419608,-68.77,-0.24,0.06,-0.046,-0.043,9.809,0.0,-0.01,0.0
1778774738.2519712,-68.77,-0.24,0.05,-0.053,-0.06,9.809,0.0,-0.01,0.0
1778774738.261959,-68.77,-0.24,0.05,-0.054,-0.069,9.809,-0.01,0.0,-0.01
1778774738.2719584,-68.77,-0.24,0.03,-0.051,-0.06,9.809,-0.01,0.0,-0.01
1778774738.2819676,-68.77,-0.24,0.01,-0.049,-0.034,9.809,-0.01,0.0,-0.01
1778774738.2919571,-68.77,-0.25,0.0,-0.036,0.002,9.809,-0.02,0.0,-0.01
1778774738.3019571,-68.77,-0.25,0.0,-0.029,0.036,9.809,-0.01,0.0,-0.01
1778774738.3119903,-68.77,-0.25,0.0,-0.022,0.067,9.809,-0.01,0.0,-0.01
1778774738.3220878,-68.77,-0.25,0.01,-0.023,0.077,9.809,-0.01,0.0,-0.01
1778774738.3319607,-68.77,-0.25,0.02,-0.029,0.072,9.809,0.0,-0.01,0.0
1778774738.342289,-68.77,-0.24,0.03,-0.035,0.049,9.809,0.0,-0.01,0.0
1778774738.3526735,-68.77,-0.24,0.04,-0.037,0.028,9.809,0.0,-0.01,0.0
1778774738.3620114,-68.77,-0.24,0.04,-0.042,0.02,9.809,0.0,-0.01,0.0
1778774738.3719583,-68.77,-0.25,0.03,-0.043,0.016,9.809,0.0,-0.01,-0.01
1778774738.3819282,-68.77,-0.25,0.03,-0.038,0.019,9.809,-0.01,0.0,0.0
1778774738.391966,-68.77,-0.25,0.03,-0.026,0.023,9.809,-0.01,0.0,0.0
1778774738.4019547,-68.77,-0.24,0.04,-0.029,0.038,9.809,-0.01,0.0,0.0
1778774738.4119685,-68.77,-0.24,0.05,-0.024,0.041,9.808,0.0,-0.01,-0.01
1778774738.4219654,-68.77,-0.24,0.05,-0.026,0.037,9.808,0.0,-0.01,-0.01
1778774738.4319258,-68.77,-0.23,0.06,-0.031,0.03,9.809,0.0,-0.01,-0.01
1778774738.4419348,-68.77,-0.23,0.06,-0.03,0.026,9.809,0.0,-0.01,-0.01
1778774738.4519105,-68.77,-0.23,0.06,-0.03,0.031,9.809,0.0,-0.01,0.0
1778774738.462286,-68.77,-0.23,0.07,-0.028,0.031,9.809,0.0,-0.01,-0.01
1778774738.4719539,-68.77,-0.23,0.08,-0.026,0.036,9.809,0.0,-0.01,0.0
1778774738.4819221,-68.77,-0.22,0.09,-0.028,0.03,9.809,0.0,-0.01,-0.01
1778774738.4919057,-68.77,-0.22,0.1,-0.034,0.019,9.809,0.0,-0.01,0.0
1778774738.501892,-68.77,-0.22,0.11,-0.036,0.005,9.809,0.0,-0.01,0.0
1778774738.5119388,-68.77,-0.22,0.11,-0.046,-0.011,9.809,0.0,-0.01,0.0
1778774738.5219083,-68.77,-0.22,0.1,-0.054,-0.02,9.809,0.0,-0.01,0.0
1778774738.5318923,-68.77,-0.22,0.09,-0.055,-0.026,9.809,-0.01,0.0,0.0
1778774738.5411,-68.77,-0.22,0.08,-0.047,-0.02,9.809,-0.01,0.0,0.0
1778774738.5519066,-68.77,-0.23,0.08,-0.034,0.001,9.809,-0.01,0.0,0.0
1778774738.5618885,-68.77,-0.23,0.08,-0.032,0.018,9.809,-0.01,0.0,0.0
1778774738.571931,-68.78,-0.22,0.08,-0.03,0.034,9.81,-0.01,0.0,0.0
1778774738.5819092,-68.78,-0.23,0.09,-0.028,0.043,9.809,0.0,-0.01,0.0
1778774738.5918775,-68.78,-0.22,0.09,-0.028,0.035,9.809,0.0,-0.01,0.0
1778774738.6018758,-68.78,-0.22,0.1,-0.038,0.008,9.809,0.0,-0.01,-0.01
1778774738.6119254,-68.78,-0.22,0.1,-0.046,-0.011,9.809,0.0,-0.01,0.0
1778774738.6219213,-68.78,-0.23,0.09,-0.056,-0.013,9.809,0.0,0.0,-0.01
1778774738.631898,-68.78,-0.23,0.08,-0.047,-0.012,9.809,-0.01,0.0,0.0
1778774738.6419003,-68.78,-0.23,0.07,-0.041,0.0,9.809,-0.01,0.0,0.0
1778774738.6510768,-68.78,-0.23,0.07,-0.042,0.002,9.809,-0.01,0.0,-0.01
1778774738.6611013,-68.77,-0.23,0.07,-0.046,0.016,9.809,-0.01,0.0,-0.01
1778774738.6712346,-68.77,-0.23,0.07,-0.047,0.032,9.809,-0.01,0.0,-0.01
1778774738.681915,-68.77,-0.23,0.07,-0.035,0.056,9.809,-0.01,0.0,0.0
1778774738.691111,-68.77,-0.23,0.08,-0.019,0.072,9.809,0.0,-0.01,0.0
1778774738.7010725,-68.77,-0.22,0.1,-0.018,0.078,9.809,0.0,-0.01,-0.01
1778774738.7110596,-68.77,-0.21,0.12,-0.03,0.046,9.809,0.01,-0.01,-0.01
1778774738.7210686,-68.77,-0.21,0.14,-0.041,0.014,9.809,0.01,-0.01,-0.01
1778774738.731062,-68.77,-0.21,0.14,-0.055,-0.025,9.809,0.01,-0.01,0.0
1778774738.7410474,-68.77,-0.21,0.14,-0.065,-0.049,9.809,0.0,-0.01,0.0
1778774738.7522666,-68.78,-0.22,0.13,-0.065,-0.048,9.81,0.0,-0.01,0.0
1778774738.7614415,-68.78,-0.22,0.12,-0.057,-0.037,9.809,-0.01,0.0,0.0
1778774738.7714148,-68.78,-0.21,0.12,-0.054,-0.016,9.809,-0.01,0.0,0.0
1778774738.7810476,-68.78,-0.22,0.12,-0.042,0.0,9.809,-0.01,0.0,0.0
1778774738.7910502,-68.78,-0.22,0.13,-0.042,0.007,9.809,0.0,-0.01,0.0
1778774738.8010614,-68.78,-0.22,0.13,-0.037,-0.004,9.809,0.0,-0.01,0.0
1778774738.8110504,-68.78,-0.22,0.13,-0.049,-0.018,9.809,0.0,-0.01,0.0
1778774738.8209925,-68.78,-0.22,0.12,-0.061,-0.038,9.809,0.0,-0.01,0.0
1778774738.8310027,-68.78,-0.22,0.12,-0.062,-0.038,9.809,-0.01,-0.01,0.0
1778774738.841015,-68.78,-0.22,0.11,-0.06,-0.035,9.809,-0.01,0.0,0.0
1778774738.8510294,-68.78,-0.22,0.09,-0.049,-0.026,9.809,-0.01,0.0,0.0
1778774738.8611434,-68.78,-0.23,0.09,-0.049,-0.01,9.809,-0.01,0.0,0.0
1778774738.871016,-68.78,-0.23,0.08,-0.048,0.005,9.809,-0.01,0.0,0.0
1778774738.8810384,-68.78,-0.24,0.08,-0.043,0.016,9.809,-0.01,0.0,0.0
1778774738.8910217,-68.78,-0.24,0.08,-0.037,0.022,9.809,-0.01,0.0,0.0
1778774738.9009924,-68.78,-0.24,0.08,-0.034,0.024,9.809,-0.01,0.0,0.0
1778774738.911028,-68.78,-0.24,0.08,-0.035,0.025,9.809,-0.01,0.0,0.0
1778774738.9210052,-68.78,-0.23,0.07,-0.035,0.019,9.809,-0.01,0.0,0.0
1778774738.9309855,-68.78,-0.23,0.07,-0.036,0.014,9.809,-0.01,0.0,0.0
1778774738.9410496,-68.78,-0.23,0.07,-0.036,0.017,9.809,-0.01,0.0,0.0
1778774738.9510002,-68.78,-0.23,0.07,-0.035,0.017,9.809,-0.01,0.0,0.0
1778774738.9609818,-68.78,-0.23,0.07,-0.038,0.018,9.809,-0.01,0.0,0.0
1778774738.9709775,-68.78,-0.23,0.07,-0.046,0.017,9.806,-0.01,0.0,-0.01
1778774738.9809697,-68.78,-0.23,0.07,-0.043,0.017,9.808,-0.01,0.0,0.0
1778774738.9909952,-68.78,-0.23,0.07,-0.037,0.013,9.808,-0.01,0.0,0.0
1778774739.0009992,-68.78,-0.23,0.07,-0.035,0.011,9.808,0.0,-0.01,0.0
1778774739.0109663,-68.78,-0.23,0.07,-0.036,0.014,9.809,0.0,0.0,0.0
1778774739.020966,-68.79,-0.23,0.07,-0.036,0.018,9.81,0.0,-0.01,0.0
1778774739.0309947,-68.79,-0.23,0.07,-0.037,0.017,9.81,-0.01,-0.01,0.0
1778774739.040982,-68.79,-0.23,0.07,-0.041,0.013,9.81,0.0,0.0,0.0
1778774739.0510223,-68.79,-0.23,0.07,-0.04,0.013,9.81,-0.01,0.0,0.0
1778774739.0609968,-68.79,-0.23,0.07,-0.035,0.016,9.81,0.0,0.0,-0.01
1778774739.070986,-68.79,-0.23,0.07,-0.024,0.016,9.81,-0.01,-0.01,0.0
1778774739.0809593,-68.79,-0.23,0.07,-0.023,0.018,9.81,-0.01,0.0,0.0
1778774739.0909863,-68.79,-0.23,0.07,-0.026,0.02,9.81,0.0,0.0,0.0
1778774739.1009786,-68.79,-0.23,0.07,-0.032,0.022,9.81,0.0,0.0,-0.01
1778774739.1109653,-68.79,-0.23,0.07,-0.03,0.029,9.81,0.0,-0.01,-0.01
1778774739.120964,-68.79,-0.24,0.08,-0.028,0.034,9.81,0.0,0.0,0.0
1778774739.1309617,-68.79,-0.23,0.08,-0.025,0.041,9.81,0.0,-0.01,0.0
1778774739.1409678,-68.79,-0.22,0.09,-0.035,0.037,9.81,0.0,-0.01,0.0
1778774739.1509593,-68.79,-0.23,0.1,-0.034,0.028,9.809,0.0,-0.01,0.0
1778774739.1609623,-68.79,-0.22,0.11,-0.044,0.016,9.809,0.0,-0.01,0.0
1778774739.1709597,-68.79,-0.22,0.12,-0.054,0.001,9.81,0.0,-0.01,0.0
1778774739.1809616,-68.79,-0.22,0.12,-0.054,-0.013,9.81,0.0,-0.01,0.0
1778774739.19096,-68.79,-0.22,0.11,-0.053,-0.025,9.81,0.0,-0.01,-0.01
1778774739.2009673,-68.79,-0.22,0.11,-0.057,-0.031,9.81,0.0,-0.01,-0.01
1778774739.2109613,-68.79,-0.23,0.1,-0.054,-0.029,9.81,-0.01,0.0,0.0
1778774739.2209482,-68.79,-0.23,0.1,-0.048,-0.011,9.81,-0.01,0.0,-0.01
1778774739.2309186,-68.79,-0.23,0.1,-0.04,0.0,9.81,-0.01,0.0,0.0
1778774739.2409794,-68.79,-0.23,0.1,-0.04,0.012,9.81,-0.01,0.0,0.0
1778774739.250935,-68.79,-0.23,0.1,-0.035,0.013,9.809,-0.01,0.0,0.0
1778774739.2609713,-68.79,-0.23,0.1,-0.034,0.018,9.809,0.0,-0.01,0.0
1778774739.2709734,-68.79,-0.23,0.1,-0.036,0.012,9.809,0.0,-0.01,0.0
1778774739.280914,-68.79,-0.23,0.1,-0.036,0.006,9.809,0.0,0.0,0.0
1778774739.2909467,-68.79,-0.23,0.1,-0.041,0.004,9.809,0.0,0.0,0.0
1778774739.3009322,-68.79,-0.23,0.1,-0.04,0.002,9.809,-0.01,0.0,-0.01
1778774739.31098,-68.79,-0.23,0.09,-0.041,0.001,9.809,-0.01,0.0,0.0
1778774739.320942,-68.79,-0.23,0.09,-0.042,0.0,9.809,-0.01,0.0,0.0
1778774739.3309133,-68.79,-0.23,0.08,-0.042,0.01,9.809,-0.01,0.0,0.0
1778774739.3409026,-68.79,-0.23,0.08,-0.042,0.014,9.809,-0.01,0.0,-0.01
1778774739.350942,-68.79,-0.23,0.08,-0.042,0.024,9.809,-0.01,0.0,0.0
1778774739.3609362,-68.79,-0.24,0.09,-0.034,0.025,9.809,0.0,-0.01,0.0
1778774739.3708944,-68.79,-0.23,0.09,-0.038,0.019,9.809,0.0,0.0,-0.01
1778774739.3809335,-68.79,-0.23,0.09,-0.04,0.012,9.809,0.0,-0.01,-0.01
1778774739.390878,-68.79,-0.23,0.09,-0.04,0.007,9.809,0.0,-0.01,-0.01
1778774739.4011042,-68.79,-0.23,0.09,-0.041,0.006,9.809,0.0,-0.01,-0.01
1778774739.4108999,-68.79,-0.23,0.08,-0.042,0.008,9.809,-0.01,0.0,0.0
1778774739.4215617,-68.79,-0.24,0.09,-0.043,0.011,9.809,-0.01,0.0,0.0
1778774739.4300673,-68.79,-0.23,0.08,-0.042,0.016,9.809,-0.01,0.0,-0.01
1778774739.4400463,-68.79,-0.23,0.09,-0.04,0.016,9.809,0.0,-0.01,-0.01
1778774739.4509077,-68.79,-0.23,0.09,-0.036,0.011,9.809,0.0,-0.01,-0.01
1778774739.4608977,-68.79,-0.23,0.09,-0.041,0.002,9.809,0.0,-0.01,0.0
1778774739.4700303,-68.79,-0.24,0.09,-0.04,0.0,9.809,0.0,0.0,0.0
1778774739.4808812,-68.79,-0.23,0.08,-0.04,0.005,9.809,-0.01,0.0,0.0
1778774739.490031,-68.79,-0.23,0.08,-0.04,0.013,9.809,-0.01,0.0,0.0
1778774739.5000312,-68.79,-0.23,0.08,-0.041,0.018,9.809,-0.01,0.0,-0.01
1778774739.5108912,-68.79,-0.23,0.08,-0.046,0.017,9.809,-0.01,-0.01,0.0
1778774739.5200472,-68.79,-0.23,0.08,-0.044,0.008,9.809,0.0,0.0,0.0
1778774739.5300386,-68.79,-0.23,0.08,-0.044,0.005,9.809,0.0,0.0,-0.01
1778774739.5408916,-68.79,-0.23,0.08,-0.043,0.002,9.809,0.0,-0.01,0.0
1778774739.5508735,-68.79,-0.24,0.08,-0.043,0.0,9.809,-0.01,-0.01,-0.01
1778774739.560047,-68.79,-0.24,0.08,-0.043,0.004,9.809,-0.01,0.0,-0.01
1778774739.570032,-68.79,-0.24,0.08,-0.04,0.005,9.809,-0.01,0.0,0.0
1778774739.5808933,-68.79,-0.24,0.08,-0.042,0.01,9.809,-0.01,0.0,0.0
1778774739.5900483,-68.79,-0.24,0.08,-0.044,0.013,9.809,-0.01,0.0,-0.01
1778774739.6000564,-68.79,-0.24,0.07,-0.044,0.013,9.806,-0.01,-0.01,-0.01
1778774739.610073,-68.79,-0.24,0.07,-0.042,0.014,9.808,-0.01,0.0,-0.01
1778774739.620033,-68.79,-0.24,0.08,-0.05,0.019,9.808,0.0,-0.01,0.0
1778774739.6300309,-68.79,-0.25,0.07,-0.048,0.007,9.808,0.0,0.0,0.0
1778774739.6400533,-68.79,-0.25,0.07,-0.048,0.006,9.809,0.0,0.0,-0.01
1778774739.650053,-68.79,-0.25,0.07,-0.053,0.006,9.809,0.0,0.0,-0.01
1778774739.660042,-68.79,-0.25,0.07,-0.054,0.004,9.808,-0.01,0.0,-0.01
1778774739.6700544,-68.79,-0.25,0.07,-0.048,0.008,9.806,-0.01,0.0,0.0
1778774739.6800363,-68.79,-0.25,0.07,-0.044,0.019,9.808,-0.01,0.0,0.0
1778774739.6900249,-68.79,-0.25,0.07,-0.037,0.03,9.808,-0.01,0.0,0.0
1778774739.7000058,-68.79,-0.25,0.07,-0.026,0.026,9.808,-0.01,-0.01,-0.01
1778774739.7100542,-68.79,-0.25,0.07,-0.024,0.028,9.808,0.0,-0.01,0.0
1778774739.7201881,-68.79,-0.24,0.08,-0.026,0.016,9.809,0.0,-0.01,-0.01
1778774739.7300184,-68.79,-0.24,0.08,-0.03,0.007,9.809,0.0,-0.01,0.0
1778774739.7401865,-68.79,-0.24,0.08,-0.031,0.002,9.809,0.0,-0.01,0.0
1778774739.7500463,-68.79,-0.24,0.07,-0.035,0.001,9.809,0.0,-0.01,0.0
1778774739.7599895,-68.79,-0.24,0.07,-0.032,0.002,9.809,-0.01,0.0,-0.01
1778774739.769996,-68.79,-0.24,0.07,-0.026,0.042,9.806,-0.01,0.0,0.0
1778774739.780039,-68.79,-0.24,0.09,-0.011,0.05,9.808,0.0,-0.01,0.0
1778774739.7900152,-68.79,-0.23,0.1,-0.014,0.044,9.808,0.0,-0.01,-0.01
1778774739.8000076,-68.79,-0.22,0.11,-0.038,0.0,9.808,0.0,-0.01,-0.01
1778774739.8099947,-68.79,-0.23,0.1,-0.057,-0.037,9.808,0.0,-0.01,-0.01
1778774739.8199844,-68.79,-0.23,0.1,-0.071,-0.06,9.809,0.0,-0.01,0.0
1778774739.830011,-68.79,-0.23,0.08,-0.063,-0.043,9.809,-0.01,0.0,0.0
1778774739.8399975,-68.8,-0.24,0.08,-0.05,-0.006,9.81,-0.01,0.0,0.0
1778774739.8499992,-68.8,-0.24,0.08,-0.035,0.022,9.809,-0.01,0.0,0.0
1778774739.85995,-68.8,-0.24,0.08,-0.026,0.034,9.809,-0.01,0.0,0.0
1778774739.869962,-68.8,-0.23,0.08,-0.028,0.029,9.809,0.0,-0.01,-0.01
1778774739.8799498,-68.79,-0.23,0.09,-0.035,0.013,9.809,0.0,-0.01,-0.01
1778774739.890037,-68.79,-0.23,0.09,-0.037,0.006,9.809,0.0,-0.01,-0.01
1778774739.8999548,-68.79,-0.23,0.09,-0.043,0.004,9.809,0.0,-0.01,-0.01
1778774739.9100018,-68.79,-0.23,0.09,-0.049,0.002,9.809,0.0,-0.01,-0.01
1778774739.9199805,-68.79,-0.23,0.09,-0.042,0.016,9.809,0.0,0.0,-0.01
1778774739.9299653,-68.79,-0.23,0.09,-0.036,0.014,9.809,0.0,0.0,-0.01
1778774739.9399529,-68.79,-0.23,0.1,-0.037,0.013,9.809,0.0,-0.01,-0.01
1778774739.9499967,-68.79,-0.23,0.1,-0.04,0.0,9.809,0.0,-0.01,0.0
1778774739.9599514,-68.79,-0.23,0.09,-0.038,0.0,9.809,0.0,-0.01,-0.01
1778774739.969995,-68.79,-0.23,0.09,-0.041,-0.001,9.809,0.0,0.0,0.0
1778774739.9803538,-68.79,-0.23,0.09,-0.037,0.0,9.809,-0.01,-0.01,-0.01
1778774739.9899697,-68.79,-0.23,0.09,-0.042,0.0,9.809,-0.01,0.0,-0.01
1778774740.0009584,-68.79,-0.23,0.09,-0.038,0.005,9.809,-0.01,0.0,-0.01
1778774740.009964,-68.79,-0.23,0.09,-0.038,0.005,9.809,0.0,0.0,-0.01
1778774740.0207162,-68.79,-0.23,0.09,-0.04,0.005,9.809,0.0,-0.01,-0.01
1778774740.0299897,-68.79,-0.23,0.09,-0.043,0.005,9.809,0.0,-0.01,-0.01
1778774740.0399795,-68.79,-0.23,0.09,-0.044,0.0,9.809,0.0,-0.01,-0.01
1778774740.0503535,-68.79,-0.23,0.09,-0.043,-0.005,9.809,0.0,-0.01,0.0
1778774740.0599673,-68.79,-0.23,0.09,-0.043,-0.011,9.809,-0.01,0.0,0.0
1778774740.0699337,-68.79,-0.23,0.08,-0.048,-0.002,9.809,-0.01,0.0,0.0
1778774740.079967,-68.79,-0.24,0.08,-0.05,0.0,9.809,-0.01,0.0,0.0
1778774740.089929,-68.79,-0.24,0.08,-0.051,0.008,9.809,-0.01,0.0,0.0
1778774740.0999599,-68.79,-0.24,0.07,-0.047,0.008,9.809,-0.01,0.0,0.0
1778774740.1099951,-68.79,-0.24,0.07,-0.043,0.012,9.809,-0.01,0.0,0.0
1778774740.1199322,-68.79,-0.24,0.07,-0.046,0.018,9.809,-0.01,0.0,0.0
1778774740.1299884,-68.79,-0.24,0.07,-0.05,0.011,9.809,-0.01,0.0,0.0
1778774740.1399848,-68.79,-0.24,0.07,-0.051,0.011,9.809,-0.01,-0.01,0.0
1778774740.1499639,-68.79,-0.24,0.07,-0.046,0.005,9.809,-0.01,0.0,-0.01
1778774740.1599393,-68.79,-0.24,0.07,-0.043,0.004,9.809,-0.01,0.0,-0.01
1778774740.1699054,-68.79,-0.24,0.07,-0.038,0.004,9.809,-0.01,0.0,0.0
1778774740.1799495,-68.79,-0.24,0.07,-0.037,0.007,9.809,-0.01,0.0,0.0
1778774740.1898963,-68.79,-0.24,0.07,-0.038,0.011,9.809,0.0,0.0,0.0
1778774740.1999352,-68.79,-0.24,0.07,-0.036,0.011,9.809,-0.01,0.0,0.0
1778774740.2099028,-68.79,-0.24,0.07,-0.037,0.012,9.809,0.0,0.0,0.0
1778774740.2199042,-68.79,-0.24,0.07,-0.04,0.016,9.809,-0.01,0.0,-0.01
1778774740.2299929,-68.79,-0.24,0.07,-0.038,0.01,9.809,0.0,0.0,0.0
1778774740.2399576,-68.79,-0.24,0.07,-0.036,0.01,9.809,-0.01,0.0,0.0
1778774740.2506757,-68.79,-0.24,0.07,-0.037,0.008,9.809,-0.01,-0.01,0.0
1778774740.2606268,-68.8,-0.24,0.07,-0.036,0.016,9.81,-0.01,-0.01,0.0
1778774740.2707076,-68.79,-0.24,0.07,-0.036,0.017,9.809,-0.01,0.0,0.0
1778774740.279923,-68.79,-0.24,0.07,-0.032,0.018,9.809,0.0,0.0,-0.01
1778774740.2890787,-68.79,-0.24,0.07,-0.034,0.019,9.809,0.0,0.0,0.0
1778774740.2999263,-68.79,-0.24,0.07,-0.034,0.016,9.809,0.0,-0.01,0.0
1778774740.309918,-68.79,-0.24,0.07,-0.032,0.012,9.809,0.0,-0.01,-0.01
1778774740.3198998,-68.79,-0.24,0.07,-0.032,0.008,9.809,0.0,0.0,-0.01
1778774740.3299246,-68.79,-0.24,0.07,-0.029,0.011,9.809,-0.01,0.0,-0.01
1778774740.3398976,-68.79,-0.24,0.07,-0.03,0.014,9.809,-0.01,-0.01,-0.01
1778774740.3498797,-68.79,-0.24,0.06,-0.029,0.017,9.809,-0.01,0.0,0.0
1778774740.3590603,-68.79,-0.24,0.06,-0.03,0.018,9.809,-0.01,0.0,0.0
1778774740.3690531,-68.79,-0.24,0.06,-0.029,0.017,9.809,-0.01,-0.01,0.0
1778774740.379891,-68.79,-0.24,0.06,-0.026,0.018,9.809,-0.01,0.0,0.0
1778774740.3890724,-68.79,-0.23,0.07,-0.03,0.018,9.809,0.0,-0.01,0.0
1778774740.3995323,-68.79,-0.23,0.07,-0.024,0.028,9.809,0.0,-0.01,-0.01
1778774740.4090385,-68.79,-0.23,0.07,-0.025,0.024,9.809,0.0,-0.01,-0.01
1778774740.41905,-68.79,-0.23,0.07,-0.031,0.024,9.809,0.0,-0.01,-0.01
1778774740.4290524,-68.79,-0.23,0.08,-0.031,0.016,9.809,0.0,-0.01,-0.01
1778774740.4390633,-68.79,-0.23,0.08,-0.032,0.007,9.809,0.0,-0.01,-0.01
1778774740.4490619,-68.79,-0.23,0.08,-0.04,0.0,9.809,0.0,-0.01,0.0
1778774740.4592054,-68.79,-0.23,0.08,-0.047,0.0,9.809,0.0,-0.01,0.0
1778774740.469051,-68.79,-0.23,0.08,-0.049,0.0,9.809,-0.01,-0.01,0.0
1778774740.4791877,-68.79,-0.23,0.08,-0.046,0.004,9.809,-0.01,-0.01,0.0
1778774740.4890683,-68.79,-0.23,0.08,-0.046,0.012,9.809,-0.01,-0.01,-0.01
1778774740.4992044,-68.79,-0.23,0.08,-0.038,0.013,9.809,0.0,0.0,0.0
1778774740.509027,-68.79,-0.23,0.08,-0.031,0.013,9.809,0.0,0.0,-0.01
1778774740.5190349,-68.79,-0.23,0.08,-0.032,0.01,9.809,0.0,0.0,-0.01
1778774740.5290534,-68.79,-0.23,0.08,-0.031,0.004,9.809,0.0,-0.01,-0.01
1778774740.5391817,-68.79,-0.23,0.07,-0.037,-0.002,9.809,-0.01,0.0,-0.01
1778774740.5490093,-68.79,-0.22,0.07,-0.04,-0.01,9.809,-0.01,0.0,-0.01
1778774740.5591414,-68.79,-0.23,0.06,-0.051,-0.008,9.809,-0.01,0.0,-0.01
1778774740.5690112,-68.79,-0.24,0.05,-0.056,-0.002,9.809,-0.01,0.0,-0.01
1778774740.5791576,-68.79,-0.24,0.05,-0.048,0.014,9.806,-0.01,0.0,0.0
1778774740.589018,-68.79,-0.24,0.05,-0.035,0.03,9.808,-0.01,0.0,0.0
1778774740.5991101,-68.79,-0.24,0.05,-0.018,0.044,9.808,-0.01,0.0,0.0
1778774740.6090107,-68.79,-0.23,0.06,-0.028,0.041,9.808,0.0,-0.01,-0.01
1778774740.6190097,-68.79,-0.23,0.06,-0.04,0.028,9.808,0.0,-0.01,-0.01
1778774740.6290665,-68.79,-0.23,0.06,-0.043,0.023,9.809,0.0,-0.01,0.0
1778774740.639022,-68.79,-0.23,0.06,-0.038,0.014,9.809,0.0,-0.01,0.0
1778774740.6490092,-68.79,-0.23,0.06,-0.047,0.014,9.809,0.0,0.0,0.0
1778774740.6590226,-68.79,-0.23,0.07,-0.053,0.014,9.809,0.0,-0.01,-0.01
1778774740.669007,-68.79,-0.23,0.07,-0.049,0.014,9.809,-0.01,0.0,0.0
1778774740.6789868,-68.79,-0.23,0.07,-0.041,0.019,9.809,0.0,0.0,0.0
1778774740.6890194,-68.79,-0.23,0.07,-0.04,0.023,9.809,0.0,0.0,0.0
1778774740.699019,-68.79,-0.23,0.07,-0.041,0.028,9.809,0.0,-0.01,-0.01
1778774740.7090204,-68.79,-0.23,0.07,-0.037,0.022,9.809,0.0,-0.01,0.0
1778774740.7189682,-68.79,-0.23,0.07,-0.042,0.017,9.809,0.0,-0.01,0.0
1778774740.729037,-68.79,-0.23,0.07,-0.043,0.007,9.809,0.0,-0.01,0.0
1778774740.7389748,-68.79,-0.23,0.07,-0.041,0.0,9.809,0.0,-0.01,0.0
1778774740.749038,-68.79,-0.23,0.07,-0.041,0.002,9.809,0.0,-0.01,0.0
1778774740.7593994,-68.79,-0.23,0.07,-0.041,0.011,9.809,-0.01,0.0,0.0
1778774740.769027,-68.79,-0.23,0.07,-0.042,0.014,9.809,0.0,0.0,0.0
1778774740.779023,-68.79,-0.23,0.07,-0.044,0.006,9.809,0.0,-0.01,-0.01
1778774740.7891076,-68.79,-0.23,0.07,-0.047,0.0,9.809,0.0,-0.01,-0.01
1778774740.7989628,-68.79,-0.23,0.07,-0.047,0.0,9.809,0.0,0.0,0.0
1778774740.8089986,-68.79,-0.23,0.07,-0.04,0.007,9.809,-0.01,0.0,0.0
1778774740.818947,-68.79,-0.23,0.07,-0.034,0.023,9.809,-0.01,0.0,-0.01
1778774740.8289554,-68.79,-0.23,0.07,-0.035,0.02,9.809,0.0,0.0,0.0
1778774740.8389447,-68.79,-0.23,0.08,-0.038,0.01,9.809,0.0,-0.01,0.0
1778774740.848948,-68.79,-0.23,0.07,-0.053,0.002,9.809,0.0,-0.01,-0.01
1778774740.858947,-68.79,-0.23,0.07,-0.053,0.004,9.809,-0.01,0.0,-0.01
1778774740.8689663,-68.79,-0.23,0.07,-0.048,0.02,9.809,-0.01,0.0,0.0
1778774740.8790445,-68.79,-0.23,0.07,-0.037,0.031,9.809,-0.01,0.0,0.0
1778774740.8893197,-68.79,-0.24,0.08,-0.032,0.044,9.809,-0.01,0.0,0.0
1778774740.8989544,-68.79,-0.23,0.08,-0.031,0.04,9.809,0.0,-0.01,0.0
1778774740.9089968,-68.79,-0.23,0.09,-0.042,0.022,9.809,0.0,-0.01,-0.01
1778774740.9189286,-68.79,-0.23,0.09,-0.047,0.013,9.809,0.0,-0.01,-0.01
1778774740.9289443,-68.79,-0.23,0.09,-0.05,0.005,9.809,0.0,-0.01,0.0
1778774740.9389424,-68.79,-0.23,0.09,-0.05,0.002,9.809,0.0,-0.01,0.0
1778774740.9489532,-68.79,-0.22,0.09,-0.049,-0.001,9.809,0.0,-0.01,-0.01
1778774740.9589527,-68.79,-0.22,0.09,-0.049,0.002,9.809,0.0,-0.01,-0.01
1778774740.968946,-68.79,-0.23,0.1,-0.048,0.007,9.809,0.0,-0.01,-0.01
1778774740.9789104,-68.79,-0.23,0.1,-0.048,0.008,9.803,0.0,-0.01,-0.01
1778774740.9889092,-68.79,-0.23,0.1,-0.049,0.012,9.804,0.0,-0.01,-0.01
1778774740.9988918,-68.79,-0.22,0.11,-0.043,0.017,9.805,0.0,-0.01,-0.01
1778774741.0089567,-68.79,-0.22,0.12,-0.043,0.012,9.808,0.0,-0.01,-0.01
1778774741.0189314,-68.79,-0.22,0.12,-0.047,0.008,9.808,0.0,-0.01,-0.01
1778774741.0289218,-68.79,-0.22,0.13,-0.047,0.0,9.809,0.0,-0.01,-0.01
1778774741.038921,-68.79,-0.22,0.13,-0.043,-0.007,9.809,0.0,-0.01,-0.01
1778774741.0490956,-68.78,-0.22,0.13,-0.05,-0.022,9.808,0.0,-0.01,-0.01
1778774741.0589466,-68.78,-0.21,0.13,-0.059,-0.043,9.809,0.0,-0.01,-0.01
1778774741.0689406,-68.78,-0.22,0.12,-0.06,-0.054,9.809,-0.01,0.0,-0.01
1778774741.0789318,-68.78,-0.23,0.1,-0.065,-0.06,9.809,-0.01,0.0,-0.01
1778774741.0889142,-68.78,-0.23,0.09,-0.061,-0.051,9.809,-0.01,0.0,0.0
1778774741.0988839,-68.78,-0.24,0.08,-0.056,-0.032,9.809,-0.01,0.0,0.0
1778774741.108952,-68.78,-0.24,0.06,-0.05,-0.008,9.809,-0.01,0.0,0.0
1778774741.118912,-68.79,-0.24,0.06,-0.034,0.011,9.81,-0.01,0.0,0.0
1778774741.1288853,-68.78,-0.24,0.06,-0.025,0.029,9.809,-0.01,0.0,0.0
1778774741.1380496,-68.78,-0.24,0.06,-0.025,0.038,9.809,-0.01,0.0,-0.01
1778774741.1480734,-68.78,-0.24,0.06,-0.026,0.051,9.809,-0.01,-0.01,-0.01
1778774741.1580925,-68.78,-0.24,0.06,-0.03,0.051,9.809,0.0,-0.01,-0.01
1778774741.1680553,-68.78,-0.23,0.07,-0.031,0.05,9.809,0.0,-0.01,0.0
1778774741.178046,-68.78,-0.23,0.08,-0.032,0.041,9.809,0.0,-0.01,-0.01
1778774741.1889083,-68.78,-0.23,0.09,-0.029,0.035,9.809,0.0,-0.01,-0.01
1778774741.198899,-68.78,-0.22,0.09,-0.036,0.019,9.809,0.0,-0.01,-0.01
1778774741.208886,-68.78,-0.23,0.1,-0.05,0.002,9.809,0.0,-0.01,-0.01
1778774741.2180705,-68.78,-0.23,0.1,-0.06,-0.007,9.809,0.0,-0.01,-0.01
1778774741.2280695,-68.78,-0.23,0.1,-0.065,-0.011,9.809,0.0,-0.01,-0.01
1778774741.2380452,-68.78,-0.23,0.11,-0.046,-0.001,9.806,0.0,-0.01,0.0
1778774741.2480478,-68.78,-0.22,0.11,-0.056,0.012,9.806,0.0,-0.01,0.0
1778774741.2580602,-68.78,-0.22,0.12,-0.041,0.0,9.803,0.0,-0.01,0.0
1778774741.2680295,-68.78,-0.22,0.12,-0.049,0.001,9.804,0.0,-0.01,-0.01
1778774741.2780104,-68.78,-0.22,0.12,-0.048,-0.016,9.805,0.0,-0.01,0.0
1778774741.28801,-68.78,-0.22,0.12,-0.053,-0.016,9.806,0.0,-0.01,0.0
1778774741.298009,-68.78,-0.22,0.12,-0.05,-0.03,9.806,0.0,-0.01,0.0
1778774741.308038,-68.78,-0.22,0.12,-0.059,-0.037,9.808,0.0,0.0,0.0
1778774741.3180094,-68.78,-0.22,0.11,-0.065,-0.048,9.808,-0.01,0.0,-0.01
1778774741.3280249,-68.78,-0.23,0.1,-0.072,-0.043,9.808,-0.01,0.0,0.0
1778774741.3379996,-68.79,-0.23,0.09,-0.066,-0.028,9.81,-0.01,0.0,0.0
1778774741.3481781,-68.79,-0.24,0.09,-0.048,-0.006,9.81,-0.01,0.0,0.0
1778774741.358111,-68.79,-0.24,0.08,-0.038,0.0,9.81,-0.01,0.0,0.0
1778774741.3682826,-68.79,-0.24,0.08,-0.035,0.0,9.81,-0.01,0.0,0.0
1778774741.3781593,-68.79,-0.24,0.07,-0.046,-0.013,9.81,-0.01,0.0,0.0
1778774741.3880937,-68.79,-0.24,0.07,-0.05,-0.018,9.81,-0.01,0.0,0.0
1778774741.3979905,-68.79,-0.25,0.05,-0.048,-0.017,9.81,-0.01,0.0,0.0
1778774741.4079711,-68.79,-0.25,0.04,-0.049,-0.012,9.81,-0.01,0.0,0.0
1778774741.4179986,-68.79,-0.25,0.03,-0.038,0.002,9.81,-0.01,0.0,-0.01
1778774741.428015,-68.79,-0.26,0.02,-0.037,0.024,9.81,-0.01,0.0,0.0
1778774741.4380002,-68.79,-0.26,0.02,-0.03,0.043,9.81,-0.01,0.0,-0.01
1778774741.448,-68.79,-0.26,0.02,-0.029,0.054,9.81,-0.01,0.0,-0.01
1778774741.457995,-68.79,-0.25,0.03,-0.028,0.057,9.808,-0.01,0.0,-0.01
1778774741.46799,-68.79,-0.26,0.03,-0.035,0.038,9.808,0.0,-0.01,-0.01
1778774741.4779665,-68.79,-0.26,0.03,-0.043,0.025,9.809,0.0,-0.01,0.0
1778774741.487981,-68.79,-0.26,0.02,-0.04,0.018,9.809,0.0,0.0,-0.01
1778774741.4979787,-68.79,-0.26,0.02,-0.042,0.011,9.809,-0.01,0.0,-0.01
1778774741.5079637,-68.78,-0.26,0.02,-0.037,0.016,9.808,-0.01,0.0,-0.01
1778774741.5179527,-68.79,-0.26,0.01,-0.041,0.026,9.81,-0.01,0.0,-0.01
1778774741.5279903,-68.79,-0.27,0.01,-0.035,0.023,9.81,-0.01,0.0,0.0
1778774741.537979,-68.79,-0.26,0.0,-0.028,0.029,9.81,-0.01,0.0,0.0
1778774741.5479765,-68.79,-0.27,-0.0,-0.024,0.034,9.81,-0.01,0.0,-0.01
1778774741.557978,-68.79,-0.27,-0.0,-0.026,0.047,9.81,-0.01,0.0,-0.01
1778774741.56795,-68.79,-0.27,-0.0,-0.026,0.047,9.81,-0.01,0.0,0.0
1778774741.577948,-68.78,-0.27,-0.0,-0.028,0.047,9.809,-0.01,0.0,-0.01
1778774741.5879483,-68.78,-0.27,-0.01,-0.03,0.044,9.809,-0.01,0.0,-0.01
1778774741.5979774,-68.78,-0.27,-0.01,-0.028,0.043,9.809,-0.01,0.0,-0.01
1778774741.6083865,-68.78,-0.27,-0.01,-0.031,0.05,9.809,-0.01,0.0,-0.01
1778774741.6179888,-68.78,-0.27,-0.0,-0.024,0.06,9.809,0.0,0.0,0.0
1778774741.6279883,-68.78,-0.27,0.01,-0.02,0.056,9.809,0.0,-0.01,0.0
1778774741.6379719,-68.78,-0.26,0.01,-0.028,0.038,9.809,0.0,-0.01,0.0
1778774741.647978,-68.79,-0.26,0.01,-0.031,0.026,9.81,0.0,-0.01,0.0
1778774741.657965,-68.79,-0.26,0.01,-0.038,0.014,9.81,0.0,-0.01,0.0
1778774741.6679618,-68.79,-0.26,0.01,-0.034,0.008,9.81,0.0,0.0,0.0
1778774741.6779647,-68.79,-0.26,0.01,-0.03,0.014,9.81,-0.01,0.0,0.0
1778774741.687965,-68.79,-0.26,0.01,-0.028,0.034,9.81,-0.01,0.0,0.0
1778774741.6979616,-68.79,-0.26,0.02,-0.022,0.048,9.81,-0.01,0.0,0.0
1778774741.7079704,-68.79,-0.26,0.02,-0.024,0.048,9.809,0.0,-0.01,0.0
1778774741.7179632,-68.79,-0.26,0.03,-0.026,0.044,9.809,0.0,-0.01,-0.01
1778774741.7279642,-68.79,-0.25,0.04,-0.036,0.044,9.809,0.0,-0.01,-0.01
1778774741.7379644,-68.79,-0.25,0.04,-0.038,0.037,9.809,0.0,-0.01,0.0
1778774741.747929,-68.79,-0.25,0.05,-0.041,0.029,9.81,0.0,-0.01,0.0
1778774741.7579858,-68.79,-0.25,0.06,-0.041,0.023,9.81,0.0,-0.01,0.0
1778774741.7679875,-68.79,-0.24,0.07,-0.047,0.019,9.81,0.0,-0.01,0.0
1778774741.777945,-68.79,-0.24,0.07,-0.046,0.026,9.81,0.0,-0.01,0.0
1778774741.787923,-68.79,-0.25,0.07,-0.041,0.028,9.81,0.0,-0.01,0.0
1778774741.7979813,-68.79,-0.24,0.08,-0.034,0.029,9.81,0.0,-0.01,0.0
1778774741.8079343,-68.79,-0.24,0.09,-0.03,0.035,9.81,0.0,-0.01,0.0
1778774741.8179476,-68.79,-0.23,0.09,-0.032,0.031,9.81,0.0,-0.01,-0.01
1778774741.8279316,-68.79,-0.24,0.1,-0.036,0.034,9.81,0.0,-0.01,-0.01
1778774741.8379323,-68.79,-0.23,0.11,-0.035,0.028,9.81,0.0,-0.01,-0.01
1778774741.8479266,-68.78,-0.22,0.12,-0.029,0.024,9.808,0.0,-0.01,-0.01
1778774741.8579237,-68.78,-0.22,0.13,-0.022,0.014,9.809,0.0,-0.01,-0.01
1778774741.8679063,-68.78,-0.22,0.14,-0.029,0.002,9.809,0.0,-0.01,-0.01
1778774741.8778949,-68.78,-0.21,0.15,-0.035,-0.022,9.809,0.0,-0.01,-0.01
1778774741.8879442,-68.77,-0.21,0.14,-0.044,-0.051,9.809,0.0,-0.01,-0.01
1778774741.8979204,-68.76,-0.22,0.13,-0.065,-0.077,9.809,0.0,0.0,-0.01
1778774741.9079065,-68.74,-0.23,0.1,-0.057,-0.066,9.809,-0.01,0.0,-0.01
1778774741.9179115,-68.72,-0.24,0.07,-0.029,-0.055,9.797,-0.02,0.0,-0.02
1778774741.92791,-68.69,-0.24,0.03,0.024,-0.04,9.717,-0.02,0.01,-0.02
1778774741.9380817,-68.68,-0.22,-0.01,0.09,-0.028,9.639,-0.02,0.0,-0.02
1778774741.9487329,-68.67,-0.16,-0.04,0.154,-0.012,9.549,-0.02,-0.02,-0.02
1778774741.957079,-68.67,-0.09,-0.09,0.169,0.028,9.496,-0.02,-0.02,-0.01
1778774741.9670672,-68.68,0.01,-0.16,0.138,0.06,9.464,-0.03,-0.04,0.0
1778774741.9770718,-68.67,0.11,-0.26,0.103,0.116,9.416,-0.05,-0.05,0.0
1778774741.987888,-68.66,0.23,-0.39,0.042,0.183,9.323,-0.07,-0.06,-0.01
1778774741.9979057,-68.62,0.35,-0.55,-0.017,0.263,9.209,-0.08,-0.07,-0.02
1778774742.0079014,-68.57,0.46,-0.73,-0.12,0.387,9.105,-0.11,-0.07,-0.02
1778774742.0179205,-68.49,0.55,-0.94,-0.228,0.535,8.992,-0.12,-0.07,-0.04
1778774742.0270417,-68.39,0.63,-1.14,-0.327,0.668,8.862,-0.14,-0.07,-0.05
1778774742.0378802,-68.28,0.69,-1.34,-0.436,0.788,8.751,-0.15,-0.06,-0.06
1778774742.047911,-68.18,0.74,-1.52,-0.521,0.874,8.648,-0.14,-0.05,-0.06
1778774742.0571046,-68.07,0.75,-1.67,-0.587,0.962,8.592,-0.13,-0.05,-0.06
1778774742.0670605,-67.97,0.74,-1.8,-0.611,1.032,8.62,-0.11,-0.03,-0.06
1778774742.0778832,-67.89,0.68,-1.88,-0.629,1.114,8.704,-0.1,-0.01,-0.05
1778774742.0870593,-67.82,0.57,-1.92,-0.623,1.169,8.796,-0.08,0.02,-0.05
1778774742.0970392,-67.75,0.41,-1.9,-0.581,1.192,8.872,-0.06,0.05,-0.04
1778774742.1070578,-67.7,0.23,-1.84,-0.507,1.186,8.893,-0.03,0.07,-0.04
1778774742.1170695,-67.67,0.03,-1.72,-0.4,1.147,8.871,0.0,0.09,-0.03
1778774742.1270907,-67.65,-0.18,-1.56,-0.262,1.054,8.816,0.03,0.1,-0.02
1778774742.1378846,-67.65,-0.39,-1.37,-0.114,0.921,8.763,0.06,0.11,-0.01
1778774742.147094,-67.66,-0.58,-1.17,0.01,0.762,8.699,0.08,0.11,0.0
1778774742.157049,-67.68,-0.77,-0.97,0.099,0.623,8.642,0.09,0.11,0.01
1778774742.1670132,-67.72,-0.93,-0.77,0.151,0.513,8.587,0.09,0.1,0.02
1778774742.1770496,-67.77,-1.06,-0.57,0.186,0.423,8.563,0.1,0.09,0.02
1778774742.1870155,-67.81,-1.15,-0.38,0.213,0.348,8.563,0.09,0.07,0.02
1778774742.1970336,-67.85,-1.2,-0.2,0.25,0.271,8.579,0.09,0.05,0.02
1778774742.2070317,-67.89,-1.2,-0.05,0.274,0.18,8.572,0.08,0.03,0.02
1778774742.2170196,-67.92,-1.17,0.07,0.281,0.075,8.574,0.08,0.01,0.02
1778774742.2270317,-67.94,-1.12,0.17,0.269,-0.024,8.627,0.06,-0.01,0.01
1778774742.2370439,-67.96,-1.04,0.24,0.218,-0.115,8.713,0.05,-0.03,0.01
1778774742.2470415,-67.98,-0.95,0.27,0.137,-0.174,8.806,0.04,-0.04,0.01
1778774742.2570271,-68.01,-0.85,0.3,0.043,-0.192,8.888,0.02,-0.05,0.01
1778774742.2670355,-68.03,-0.75,0.31,-0.035,-0.168,8.926,0.02,-0.05,0.01
1778774742.2770567,-68.03,-0.66,0.32,-0.109,-0.096,8.905,0.01,-0.06,0.01
1778774742.287025,-68.03,-0.57,0.32,-0.177,0.004,8.829,0.0,-0.06,0.0
1778774742.2970586,-68.02,-0.48,0.33,-0.237,0.121,8.717,-0.01,-0.06,-0.01
1778774742.30701,-68.0,-0.4,0.36,-0.299,0.218,8.562,-0.01,-0.05,-0.02
1778774742.3170004,-67.96,-0.33,0.39,-0.36,0.28,8.403,0.0,-0.05,-0.02
1778774742.326992,-67.91,-0.25,0.41,-0.419,0.303,8.268,0.0,-0.05,-0.02
1778774742.3369987,-67.86,-0.18,0.43,-0.477,0.307,8.161,0.0,-0.05,-0.03
1778774742.3469927,-67.82,-0.12,0.44,-0.544,0.287,8.062,0.0,-0.05,-0.03
1778774742.356995,-67.77,-0.07,0.44,-0.605,0.273,7.979,-0.01,-0.05,-0.03
1778774742.3669903,-67.74,-0.02,0.44,-0.653,0.266,7.925,-0.01,-0.05,-0.02
1778774742.3775637,-67.71,0.03,0.44,-0.689,0.266,7.912,-0.01,-0.05,-0.02
1778774742.3874214,-67.68,0.08,0.43,-0.701,0.266,7.935,-0.01,-0.05,-0.02
1778774742.3969893,-67.67,0.13,0.41,-0.702,0.254,7.997,-0.02,-0.05,-0.02
1778774742.4069726,-67.67,0.16,0.4,-0.695,0.255,8.127,-0.02,-0.05,-0.01
1778774742.4169748,-67.69,0.2,0.38,-0.685,0.259,8.321,-0.02,-0.05,0.0
1778774742.4269705,-67.73,0.22,0.36,-0.675,0.26,8.572,-0.02,-0.04,0.01
1778774742.4369726,-67.78,0.24,0.34,-0.649,0.261,8.87,-0.02,-0.03,0.02
1778774742.4469717,-67.84,0.24,0.31,-0.616,0.267,9.12,-0.02,-0.02,0.02
1778774742.456982,-67.91,0.22,0.3,-0.569,0.287,9.302,-0.02,-0.02,0.03
1778774742.4669716,-67.99,0.19,0.28,-0.52,0.307,9.436,-0.02,-0.01,0.04
1778774742.4769769,-68.06,0.15,0.27,-0.471,0.332,9.535,-0.02,0.0,0.04
1778774742.4869862,-68.13,0.11,0.26,-0.422,0.351,9.608,-0.02,0.01,0.04
1778774742.4969907,-68.21,0.07,0.27,-0.37,0.371,9.662,-0.02,0.01,0.04
1778774742.5070026,-68.27,0.04,0.28,-0.296,0.375,9.7,-0.01,0.01,0.04
1778774742.5169756,-68.33,0.02,0.3,-0.208,0.375,9.729,-0.01,0.01,0.03
1778774742.5269701,-68.38,0.04,0.32,-0.137,0.364,9.75,0.0,0.0,0.03
1778774742.5369763,-68.42,0.07,0.34,-0.062,0.339,9.766,0.0,-0.01,0.02
1778774742.5469382,-68.45,0.14,0.35,0.0,0.283,9.779,0.0,-0.02,0.02
1778774742.5569692,-68.47,0.24,0.34,0.05,0.196,9.787,0.0,-0.04,0.01
1778774742.5669696,-68.47,0.36,0.32,0.081,0.11,9.793,-0.01,-0.05,0.0
1778774742.5769794,-68.47,0.5,0.29,0.087,0.044,9.798,-0.02,-0.07,0.0
1778774742.5869703,-68.46,0.63,0.26,0.073,0.007,9.8,-0.02,-0.08,-0.01
1778774742.5969899,-68.45,0.76,0.23,0.054,0.0,9.803,-0.02,-0.08,-0.01
1778774742.6069715,-68.45,0.87,0.22,0.037,0.0,9.805,-0.02,-0.07,-0.01
1778774742.6169734,-68.46,0.97,0.24,0.028,-0.014,9.806,-0.01,-0.07,0.0
1778774742.6269732,-68.47,1.07,0.25,0.016,-0.046,9.808,0.01,-0.06,0.0
1778774742.6369748,-68.48,1.17,0.29,0.006,-0.093,9.809,0.02,-0.06,0.0
1778774742.6469383,-68.49,1.27,0.32,0.011,-0.145,9.81,0.02,-0.06,0.0
1778774742.6569302,-68.51,1.38,0.34,0.006,-0.212,9.811,0.02,-0.06,0.0
1778774742.6669362,-68.52,1.49,0.34,-0.011,-0.274,9.811,0.02,-0.07,0.01
1778774742.6769438,-68.54,1.6,0.33,-0.04,-0.333,9.812,0.01,-0.07,0.01
1778774742.68696,-68.57,1.7,0.32,-0.078,-0.387,9.814,0.01,-0.07,0.01
1778774742.6969652,-68.59,1.79,0.29,-0.108,-0.437,9.815,0.0,-0.07,0.01
1778774742.7069533,-68.61,1.86,0.26,-0.119,-0.496,9.815,0.0,-0.06,0.01
1778774742.716972,-68.64,1.93,0.22,-0.12,-0.562,9.815,-0.01,-0.05,0.01
1778774742.7269228,-68.68,1.98,0.17,-0.127,-0.638,9.815,-0.01,-0.05,0.02
1778774742.736923,-68.7,2.02,0.11,-0.157,-0.698,9.815,-0.01,-0.04,0.02
1778774742.7469401,-68.74,2.05,0.03,-0.196,-0.738,9.784,-0.02,-0.04,0.02
1778774742.7569718,-68.77,2.06,-0.05,-0.237,-0.746,9.708,-0.02,-0.03,0.02
1778774742.7669058,-68.79,2.06,-0.14,-0.272,-0.715,9.606,-0.03,-0.03,0.02
1778774742.7777581,-68.82,2.08,-0.23,-0.296,-0.663,9.479,-0.04,-0.02,0.01
1778774742.7874336,-68.83,2.07,-0.3,-0.308,-0.598,9.33,-0.03,-0.02,0.01
1778774742.7969742,-68.84,2.06,-0.36,-0.32,-0.539,9.199,-0.03,-0.02,0.0
1778774742.8069055,-68.86,2.04,-0.41,-0.348,-0.499,9.108,-0.02,-0.02,0.0
1778774742.8169143,-68.86,2.01,-0.45,-0.383,-0.492,9.087,-0.02,-0.01,0.0
1778774742.826906,-68.86,1.95,-0.48,-0.432,-0.514,9.144,-0.02,0.0,0.0
1778774742.8369234,-68.87,1.85,-0.51,-0.475,-0.559,9.27,-0.01,0.01,0.0
1778774742.8469198,-68.88,1.73,-0.52,-0.499,-0.616,9.412,0.0,0.02,0.0
1778774742.856924,-68.89,1.57,-0.53,-0.514,-0.672,9.517,0.01,0.05,0.0
1778774742.866946,-68.91,1.38,-0.54,-0.501,-0.724,9.596,0.01,0.07,0.01
1778774742.876082,-68.92,1.16,-0.53,-0.474,-0.772,9.653,0.02,0.08,0.01
1778774742.8869042,-68.94,0.93,-0.54,-0.436,-0.825,9.694,0.02,0.1,0.01
1778774742.8969245,-68.95,0.69,-0.54,-0.392,-0.866,9.724,0.02,0.11,0.01
1778774742.9060826,-68.97,0.47,-0.55,-0.339,-0.905,9.747,0.02,0.11,0.01
1778774742.916082,-68.99,0.25,-0.57,-0.296,-0.94,9.763,0.02,0.11,0.01
1778774742.9268856,-68.99,0.05,-0.6,-0.263,-0.984,9.774,0.01,0.11,0.01
1778774742.9368925,-69.0,-0.13,-0.66,-0.242,-1.036,9.785,0.0,0.09,0.0
1778774742.9469023,-68.99,-0.28,-0.74,-0.23,-1.083,9.792,-0.01,0.08,0.0
1778774742.9560785,-68.97,-0.41,-0.83,-0.22,-1.122,9.797,-0.02,0.07,-0.01
1778774742.966078,-68.95,-0.51,-0.93,-0.196,-1.13,9.802,-0.03,0.05,-0.01
1778774742.976094,-68.94,-0.57,-1.04,-0.183,-1.148,9.803,-0.03,0.04,-0.01
1778774742.9869082,-68.94,-0.61,-1.13,-0.166,-1.136,9.806,-0.03,0.02,-0.01
1778774742.9960675,-68.93,-0.61,-1.22,-0.165,-1.141,9.809,-0.03,0.01,-0.01
1778774743.0060694,-68.93,-0.58,-1.29,-0.202,-1.141,9.8,-0.02,-0.01,-0.01
1778774743.0160582,-68.93,-0.51,-1.35,-0.265,-1.16,9.762,-0.02,-0.03,-0.01
1778774743.0260477,-68.92,-0.42,-1.42,-0.347,-1.189,9.723,-0.02,-0.05,-0.01
1778774743.0360496,-68.92,-0.31,-1.5,-0.449,-1.225,9.709,-0.02,-0.07,-0.01
1778774743.046067,-68.9,-0.2,-1.58,-0.58,-1.281,9.72,-0.02,-0.08,-0.01
1778774743.0560532,-68.9,-0.09,-1.68,-0.704,-1.32,9.745,-0.02,-0.08,-0.01
1778774743.0660858,-68.91,0.01,-1.79,-0.813,-1.346,9.764,-0.03,-0.08,-0.01
1778774743.0760338,-68.92,0.09,-1.89,-0.917,-1.362,9.776,-0.03,-0.08,0.0
1778774743.0860696,-68.94,0.14,-1.97,-0.998,-1.399,9.787,-0.03,-0.08,0.0
1778774743.0960493,-68.98,0.17,-2.06,-1.051,-1.432,9.794,-0.02,-0.06,0.01
1778774743.1060326,-69.04,0.17,-2.14,-1.066,-1.443,9.802,-0.02,-0.05,0.02
1778774743.1167874,-69.08,0.17,-2.22,-1.063,-1.456,9.805,-0.02,-0.04,0.02
1778774743.1260343,-69.15,0.15,-2.32,-1.037,-1.438,9.798,-0.02,-0.02,0.03
1778774743.1360185,-69.21,0.12,-2.43,-1.011,-1.407,9.775,-0.03,-0.02,0.03
1778774743.1460268,-69.28,0.08,-2.54,-0.988,-1.353,9.76,-0.04,-0.02,0.03
1778774743.156,-69.34,0.04,-2.66,-0.968,-1.267,9.757,-0.05,-0.01,0.03
1778774743.1660361,-69.4,-0.01,-2.78,-0.948,-1.172,9.773,-0.05,-0.01,0.03
1778774743.1760268,-69.47,-0.07,-2.9,-0.914,-1.068,9.788,-0.05,0.0,0.03
1778774743.186026,-69.53,-0.14,-3.01,-0.868,-0.993,9.798,-0.05,0.01,0.03
1778774743.1959977,-69.59,-0.21,-3.1,-0.81,-0.93,9.805,-0.05,0.01,0.03
1778774743.206016,-69.66,-0.29,-3.19,-0.744,-0.865,9.811,-0.05,0.02,0.03
1778774743.2160385,-69.75,-0.38,-3.28,-0.663,-0.776,9.815,-0.05,0.02,0.04
1778774743.2260015,-69.86,-0.46,-3.35,-0.576,-0.651,9.82,-0.05,0.03,0.05
1778774743.2360013,-69.98,-0.55,-3.4,-0.497,-0.48,9.822,-0.05,0.03,0.06
1778774743.2460177,-70.12,-0.63,-3.44,-0.435,-0.287,9.823,-0.05,0.03,0.07
1778774743.2560322,-70.27,-0.71,-3.46,-0.386,-0.075,9.823,-0.04,0.03,0.08
1778774743.2659833,-70.44,-0.78,-3.45,-0.351,0.123,9.798,-0.04,0.03,0.08
1778774743.2759836,-70.61,-0.82,-3.42,-0.338,0.289,9.78,-0.03,0.02,0.08
1778774743.2860017,-70.8,-0.85,-3.38,-0.342,0.432,9.787,-0.02,0.01,0.09
1778774743.2959826,-70.99,-0.88,-3.34,-0.35,0.557,9.798,-0.02,0.0,0.1
1778774743.306004,-71.2,-0.88,-3.3,-0.353,0.657,9.804,-0.02,-0.01,0.11
1778774743.3160007,-71.43,-0.89,-3.26,-0.375,0.75,9.811,-0.02,-0.02,0.11
1778774743.3259704,-71.68,-0.89,-3.22,-0.405,0.818,9.815,-0.02,-0.02,0.12
1778774743.3359694,-71.95,-0.9,-3.19,-0.431,0.884,9.817,-0.02,-0.02,0.13
1778774743.3459907,-72.23,-0.89,-3.14,-0.447,0.953,9.82,-0.02,-0.02,0.15
1778774743.3560064,-72.54,-0.88,-3.08,-0.451,1.024,9.82,-0.02,-0.02,0.15
1778774743.3659825,-72.85,-0.86,-2.99,-0.448,1.093,9.82,-0.02,-0.02,0.16
1778774743.3759758,-73.17,-0.83,-2.88,-0.444,1.175,9.773,0.0,-0.03,0.17
1778774743.3859491,-73.51,-0.78,-2.73,-0.448,1.251,9.662,0.02,-0.04,0.17
1778774743.3960013,-73.83,-0.72,-2.57,-0.45,1.303,9.507,0.02,-0.05,0.18
1778774743.4068902,-74.15,-0.63,-2.4,-0.465,1.317,9.356,0.04,-0.06,0.17
1778774743.4159732,-74.44,-0.53,-2.24,-0.508,1.283,9.269,0.04,-0.07,0.16
1778774743.4259684,-74.73,-0.43,-2.11,-0.565,1.202,9.264,0.03,-0.08,0.15
1778774743.4359727,-75.0,-0.33,-2.01,-0.606,1.128,9.381,0.02,-0.08,0.15
1778774743.4459538,-75.28,-0.25,-1.92,-0.639,1.09,9.496,0.02,-0.08,0.15
1778774743.4559171,-75.56,-0.21,-1.84,-0.638,1.056,9.58,0.01,-0.06,0.15
1778774743.465922,-75.83,-0.24,-1.76,-0.643,1.08,9.641,0.01,-0.04,0.15
1778774743.4759326,-76.11,-0.32,-1.67,-0.638,1.127,9.687,0.0,0.0,0.15
1778774743.4859304,-76.37,-0.47,-1.6,-0.606,1.175,9.72,0.0,0.03,0.15
1778774743.4959288,-76.6,-0.67,-1.51,-0.539,1.219,9.745,0.0,0.07,0.14
1778774743.5059297,-76.8,-0.91,-1.43,-0.439,1.262,9.763,0.0,0.1,0.12
1778774743.5159395,-76.97,-1.16,-1.35,-0.29,1.309,9.776,0.0,0.12,0.11
1778774743.5259006,-77.1,-1.42,-1.28,-0.122,1.363,9.787,-0.01,0.14,0.08
1778774743.5359128,-77.2,-1.66,-1.21,0.077,1.406,9.796,-0.01,0.15,0.06
1778774743.5459242,-77.24,-1.88,-1.14,0.271,1.435,9.802,-0.02,0.15,0.04
1778774743.5614266,-77.26,-2.05,-1.08,0.442,1.438,9.808,-0.02,0.13,0.02
1778774743.5660338,-77.25,-2.2,-1.03,0.617,1.417,9.81,-0.02,0.12,0.0
1778774743.576009,-77.22,-2.3,-0.97,0.753,1.363,9.812,-0.02,0.1,-0.02
1778774743.5859149,-77.17,-2.36,-0.94,0.881,1.273,9.814,-0.02,0.08,-0.02
1778774743.5959275,-77.11,-2.39,-0.91,0.945,1.188,9.816,-0.02,0.07,-0.03
1778774743.6060152,-77.04,-2.38,-0.9,0.996,1.106,9.816,-0.02,0.05,-0.04
1778774743.6158772,-76.97,-2.34,-0.89,1.021,1.018,9.817,-0.02,0.02,-0.05
1778774743.6258974,-76.88,-2.27,-0.9,0.992,0.942,9.816,-0.02,0.01,-0.05
1778774743.635902,-76.8,-2.18,-0.92,0.964,0.884,9.816,-0.03,-0.01,-0.05
1778774743.645921,-76.73,-2.08,-0.95,0.923,0.854,9.816,-0.04,-0.02,-0.05
1778774743.6558807,-76.64,-1.98,-0.98,0.851,0.844,9.816,-0.04,-0.03,-0.05
1778774743.6658947,-76.55,-1.86,-1.0,0.79,0.818,9.816,-0.04,-0.04,-0.05
1778774743.675929,-76.46,-1.73,-1.03,0.717,0.742,9.816,-0.04,-0.05,-0.05
1778774743.6859317,-76.39,-1.6,-1.09,0.655,0.578,9.815,-0.04,-0.05,-0.05
1778774743.6950278,-76.35,-1.48,-1.14,0.625,0.572,9.814,-0.05,-0.05,-0.04
1778774743.7050424,-76.32,-1.35,-1.17,0.564,0.595,9.814,-0.04,-0.05,-0.02
1778774743.7158797,-76.3,-1.25,-1.19,0.492,0.606,9.814,-0.04,-0.05,-0.02
1778774743.7258966,-76.28,-1.16,-1.2,0.425,0.601,9.814,-0.03,-0.05,-0.02
1778774743.7350347,-76.27,-1.08,-1.21,0.362,0.606,9.814,-0.03,-0.04,-0.02
1778774743.7450335,-76.25,-1.03,-1.22,0.326,0.614,9.814,-0.03,-0.03,-0.02
1778774743.7558963,-76.23,-0.98,-1.23,0.303,0.624,9.812,-0.03,-0.02,-0.01
1778774743.7658978,-76.22,-0.95,-1.23,0.302,0.651,9.812,-0.03,-0.02,-0.01
1778774743.7750504,-76.2,-0.92,-1.23,0.315,0.678,9.812,-0.03,-0.01,-0.02
