timestamp,yaw,pitch,roll,accel_x,accel_y,accel_z,gyro_x,gyro_y,gyro_z
1778774949.4181886,-68.1,-0.26,0.03,-0.042,0.007,9.806,0.0,0.0,0.0
1778774949.428159,-68.1,-0.26,0.03,-0.044,0.008,9.806,0.0,0.0,-0.01
1778774949.4381397,-68.1,-0.26,0.03,-0.043,0.014,9.808,-0.01,-0.01,0.0
1778774949.448144,-68.1,-0.26,0.03,-0.042,0.011,9.808,-0.01,-0.01,0.0
1778774949.458148,-68.1,-0.26,0.03,-0.046,0.01,9.808,0.0,0.0,-0.01
1778774949.4681575,-68.1,-0.26,0.03,-0.046,0.012,9.809,0.0,0.0,0.0
1778774949.478145,-68.1,-0.26,0.03,-0.044,0.011,9.809,-0.01,0.0,0.0
1778774949.488155,-68.1,-0.26,0.03,-0.042,0.012,9.809,-0.01,0.0,0.0
1778774949.4981441,-68.1,-0.26,0.03,-0.044,0.007,9.809,0.0,0.0,0.0
1778774949.5081525,-68.1,-0.26,0.03,-0.046,0.005,9.809,-0.01,0.0,0.0
1778774949.51813,-68.1,-0.26,0.03,-0.046,0.001,9.809,-0.01,0.0,0.0
1778774949.5281503,-68.1,-0.26,0.03,-0.043,0.002,9.809,-0.01,0.0,-0.01
1778774949.538905,-68.1,-0.26,0.03,-0.046,0.011,9.809,0.0,0.0,0.0
1778774949.5488632,-68.1,-0.26,0.03,-0.044,0.011,9.809,-0.01,0.0,0.0
1778774949.5589314,-68.1,-0.26,0.03,-0.051,0.008,9.809,-0.01,0.0,0.0
1778774949.5689147,-68.1,-0.26,0.03,-0.053,0.011,9.809,-0.01,0.0,-0.01
1778774949.5781732,-68.1,-0.26,0.03,-0.051,0.008,9.809,0.0,0.0,0.0
1778774949.5881608,-68.1,-0.26,0.03,-0.05,0.01,9.809,-0.01,0.0,0.0
1778774949.5981472,-68.1,-0.26,0.03,-0.048,0.007,9.809,-0.01,0.0,0.0
1778774949.6081202,-68.1,-0.26,0.03,-0.047,0.014,9.809,0.0,0.0,0.0
1778774949.6181595,-68.1,-0.26,0.03,-0.044,0.014,9.809,-0.01,-0.01,0.0
1778774949.6281414,-68.1,-0.26,0.03,-0.047,0.016,9.809,-0.01,0.0,0.0
1778774949.6381283,-68.1,-0.26,0.03,-0.047,0.013,9.809,-0.01,0.0,0.0
1778774949.6481142,-68.1,-0.26,0.03,-0.048,0.006,9.809,-0.01,0.0,0.0
1778774949.6581397,-68.1,-0.27,0.03,-0.041,0.004,9.809,-0.01,0.0,0.0
1778774949.6681287,-68.1,-0.27,0.03,-0.042,0.006,9.809,-0.01,0.0,-0.01
1778774949.6781414,-68.1,-0.27,0.03,-0.04,0.001,9.809,-0.01,0.0,-0.01
1778774949.6881196,-68.1,-0.27,0.03,-0.043,0.004,9.809,-0.01,0.0,0.0
1778774949.6981485,-68.1,-0.27,0.03,-0.042,0.008,9.809,-0.01,0.0,0.0
1778774949.7081406,-68.1,-0.27,0.03,-0.041,0.007,9.809,0.0,-0.01,0.0
1778774949.7172763,-68.1,-0.27,0.03,-0.04,0.005,9.809,-0.01,0.0,0.0
1778774949.7281318,-68.1,-0.27,0.03,-0.036,0.007,9.809,-0.01,0.0,0.0
1778774949.7381163,-68.1,-0.27,0.03,-0.036,0.007,9.809,-0.01,-0.01,0.0
1778774949.7481503,-68.1,-0.27,0.03,-0.04,0.007,9.809,0.0,0.0,0.0
1778774949.7581267,-68.1,-0.27,0.03,-0.044,0.01,9.809,0.0,-0.01,0.0
1778774949.7681267,-68.1,-0.27,0.03,-0.048,0.01,9.809,-0.01,0.0,-0.01
1778774949.7773066,-68.1,-0.27,0.03,-0.046,0.007,9.809,-0.01,0.0,0.0
1778774949.7881384,-68.1,-0.27,0.03,-0.042,0.007,9.809,0.0,0.0,0.0
1778774949.797305,-68.1,-0.27,0.03,-0.041,0.004,9.809,0.0,0.0,0.0
1778774949.8081815,-68.1,-0.27,0.03,-0.042,0.006,9.809,0.0,-0.01,0.0
1778774949.8181329,-68.1,-0.27,0.03,-0.043,0.011,9.809,-0.01,0.0,0.0
1778774949.827477,-68.1,-0.27,0.03,-0.04,0.008,9.809,-0.01,0.0,0.0
1778774949.8372953,-68.1,-0.27,0.03,-0.042,0.014,9.809,-0.01,0.0,0.0
1778774949.8481293,-68.1,-0.27,0.03,-0.044,0.013,9.809,-0.01,0.0,0.0
1778774949.8581274,-68.1,-0.27,0.03,-0.046,0.011,9.809,-0.01,0.0,-0.01
1778774949.8673036,-68.1,-0.27,0.03,-0.047,0.01,9.809,0.0,-0.01,0.0
1778774949.8772912,-68.1,-0.27,0.03,-0.041,0.01,9.809,0.0,0.0,-0.01
1778774949.8881183,-68.1,-0.27,0.03,-0.04,0.014,9.809,0.0,0.0,0.0
1778774949.8972907,-68.1,-0.27,0.03,-0.042,0.016,9.809,-0.01,0.0,0.0
1778774949.9072845,-68.1,-0.27,0.03,-0.046,0.014,9.809,-0.01,0.0,0.0
1778774949.918111,-68.1,-0.27,0.03,-0.047,0.016,9.809,-0.01,0.0,0.0
1778774949.9272983,-68.1,-0.27,0.03,-0.044,0.007,9.808,-0.01,0.0,-0.01
1778774949.9372864,-68.1,-0.27,0.03,-0.041,0.01,9.809,-0.01,0.0,0.0
1778774949.9472873,-68.1,-0.27,0.03,-0.038,0.011,9.809,0.0,0.0,-0.01
1778774949.9572456,-68.1,-0.27,0.03,-0.038,0.008,9.809,-0.01,0.0,0.0
1778774949.9672601,-68.1,-0.27,0.03,-0.043,0.01,9.809,-0.01,0.0,0.0
1778774949.9772463,-68.1,-0.27,0.03,-0.041,0.005,9.809,0.0,0.0,0.0
1778774949.987258,-68.1,-0.27,0.03,-0.04,0.008,9.809,0.0,0.0,0.0
1778774949.9972365,-68.1,-0.27,0.03,-0.041,0.014,9.809,-0.01,0.0,0.0
1778774950.007261,-68.1,-0.27,0.03,-0.041,0.017,9.809,-0.01,0.0,0.0
1778774950.0172522,-68.1,-0.27,0.03,-0.04,0.012,9.809,-0.01,0.0,0.0
1778774950.027233,-68.1,-0.27,0.03,-0.041,0.012,9.809,-0.01,0.0,0.0
1778774950.0372646,-68.1,-0.27,0.03,-0.042,0.013,9.809,-0.01,0.0,0.0
1778774950.0472662,-68.1,-0.27,0.03,-0.043,0.011,9.809,-0.01,-0.01,0.0
1778774950.0572681,-68.1,-0.27,0.03,-0.046,0.01,9.809,-0.01,-0.01,0.0
1778774950.067259,-68.1,-0.27,0.03,-0.044,0.01,9.809,-0.01,0.0,0.0
1778774950.077236,-68.1,-0.27,0.03,-0.044,0.011,9.809,-0.01,0.0,0.0
1778774950.0872154,-68.1,-0.27,0.03,-0.041,0.01,9.809,-0.01,0.0,0.0
1778774950.0972207,-68.1,-0.27,0.03,-0.037,0.014,9.809,0.0,-0.01,-0.01
1778774950.1072567,-68.1,-0.27,0.03,-0.041,0.012,9.809,-0.01,0.0,0.0
1778774950.117235,-68.1,-0.27,0.03,-0.041,0.007,9.809,0.0,0.0,-0.01
1778774950.127217,-68.1,-0.27,0.03,-0.041,0.011,9.809,0.0,0.0,-0.01
1778774950.1372197,-68.1,-0.27,0.03,-0.043,0.011,9.809,-0.01,-0.01,0.0
1778774950.1472447,-68.1,-0.27,0.03,-0.043,0.012,9.809,0.0,-0.01,0.0
1778774950.157221,-68.1,-0.27,0.03,-0.042,0.014,9.809,-0.01,-0.01,-0.01
1778774950.1672182,-68.1,-0.26,0.03,-0.043,0.013,9.809,-0.01,0.0,0.0
1778774950.1772075,-68.1,-0.26,0.03,-0.042,0.013,9.809,0.0,0.0,0.0
1778774950.1872423,-68.1,-0.26,0.03,-0.043,0.014,9.809,-0.01,0.0,0.0
1778774950.1972206,-68.1,-0.26,0.03,-0.044,0.016,9.809,0.0,-0.01,0.0
1778774950.2072182,-68.1,-0.26,0.03,-0.044,0.017,9.809,-0.01,0.0,-0.01
1778774950.2172275,-68.1,-0.26,0.03,-0.046,0.014,9.809,-0.01,0.0,-0.01
1778774950.2272394,-68.1,-0.26,0.03,-0.047,0.012,9.809,0.0,0.0,0.0
1778774950.2372208,-68.1,-0.26,0.03,-0.048,0.01,9.809,-0.01,-0.01,0.0
1778774950.2471871,-68.1,-0.26,0.03,-0.047,0.01,9.809,0.0,0.0,0.0
1778774950.258042,-68.1,-0.26,0.03,-0.049,0.006,9.809,0.0,0.0,0.0
1778774950.267626,-68.1,-0.26,0.03,-0.044,0.01,9.809,0.0,0.0,0.0
1778774950.2772858,-68.1,-0.26,0.03,-0.042,0.013,9.809,-0.01,0.0,0.0
1778774950.2872262,-68.1,-0.26,0.03,-0.042,0.013,9.809,-0.01,-0.01,0.0
1778774950.2972126,-68.1,-0.26,0.03,-0.046,0.014,9.809,-0.01,0.0,-0.01
1778774950.3071895,-68.1,-0.26,0.03,-0.044,0.012,9.809,0.0,-0.01,0.0
1778774950.3172293,-68.1,-0.26,0.03,-0.042,0.01,9.809,-0.01,0.0,0.0
1778774950.3271914,-68.1,-0.26,0.03,-0.048,0.007,9.809,0.0,0.0,0.0
1778774950.337201,-68.1,-0.26,0.03,-0.046,0.008,9.809,-0.01,0.0,-0.01
1778774950.3471959,-68.1,-0.26,0.03,-0.04,0.016,9.809,-0.01,0.0,-0.01
1778774950.357205,-68.1,-0.26,0.03,-0.041,0.019,9.809,-0.01,0.0,-0.01
1778774950.3671803,-68.1,-0.27,0.04,-0.047,0.02,9.809,-0.01,-0.01,-0.01
1778774950.3771698,-68.1,-0.27,0.04,-0.05,0.019,9.809,-0.01,0.0,-0.01
1778774950.3871703,-68.1,-0.27,0.04,-0.057,0.018,9.809,-0.01,0.0,-0.01
1778774950.3972049,-68.1,-0.27,0.04,-0.053,0.018,9.809,-0.01,0.0,0.0
1778774950.407182,-68.1,-0.27,0.04,-0.053,0.013,9.809,-0.01,-0.01,0.0
1778774950.4171677,-68.1,-0.27,0.04,-0.048,0.011,9.809,-0.01,-0.01,0.0
1778774950.4271908,-68.1,-0.27,0.04,-0.051,0.008,9.809,-0.01,0.0,0.0
1778774950.4371822,-68.1,-0.27,0.04,-0.051,0.007,9.809,-0.01,0.0,0.0
1778774950.4471939,-68.11,-0.27,0.04,-0.05,0.005,9.81,0.0,0.0,0.0
1778774950.4571843,-68.11,-0.27,0.04,-0.048,0.006,9.81,-0.01,0.0,0.0
1778774950.4671464,-68.11,-0.27,0.04,-0.048,0.004,9.81,0.0,0.0,0.0
1778774950.4771943,-68.11,-0.27,0.04,-0.041,0.002,9.81,-0.01,0.0,0.0
1778774950.487158,-68.11,-0.27,0.04,-0.042,0.005,9.81,0.0,0.0,-0.01
1778774950.4971485,-68.11,-0.27,0.04,-0.043,0.006,9.81,-0.01,-0.01,0.0
1778774950.507191,-68.11,-0.27,0.04,-0.04,0.012,9.81,-0.01,0.0,0.0
1778774950.5171638,-68.11,-0.27,0.04,-0.038,0.016,9.81,0.0,0.0,0.0
1778774950.5271416,-68.11,-0.27,0.04,-0.036,0.013,9.81,-0.01,0.0,-0.01
1778774950.5371294,-68.11,-0.27,0.04,-0.037,0.004,9.81,-0.01,0.0,0.0
1778774950.5471888,-68.11,-0.27,0.04,-0.04,0.0,9.81,-0.01,0.0,-0.01
1778774950.5571637,-68.11,-0.27,0.04,-0.043,0.004,9.81,-0.01,0.0,-0.01
1778774950.5671415,-68.11,-0.27,0.04,-0.047,0.007,9.81,-0.01,0.0,0.0
1778774950.5771303,-68.11,-0.27,0.04,-0.049,0.008,9.81,-0.01,0.0,-0.01
1778774950.5871258,-68.11,-0.27,0.04,-0.047,0.012,9.81,-0.01,0.0,-0.01
1778774950.5971498,-68.11,-0.27,0.04,-0.043,0.01,9.81,-0.01,0.0,0.0
1778774950.607127,-68.11,-0.27,0.04,-0.038,0.008,9.81,-0.01,0.0,0.0
1778774950.6171615,-68.11,-0.27,0.04,-0.037,0.011,9.809,0.0,0.0,0.0
1778774950.6271257,-68.11,-0.27,0.04,-0.038,0.01,9.809,-0.01,0.0,0.0
1778774950.6362872,-68.11,-0.27,0.04,-0.036,0.01,9.809,0.0,0.0,0.0
1778774950.6471202,-68.11,-0.27,0.04,-0.034,0.008,9.809,-0.01,0.0,0.0
1778774950.6562853,-68.11,-0.27,0.04,-0.036,0.01,9.809,0.0,0.0,0.0
1778774950.667122,-68.11,-0.27,0.04,-0.041,0.011,9.809,-0.01,0.0,0.0
1778774950.6762896,-68.11,-0.27,0.04,-0.042,0.016,9.809,-0.01,0.0,0.0
1778774950.6871443,-68.11,-0.27,0.04,-0.044,0.016,9.809,-0.01,0.0,-0.01
1778774950.6963146,-68.11,-0.27,0.04,-0.042,0.011,9.809,0.0,0.0,0.0
1778774950.7062635,-68.11,-0.27,0.04,-0.05,0.011,9.809,-0.01,-0.01,0.0
1778774950.7162845,-68.11,-0.27,0.04,-0.056,0.016,9.809,-0.01,0.0,-0.01
1778774950.7271214,-68.11,-0.27,0.04,-0.053,0.016,9.809,0.0,0.0,-0.01
1778774950.7362878,-68.11,-0.27,0.04,-0.049,0.013,9.809,0.0,-0.01,0.0
1778774950.7462595,-68.11,-0.27,0.04,-0.049,0.012,9.809,-0.01,0.0,0.0
1778774950.75631,-68.11,-0.27,0.04,-0.046,0.007,9.809,-0.01,0.0,0.0
1778774950.766281,-68.11,-0.27,0.04,-0.047,0.004,9.809,-0.01,-0.01,0.0
1778774950.7762878,-68.11,-0.27,0.04,-0.041,0.007,9.809,-0.01,0.0,-0.01
1778774950.7862604,-68.11,-0.27,0.04,-0.04,0.01,9.809,-0.01,0.0,-0.01
1778774950.7962825,-68.11,-0.27,0.04,-0.046,0.012,9.809,0.0,0.0,0.0
1778774950.806261,-68.11,-0.27,0.04,-0.048,0.007,9.809,-0.01,0.0,0.0
1778774950.81628,-68.11,-0.27,0.04,-0.043,0.004,9.809,-0.01,-0.01,0.0
1778774950.8262625,-68.11,-0.27,0.04,-0.041,0.0,9.809,-0.01,0.0,-0.01
1778774950.836304,-68.11,-0.27,0.04,-0.042,0.0,9.809,-0.01,0.0,0.0
1778774950.8462887,-68.11,-0.27,0.04,-0.042,0.002,9.809,-0.01,0.0,0.0
1778774950.856254,-68.12,-0.27,0.04,-0.043,0.006,9.809,-0.01,0.0,0.0
1778774950.8663077,-68.12,-0.27,0.04,-0.043,0.005,9.809,0.0,0.0,0.0
1778774950.8762515,-68.12,-0.27,0.04,-0.044,0.007,9.809,-0.01,0.0,0.0
1778774950.8862832,-68.12,-0.27,0.04,-0.046,0.008,9.809,-0.01,0.0,0.0
1778774950.8962312,-68.12,-0.27,0.04,-0.044,0.012,9.809,0.0,0.0,-0.01
1778774950.9062176,-68.12,-0.27,0.04,-0.047,0.007,9.809,-0.01,0.0,0.0
1778774950.9162407,-68.12,-0.27,0.04,-0.044,0.008,9.809,-0.01,-0.01,0.0
1778774950.9262292,-68.12,-0.27,0.04,-0.046,0.012,9.809,-0.01,0.0,0.0
1778774950.9362316,-68.12,-0.27,0.04,-0.047,0.01,9.809,-0.01,-0.01,0.0
1778774950.9462168,-68.12,-0.27,0.04,-0.048,0.007,9.809,-0.01,0.0,0.0
1778774950.956231,-68.12,-0.27,0.04,-0.044,0.006,9.809,0.0,0.0,0.0
1778774950.966202,-68.12,-0.27,0.04,-0.042,0.007,9.809,-0.01,0.0,0.0
1778774950.9762154,-68.12,-0.27,0.04,-0.041,0.006,9.809,-0.01,0.0,0.0
1778774950.9862149,-68.12,-0.27,0.04,-0.036,0.005,9.809,-0.01,0.0,0.0
1778774950.996201,-68.12,-0.27,0.04,-0.034,0.0,9.809,-0.01,0.0,-0.01
1778774951.0062351,-68.12,-0.27,0.04,-0.036,0.002,9.809,0.0,0.0,0.0
1778774951.0162299,-68.12,-0.27,0.04,-0.037,0.006,9.809,0.0,0.0,0.0
1778774951.0262196,-68.12,-0.27,0.04,-0.037,0.007,9.809,0.0,0.0,0.0
1778774951.036218,-68.12,-0.27,0.04,-0.038,0.007,9.809,-0.01,0.0,-0.01
1778774951.046253,-68.12,-0.27,0.04,-0.041,0.004,9.809,-0.01,0.0,0.0
1778774951.0562027,-68.12,-0.27,0.04,-0.038,0.001,9.809,0.0,0.0,0.0
1778774951.066237,-68.12,-0.27,0.04,-0.047,0.0,9.809,-0.01,0.0,0.0
1778774951.076206,-68.12,-0.27,0.04,-0.05,0.0,9.809,0.0,0.0,-0.01
1778774951.0862348,-68.12,-0.27,0.04,-0.048,-0.001,9.809,0.0,0.0,0.0
1778774951.09619,-68.12,-0.27,0.04,-0.046,0.0,9.809,0.0,-0.01,0.0
1778774951.1062217,-68.12,-0.27,0.04,-0.047,0.006,9.809,-0.01,0.0,0.0
1778774951.1162267,-68.12,-0.27,0.04,-0.049,0.01,9.809,-0.01,-0.01,0.0
1778774951.1261902,-68.12,-0.27,0.04,-0.04,0.006,9.809,-0.01,0.0,0.0
1778774951.1362362,-68.12,-0.27,0.04,-0.04,0.001,9.809,-0.01,0.0,0.0
1778774951.146208,-68.12,-0.27,0.04,-0.042,0.005,9.809,-0.01,0.0,-0.01
1778774951.1561866,-68.12,-0.27,0.04,-0.046,0.005,9.809,-0.01,0.0,-0.01
1778774951.1661909,-68.12,-0.27,0.03,-0.047,0.006,9.809,-0.01,-0.01,0.0
1778774951.1762204,-68.12,-0.27,0.03,-0.046,0.011,9.809,-0.01,0.0,0.0
1778774951.1862137,-68.12,-0.27,0.04,-0.043,0.013,9.809,-0.01,0.0,0.0
1778774951.1961958,-68.12,-0.27,0.04,-0.043,0.008,9.809,0.0,0.0,0.0
1778774951.2062094,-68.12,-0.27,0.04,-0.043,0.002,9.809,-0.01,0.0,0.0
1778774951.2161932,-68.12,-0.27,0.03,-0.036,0.004,9.809,0.0,0.0,0.0
1778774951.2261758,-68.12,-0.27,0.04,-0.041,0.001,9.809,0.0,0.0,-0.01
1778774951.2361906,-68.13,-0.27,0.04,-0.036,-0.001,9.81,0.0,0.0,0.0
1778774951.2461922,-68.13,-0.27,0.03,-0.037,0.0,9.81,-0.01,-0.01,0.0
1778774951.2561924,-68.13,-0.27,0.03,-0.041,-0.002,9.81,-0.01,0.0,0.0
1778774951.266159,-68.13,-0.27,0.03,-0.042,0.0,9.81,-0.01,0.0,0.0
1778774951.2761898,-68.13,-0.27,0.03,-0.038,-0.001,9.81,-0.01,0.0,0.0
1778774951.286193,-68.13,-0.27,0.03,-0.037,0.0,9.81,-0.01,0.0,-0.01
1778774951.296191,-68.13,-0.27,0.03,-0.038,0.002,9.81,-0.01,-0.01,0.0
1778774951.3061903,-68.13,-0.26,0.03,-0.038,0.006,9.81,-0.01,0.0,0.0
1778774951.3161576,-68.13,-0.26,0.03,-0.041,0.011,9.81,0.0,0.0,0.0
1778774951.3261917,-68.13,-0.26,0.03,-0.043,0.011,9.809,0.0,0.0,-0.01
1778774951.3361886,-68.13,-0.26,0.03,-0.047,0.016,9.809,-0.01,-0.01,0.0
1778774951.34619,-68.13,-0.26,0.03,-0.047,0.019,9.809,-0.01,-0.01,0.0
1778774951.356159,-68.13,-0.26,0.03,-0.044,0.022,9.809,-0.01,0.0,0.0
1778774951.366163,-68.13,-0.26,0.03,-0.041,0.024,9.809,0.0,-0.01,-0.01
1778774951.3761446,-68.13,-0.26,0.03,-0.043,0.02,9.809,0.0,0.0,-0.01
1778774951.3861942,-68.13,-0.27,0.04,-0.044,0.022,9.809,-0.01,0.0,0.0
1778774951.396225,-68.13,-0.27,0.04,-0.047,0.02,9.809,0.0,0.0,-0.01
1778774951.406814,-68.13,-0.27,0.04,-0.046,0.02,9.809,0.0,0.0,-0.01
1778774951.416208,-68.13,-0.27,0.04,-0.055,0.016,9.809,0.0,0.0,-0.01
1778774951.4261646,-68.13,-0.27,0.04,-0.057,0.01,9.809,-0.01,0.0,-0.01
1778774951.4361348,-68.13,-0.27,0.04,-0.056,0.007,9.809,0.0,0.0,-0.01
1778774951.4461582,-68.13,-0.27,0.04,-0.05,0.01,9.809,0.0,0.0,0.0
1778774951.4561274,-68.13,-0.27,0.04,-0.054,0.011,9.809,-0.01,0.0,0.0
1778774951.4661272,-68.13,-0.27,0.04,-0.053,0.008,9.809,-0.01,0.0,-0.01
1778774951.4754908,-68.13,-0.27,0.04,-0.051,0.007,9.809,-0.01,-0.01,0.0
1778774951.485322,-68.13,-0.27,0.04,-0.051,0.007,9.809,-0.01,-0.01,-0.01
1778774951.4961581,-68.13,-0.27,0.04,-0.055,0.006,9.809,-0.01,0.0,-0.01
1778774951.5061252,-68.13,-0.27,0.04,-0.051,0.004,9.809,-0.01,0.0,0.0
1778774951.5154412,-68.13,-0.27,0.04,-0.046,0.012,9.809,-0.01,0.0,0.0
1778774951.526304,-68.13,-0.27,0.04,-0.042,0.013,9.809,-0.01,0.0,0.0
1778774951.536109,-68.13,-0.27,0.04,-0.046,0.012,9.809,0.0,0.0,-0.01
1778774951.545279,-68.13,-0.27,0.04,-0.048,0.013,9.809,-0.01,0.0,-0.01
1778774951.5554256,-68.13,-0.27,0.04,-0.049,0.005,9.809,-0.01,0.0,-0.01
1778774951.5662696,-68.13,-0.27,0.04,-0.048,0.005,9.809,0.0,0.0,0.0
1778774951.5754414,-68.13,-0.27,0.04,-0.047,0.005,9.809,0.0,0.0,0.0
1778774951.5862732,-68.13,-0.27,0.04,-0.043,0.006,9.809,-0.01,0.0,0.0
1778774951.5961275,-68.13,-0.27,0.04,-0.041,0.005,9.809,-0.01,-0.01,-0.01
1778774951.605316,-68.13,-0.27,0.04,-0.046,0.007,9.809,-0.01,0.0,-0.01
1778774951.6152859,-68.13,-0.27,0.04,-0.044,0.007,9.809,-0.01,-0.01,0.0
1778774951.6252673,-68.13,-0.27,0.04,-0.046,0.006,9.809,-0.01,0.0,-0.01
1778774951.635286,-68.13,-0.27,0.04,-0.043,0.007,9.809,-0.01,-0.01,-0.01
1778774951.6462595,-68.13,-0.27,0.04,-0.047,0.006,9.809,0.0,-0.01,0.0
1778774951.655285,-68.13,-0.27,0.04,-0.043,0.004,9.809,-0.01,0.0,0.0
1778774951.6661084,-68.13,-0.27,0.04,-0.041,0.008,9.809,-0.01,0.0,0.0
1778774951.6752913,-68.13,-0.27,0.04,-0.037,0.013,9.809,-0.01,0.0,0.0
1778774951.6852653,-68.13,-0.27,0.04,-0.04,0.011,9.809,-0.01,0.0,0.0
1778774951.6961117,-68.13,-0.27,0.04,-0.043,0.012,9.809,-0.01,-0.01,0.0
1778774951.7052681,-68.13,-0.27,0.04,-0.041,0.01,9.809,0.0,-0.01,-0.01
1778774951.7152827,-68.14,-0.27,0.04,-0.043,0.011,9.81,-0.01,0.0,0.0
1778774951.725255,-68.14,-0.27,0.04,-0.041,0.012,9.81,-0.01,0.0,0.0
1778774951.7352583,-68.15,-0.27,0.04,-0.036,0.01,9.809,-0.01,0.0,-0.01
1778774951.7452939,-68.14,-0.27,0.04,-0.034,0.004,9.81,-0.01,0.0,0.0
1778774951.7552848,-68.15,-0.27,0.04,-0.04,0.002,9.809,0.0,-0.01,-0.01
1778774951.7652597,-68.15,-0.27,0.04,-0.038,0.008,9.809,0.0,0.0,0.0
1778774951.775285,-68.15,-0.27,0.04,-0.035,0.008,9.809,0.0,0.0,-0.01
1778774951.7852597,-68.15,-0.27,0.04,-0.031,0.007,9.809,0.0,0.0,0.0
1778774951.7952335,-68.15,-0.26,0.03,-0.035,0.01,9.809,-0.01,-0.01,0.0
1778774951.8052616,-68.15,-0.26,0.04,-0.036,0.013,9.809,-0.01,-0.01,-0.01
1778774951.8152845,-68.15,-0.26,0.04,-0.041,0.01,9.809,0.0,0.0,0.0
1778774951.825257,-68.15,-0.27,0.04,-0.047,0.006,9.809,-0.01,0.0,0.0
1778774951.8352818,-68.15,-0.27,0.04,-0.044,0.008,9.809,0.0,0.0,0.0
1778774951.845258,-68.15,-0.27,0.04,-0.041,0.008,9.809,-0.01,0.0,0.0
1778774951.855375,-68.15,-0.26,0.03,-0.044,0.004,9.809,-0.01,0.0,-0.01
1778774951.8652923,-68.15,-0.27,0.04,-0.044,0.005,9.809,-0.01,-0.01,-0.01
1778774951.8752847,-68.15,-0.27,0.04,-0.041,0.002,9.809,0.0,0.0,0.0
1778774951.885266,-68.15,-0.26,0.03,-0.038,0.007,9.809,-0.01,0.0,0.0
1778774951.8952286,-68.15,-0.26,0.03,-0.04,0.007,9.809,-0.01,0.0,0.0
1778774951.9052649,-68.15,-0.27,0.04,-0.043,0.01,9.809,0.0,0.0,0.0
1778774951.9152417,-68.15,-0.27,0.04,-0.04,0.011,9.809,0.0,0.0,-0.01
1778774951.9252098,-68.15,-0.27,0.04,-0.042,0.008,9.809,0.0,-0.01,0.0
1778774951.9354873,-68.15,-0.27,0.04,-0.041,0.001,9.809,-0.01,0.0,0.0
1778774951.9452288,-68.15,-0.26,0.04,-0.043,0.001,9.809,0.0,0.0,0.0
1778774951.9552383,-68.15,-0.27,0.04,-0.051,0.007,9.809,-0.01,0.0,0.0
1778774951.9651973,-68.15,-0.27,0.04,-0.057,0.007,9.809,-0.01,0.0,0.0
1778774951.9752407,-68.15,-0.27,0.04,-0.048,0.011,9.809,-0.01,0.0,0.0
1778774951.9852278,-68.15,-0.27,0.04,-0.047,0.011,9.809,-0.01,-0.01,0.0
1778774951.9952188,-68.15,-0.27,0.04,-0.051,0.012,9.809,-0.01,-0.01,0.0
1778774952.0051963,-68.15,-0.27,0.04,-0.047,0.008,9.809,0.0,-0.01,0.0
1778774952.0152056,-68.15,-0.27,0.04,-0.046,0.005,9.809,0.0,0.0,0.0
1778774952.0251966,-68.15,-0.27,0.04,-0.05,0.006,9.809,-0.01,0.0,0.0
1778774952.035237,-68.15,-0.27,0.04,-0.044,0.007,9.809,-0.01,-0.01,-0.01
1778774952.0452304,-68.16,-0.27,0.04,-0.041,0.006,9.81,-0.01,-0.01,0.0
1778774952.0551915,-68.16,-0.27,0.04,-0.044,0.007,9.81,-0.01,0.0,0.0
1778774952.06521,-68.16,-0.27,0.04,-0.042,0.01,9.81,-0.01,0.0,0.0
1778774952.0752385,-68.16,-0.27,0.04,-0.04,0.006,9.81,-0.01,0.0,0.0
1778774952.0852084,-68.16,-0.27,0.04,-0.043,0.008,9.81,-0.01,0.0,-0.01
1778774952.0951927,-68.16,-0.27,0.04,-0.043,0.007,9.81,-0.01,0.0,0.0
1778774952.1052096,-68.16,-0.27,0.04,-0.048,0.007,9.81,0.0,0.0,0.0
1778774952.1151931,-68.16,-0.27,0.04,-0.044,0.007,9.81,-0.01,-0.01,0.0
1778774952.1251955,-68.16,-0.27,0.04,-0.046,0.006,9.81,-0.01,0.0,0.0
1778774952.1351736,-68.16,-0.27,0.04,-0.043,0.001,9.81,0.0,-0.01,0.0
1778774952.1451952,-68.16,-0.27,0.04,-0.042,0.004,9.809,-0.01,0.0,0.0
1778774952.155192,-68.16,-0.27,0.04,-0.044,0.002,9.809,-0.01,0.0,0.0
1778774952.1651635,-68.16,-0.27,0.04,-0.048,0.004,9.809,-0.01,0.0,0.0
1778774952.1751914,-68.16,-0.27,0.04,-0.041,0.004,9.809,-0.01,0.0,-0.01
1778774952.1852694,-68.16,-0.27,0.04,-0.041,0.005,9.809,-0.01,0.0,0.0
1778774952.1951518,-68.16,-0.27,0.04,-0.044,0.005,9.809,0.0,0.0,0.0
1778774952.2052007,-68.16,-0.27,0.04,-0.049,0.005,9.809,-0.01,0.0,0.0
1778774952.2151992,-68.16,-0.27,0.04,-0.05,0.004,9.809,-0.01,-0.01,-0.01
1778774952.2251687,-68.16,-0.27,0.04,-0.044,0.005,9.809,-0.01,0.0,-0.01
1778774952.235195,-68.16,-0.27,0.04,-0.044,0.002,9.809,0.0,0.0,0.0
1778774952.2451668,-68.16,-0.27,0.04,-0.048,0.0,9.809,-0.01,0.0,0.0
1778774952.2551472,-68.16,-0.27,0.04,-0.046,-0.004,9.809,-0.01,0.0,0.0
1778774952.265197,-68.16,-0.27,0.04,-0.047,-0.004,9.809,-0.01,0.0,0.0
1778774952.2751615,-68.16,-0.27,0.04,-0.054,-0.004,9.809,-0.01,0.0,0.0
1778774952.2851481,-68.16,-0.27,0.03,-0.051,0.0,9.809,-0.01,-0.01,0.0
1778774952.2951274,-68.16,-0.27,0.03,-0.047,0.006,9.809,-0.01,0.0,0.0
1778774952.3051627,-68.16,-0.27,0.04,-0.043,0.01,9.809,-0.01,0.0,0.0
1778774952.3151443,-68.16,-0.27,0.04,-0.035,0.01,9.809,-0.01,0.0,0.0
1778774952.3251297,-68.16,-0.27,0.04,-0.031,0.007,9.809,-0.01,0.0,0.0
1778774952.3351111,-68.16,-0.26,0.03,-0.035,0.008,9.809,-0.01,0.0,-0.01
1778774952.3451645,-68.17,-0.26,0.03,-0.038,0.004,9.81,-0.01,0.0,0.0
1778774952.3551445,-68.17,-0.27,0.04,-0.04,0.004,9.809,-0.01,-0.01,0.0
1778774952.364338,-68.17,-0.27,0.04,-0.04,0.008,9.809,0.0,0.0,0.0
1778774952.3751442,-68.17,-0.27,0.04,-0.035,0.012,9.809,-0.01,0.0,0.0
1778774952.38513,-68.17,-0.27,0.04,-0.037,0.014,9.809,-0.01,0.0,0.0
1778774952.3942916,-68.17,-0.27,0.04,-0.038,0.011,9.809,-0.01,0.0,0.0
1778774952.4051461,-68.17,-0.27,0.04,-0.041,0.005,9.809,-0.01,-0.01,0.0
1778774952.4143238,-68.17,-0.27,0.04,-0.042,0.005,9.809,0.0,0.0,0.0
1778774952.425149,-68.17,-0.27,0.04,-0.041,0.005,9.809,0.0,0.0,-0.01
1778774952.434284,-68.17,-0.27,0.04,-0.042,0.006,9.809,0.0,0.0,0.0
1778774952.445132,-68.17,-0.27,0.04,-0.041,0.008,9.809,0.0,0.0,0.0
1778774952.4552526,-68.17,-0.27,0.04,-0.041,0.008,9.809,-0.01,0.0,-0.01
1778774952.4643114,-68.17,-0.27,0.04,-0.042,0.01,9.809,-0.01,0.0,-0.01
1778774952.4742692,-68.17,-0.27,0.04,-0.043,0.01,9.809,-0.01,0.0,0.0
1778774952.4851174,-68.17,-0.27,0.04,-0.036,0.008,9.809,-0.01,0.0,0.0
1778774952.4942696,-68.17,-0.27,0.04,-0.035,0.011,9.809,-0.01,0.0,0.0
1778774952.505133,-68.17,-0.27,0.04,-0.038,0.01,9.809,-0.01,0.0,0.0
1778774952.5142686,-68.17,-0.27,0.04,-0.046,0.01,9.809,-0.01,0.0,0.0
1778774952.5251322,-68.17,-0.27,0.04,-0.044,0.016,9.809,0.0,0.0,0.0
1778774952.5342844,-68.17,-0.27,0.04,-0.044,0.016,9.809,0.0,0.0,-0.01
1778774952.544265,-68.17,-0.27,0.04,-0.042,0.017,9.809,-0.01,0.0,-0.01
1778774952.5542839,-68.17,-0.27,0.04,-0.042,0.011,9.809,0.0,0.0,0.0
1778774952.56429,-68.17,-0.27,0.04,-0.041,0.011,9.809,-0.01,0.0,0.0
1778774952.5742686,-68.17,-0.27,0.04,-0.041,0.007,9.809,-0.01,0.0,0.0
1778774952.5842717,-68.17,-0.27,0.04,-0.049,0.007,9.809,-0.01,0.0,0.0
1778774952.5942686,-68.17,-0.27,0.04,-0.047,0.005,9.809,-0.01,0.0,0.0
1778774952.6042898,-68.17,-0.27,0.04,-0.047,0.006,9.809,-0.01,0.0,-0.01
1778774952.6142573,-68.17,-0.27,0.04,-0.049,0.008,9.809,-0.01,0.0,-0.01
1778774952.624287,-68.17,-0.27,0.04,-0.05,0.006,9.809,0.0,0.0,0.0
1778774952.6342416,-68.18,-0.27,0.04,-0.041,0.001,9.81,-0.01,0.0,0.0
1778774952.6442902,-68.18,-0.27,0.04,-0.036,0.007,9.81,-0.01,0.0,0.0
1778774952.6542416,-68.18,-0.27,0.04,-0.037,0.016,9.81,0.0,0.0,0.0
1778774952.664288,-68.18,-0.27,0.04,-0.04,0.014,9.81,-0.01,0.0,0.0
1778774952.6743119,-68.18,-0.27,0.04,-0.044,0.014,9.81,-0.01,0.0,0.0
1778774952.6842546,-68.18,-0.27,0.04,-0.044,0.014,9.81,-0.01,-0.01,0.0
1778774952.6942537,-68.18,-0.27,0.04,-0.043,0.012,9.81,0.0,0.0,0.0
1778774952.7042542,-68.18,-0.27,0.04,-0.043,0.013,9.81,-0.01,0.0,0.0
1778774952.7142682,-68.18,-0.27,0.04,-0.042,0.017,9.81,-0.01,-0.01,0.0
1778774952.7242682,-68.18,-0.27,0.04,-0.044,0.013,9.81,-0.01,-0.01,0.0
1778774952.7342122,-68.18,-0.27,0.04,-0.049,0.012,9.809,0.0,0.0,0.0
1778774952.7442386,-68.18,-0.27,0.05,-0.048,0.013,9.809,0.0,0.0,0.0
1778774952.754223,-68.18,-0.27,0.04,-0.046,0.012,9.809,-0.01,-0.01,0.0
1778774952.7642093,-68.18,-0.27,0.05,-0.042,0.01,9.809,-0.01,0.0,0.0
1778774952.7742362,-68.18,-0.27,0.04,-0.038,0.012,9.809,-0.01,0.0,0.0
1778774952.7842407,-68.18,-0.27,0.04,-0.041,0.007,9.809,-0.01,0.0,0.0
1778774952.794231,-68.18,-0.27,0.04,-0.043,0.008,9.809,-0.01,-0.01,0.0
1778774952.8042593,-68.18,-0.27,0.04,-0.038,0.006,9.809,0.0,-0.01,0.0
1778774952.814247,-68.18,-0.27,0.04,-0.034,0.006,9.809,-0.01,0.0,0.0
1778774952.8242168,-68.18,-0.27,0.04,-0.037,0.006,9.809,0.0,-0.01,0.0
1778774952.834233,-68.18,-0.27,0.04,-0.043,0.006,9.809,0.0,0.0,0.0
1778774952.8442204,-68.18,-0.27,0.04,-0.046,0.0,9.809,-0.01,-0.01,0.0
1778774952.854198,-68.18,-0.27,0.04,-0.043,0.0,9.809,-0.01,0.0,0.0
1778774952.864247,-68.19,-0.27,0.04,-0.044,0.004,9.81,-0.01,0.0,0.0
1778774952.8742464,-68.19,-0.27,0.04,-0.046,0.002,9.81,-0.01,0.0,0.0
1778774952.8842022,-68.2,-0.27,0.04,-0.041,0.006,9.809,-0.01,0.0,0.0
1778774952.8942468,-68.2,-0.27,0.04,-0.04,0.008,9.809,-0.01,0.0,0.0
1778774952.904214,-68.2,-0.27,0.04,-0.037,0.008,9.809,0.0,-0.01,0.0
1778774952.9142308,-68.2,-0.27,0.04,-0.044,0.005,9.809,0.0,0.0,0.0
1778774952.9242194,-68.2,-0.27,0.04,-0.043,0.004,9.809,0.0,0.0,-0.01
1778774952.9341998,-68.2,-0.27,0.04,-0.043,0.006,9.809,-0.01,0.0,0.0
1778774952.9442334,-68.2,-0.27,0.04,-0.04,0.01,9.809,-0.01,0.0,0.0
1778774952.9541984,-68.2,-0.27,0.04,-0.044,0.016,9.809,-0.01,0.0,0.0
1778774952.9642026,-68.2,-0.27,0.04,-0.047,0.013,9.809,-0.01,0.0,0.0
1778774952.9742007,-68.2,-0.27,0.04,-0.04,0.014,9.809,-0.01,0.0,0.0
1778774952.9841998,-68.2,-0.27,0.04,-0.035,0.012,9.809,-0.01,0.0,0.0
1778774952.9942188,-68.2,-0.27,0.04,-0.037,0.013,9.809,0.0,0.0,0.0
1778774953.0042002,-68.2,-0.27,0.04,-0.043,0.011,9.809,-0.01,0.0,0.0
1778774953.0142155,-68.2,-0.27,0.04,-0.044,0.012,9.809,-0.01,0.0,0.0
1778774953.0241835,-68.2,-0.27,0.04,-0.044,0.016,9.809,-0.01,0.0,0.0
1778774953.0342011,-68.2,-0.27,0.04,-0.041,0.016,9.809,-0.01,0.0,0.0
1778774953.0441995,-68.2,-0.27,0.04,-0.044,0.011,9.809,0.0,-0.01,-0.01
1778774953.054217,-68.2,-0.27,0.04,-0.043,0.008,9.809,0.0,-0.01,0.0
1778774953.064185,-68.2,-0.27,0.04,-0.04,0.011,9.809,0.0,-0.01,0.0
1778774953.074168,-68.2,-0.27,0.04,-0.044,0.01,9.809,-0.01,0.0,-0.01
1778774953.0841997,-68.2,-0.27,0.04,-0.041,0.002,9.809,-0.01,0.0,0.0
1778774953.0941665,-68.2,-0.27,0.04,-0.043,0.004,9.809,0.0,0.0,0.0
1778774953.1042032,-68.2,-0.27,0.04,-0.043,0.002,9.809,0.0,0.0,0.0
1778774953.114216,-68.2,-0.27,0.04,-0.041,0.004,9.809,-0.01,0.0,-0.01
1778774953.1242008,-68.2,-0.27,0.04,-0.046,0.002,9.809,-0.01,-0.01,-0.01
1778774953.134186,-68.2,-0.27,0.04,-0.047,0.01,9.809,-0.01,0.0,0.0
1778774953.1441526,-68.2,-0.27,0.04,-0.043,0.008,9.809,-0.01,0.0,-0.01
1778774953.1541696,-68.2,-0.27,0.04,-0.04,0.008,9.809,0.0,0.0,0.0
1778774953.1641457,-68.2,-0.26,0.05,-0.041,0.006,9.809,0.0,-0.01,0.0
1778774953.1742005,-68.2,-0.26,0.05,-0.044,0.006,9.809,0.0,-0.01,-0.01
1778774953.18413,-68.2,-0.26,0.05,-0.051,0.002,9.809,0.0,-0.01,0.0
1778774953.194133,-68.2,-0.27,0.05,-0.051,0.0,9.809,0.0,0.0,-0.01
1778774953.204153,-68.2,-0.26,0.05,-0.049,0.002,9.809,-0.01,0.0,0.0
1778774953.2141416,-68.2,-0.27,0.05,-0.049,0.007,9.809,-0.01,0.0,0.0
1778774953.2241733,-68.21,-0.27,0.05,-0.044,0.007,9.81,-0.01,0.0,0.0
1778774953.2341502,-68.21,-0.27,0.05,-0.046,0.005,9.81,-0.01,0.0,0.0
1778774953.244169,-68.21,-0.27,0.04,-0.044,0.006,9.81,0.0,0.0,0.0
1778774953.2541552,-68.21,-0.27,0.04,-0.048,0.006,9.81,-0.01,0.0,0.0
1778774953.2641354,-68.21,-0.27,0.04,-0.047,0.007,9.81,-0.01,0.0,0.0
1778774953.2733064,-68.21,-0.27,0.04,-0.048,0.013,9.81,-0.01,0.0,0.0
1778774953.2841597,-68.21,-0.27,0.05,-0.043,0.02,9.81,-0.01,0.0,0.0
1778774953.2941225,-68.21,-0.27,0.05,-0.042,0.025,9.81,0.0,0.0,0.0
1778774953.3041737,-68.21,-0.27,0.05,-0.035,0.023,9.81,0.0,0.0,-0.01
1778774953.3141415,-68.21,-0.27,0.05,-0.037,0.012,9.81,0.0,0.0,-0.01
1778774953.3241398,-68.21,-0.27,0.05,-0.043,0.007,9.81,0.0,-0.01,-0.01
1778774953.3333163,-68.21,-0.27,0.05,-0.046,0.005,9.81,0.0,0.0,0.0
1778774953.3432896,-68.21,-0.27,0.05,-0.047,0.008,9.81,-0.01,0.0,-0.01
1778774953.3533192,-68.21,-0.27,0.05,-0.049,0.012,9.81,-0.01,0.0,-0.01
1778774953.3641407,-68.21,-0.27,0.05,-0.044,0.023,9.81,-0.01,0.0,0.0
1778774953.373305,-68.21,-0.27,0.05,-0.042,0.02,9.81,-0.01,0.0,0.0
1778774953.3841407,-68.21,-0.27,0.05,-0.038,0.017,9.809,0.0,0.0,0.0
1778774953.3934124,-68.21,-0.27,0.05,-0.044,0.01,9.809,-0.01,0.0,0.0
1778774953.4033308,-68.21,-0.27,0.05,-0.047,0.002,9.809,-0.01,-0.01,-0.01
1778774953.413422,-68.21,-0.28,0.04,-0.048,0.002,9.809,-0.01,0.0,0.0
1778774953.423316,-68.21,-0.28,0.04,-0.047,0.007,9.809,-0.01,0.0,0.0
1778774953.4333038,-68.21,-0.28,0.04,-0.044,0.012,9.809,-0.01,0.0,0.0
1778774953.4432583,-68.21,-0.28,0.04,-0.04,0.018,9.809,-0.01,0.0,0.0
1778774953.4532807,-68.21,-0.28,0.04,-0.044,0.018,9.809,-0.01,0.0,0.0
1778774953.4632576,-68.21,-0.28,0.04,-0.048,0.01,9.809,0.0,0.0,0.0
1778774953.4732752,-68.21,-0.28,0.04,-0.053,0.005,9.809,-0.01,0.0,-0.01
1778774953.4832556,-68.21,-0.28,0.04,-0.048,-0.001,9.809,-0.01,0.0,0.0
1778774953.493279,-68.21,-0.27,0.03,-0.048,0.002,9.809,-0.01,0.0,0.0
1778774953.503256,-68.21,-0.27,0.03,-0.048,0.011,9.809,-0.01,0.0,0.0
1778774953.513234,-68.22,-0.27,0.04,-0.048,0.012,9.81,-0.01,0.0,0.0
1778774953.5232308,-68.22,-0.28,0.04,-0.046,0.014,9.81,-0.01,-0.01,0.0
1778774953.5332167,-68.22,-0.27,0.04,-0.043,0.007,9.81,0.0,-0.01,-0.01
1778774953.5432408,-68.22,-0.27,0.04,-0.044,-0.001,9.81,0.0,-0.01,0.0
1778774953.553255,-68.22,-0.27,0.03,-0.046,0.0,9.81,-0.01,0.0,0.0
1778774953.5632148,-68.22,-0.28,0.03,-0.04,0.006,9.809,-0.01,0.0,0.0
1778774953.573241,-68.22,-0.27,0.02,-0.031,0.013,9.809,-0.01,0.0,0.0
1778774953.583336,-68.22,-0.27,0.03,-0.024,0.037,9.81,-0.01,0.0,0.0
1778774953.5935435,-68.22,-0.27,0.04,-0.029,0.042,9.81,0.0,-0.01,-0.01
1778774953.6032534,-68.22,-0.27,0.04,-0.032,0.03,9.809,0.0,-0.01,0.0
1778774953.6132367,-68.22,-0.27,0.04,-0.037,0.01,9.809,0.0,-0.01,0.0
1778774953.6232312,-68.22,-0.27,0.04,-0.051,-0.005,9.809,0.0,-0.01,-0.01
1778774953.6332204,-68.22,-0.27,0.04,-0.053,-0.013,9.809,0.0,-0.01,-0.01
1778774953.643217,-68.22,-0.27,0.03,-0.06,-0.01,9.809,-0.01,0.0,-0.01
1778774953.6532192,-68.22,-0.27,0.03,-0.051,-0.01,9.809,-0.01,0.0,0.0
1778774953.6632457,-68.22,-0.27,0.02,-0.044,0.002,9.809,-0.01,0.0,0.0
1778774953.6732337,-68.22,-0.27,0.02,-0.035,0.019,9.809,-0.01,0.0,0.0
1778774953.6832254,-68.22,-0.27,0.03,-0.036,0.029,9.809,-0.01,0.0,0.0
1778774953.6932192,-68.22,-0.27,0.04,-0.028,0.048,9.809,0.0,0.0,-0.01
1778774953.7032378,-68.22,-0.27,0.05,-0.024,0.059,9.809,0.0,-0.01,0.0
1778774953.7132347,-68.22,-0.26,0.07,-0.02,0.06,9.809,0.0,-0.01,-0.01
1778774953.7232006,-68.22,-0.25,0.08,-0.025,0.047,9.809,0.0,-0.01,0.0
1778774953.7331898,-68.22,-0.25,0.1,-0.041,0.024,9.809,0.01,-0.01,0.0
1778774953.7432315,-68.22,-0.24,0.11,-0.048,0.008,9.809,0.01,-0.01,0.0
1778774953.7532487,-68.22,-0.24,0.13,-0.056,-0.019,9.809,0.01,-0.01,0.0
1778774953.763227,-68.22,-0.23,0.13,-0.072,-0.041,9.809,0.0,-0.01,0.0
1778774953.7732327,-68.22,-0.24,0.13,-0.089,-0.068,9.809,0.0,-0.01,-0.01
1778774953.7831964,-68.22,-0.24,0.11,-0.09,-0.091,9.809,0.0,0.0,-0.01
1778774953.7932484,-68.22,-0.25,0.09,-0.095,-0.091,9.809,-0.01,0.0,0.0
1778774953.8032172,-68.22,-0.26,0.08,-0.087,-0.067,9.809,-0.01,0.0,-0.01
1778774953.813233,-68.22,-0.27,0.06,-0.071,-0.037,9.809,-0.02,0.0,-0.01
1778774953.8232298,-68.22,-0.27,0.05,-0.051,-0.007,9.809,-0.02,0.0,-0.01
1778774953.8332026,-68.22,-0.28,0.04,-0.046,0.02,9.809,-0.01,0.0,0.0
1778774953.8432014,-68.22,-0.28,0.05,-0.04,0.034,9.809,-0.01,0.0,0.0
1778774953.8532355,-68.22,-0.28,0.05,-0.029,0.04,9.808,-0.01,0.0,0.0
1778774953.8631973,-68.22,-0.28,0.04,-0.031,0.044,9.809,-0.01,0.0,0.0
1778774953.873204,-68.22,-0.28,0.05,-0.038,0.041,9.809,-0.01,0.0,-0.01
1778774953.883215,-68.22,-0.28,0.05,-0.038,0.035,9.809,0.0,0.0,0.0
1778774953.8932004,-68.22,-0.28,0.05,-0.038,0.022,9.809,0.0,0.0,0.0
1778774953.9032152,-68.22,-0.28,0.05,-0.037,0.011,9.809,0.0,0.0,0.0
1778774953.9132094,-68.22,-0.28,0.05,-0.042,0.005,9.809,0.0,-0.01,-0.01
1778774953.9232085,-68.23,-0.28,0.05,-0.046,-0.002,9.81,0.0,-0.01,-0.01
1778774953.933208,-68.23,-0.28,0.04,-0.042,-0.001,9.81,0.0,-0.01,0.0
1778774953.943172,-68.23,-0.28,0.05,-0.041,0.01,9.81,-0.01,0.0,0.0
1778774953.953205,-68.23,-0.28,0.05,-0.043,0.012,9.81,0.0,0.0,0.0
1778774953.9631696,-68.23,-0.28,0.05,-0.042,0.008,9.81,0.0,0.0,0.0
1778774953.9732053,-68.23,-0.28,0.05,-0.043,0.0,9.81,0.0,-0.01,0.0
1778774953.9832022,-68.23,-0.27,0.05,-0.051,-0.005,9.81,-0.01,-0.01,0.0
1778774953.9932048,-68.23,-0.28,0.04,-0.05,-0.013,9.809,-0.01,0.0,0.0
1778774954.0032148,-68.23,-0.28,0.04,-0.041,-0.001,9.809,-0.01,0.0,0.0
1778774954.0131876,-68.23,-0.27,0.05,-0.034,0.014,9.81,-0.01,0.0,-0.01
1778774954.0231693,-68.23,-0.27,0.05,-0.037,0.024,9.809,0.0,-0.01,-0.01
1778774954.033153,-68.23,-0.26,0.06,-0.037,0.008,9.809,0.0,-0.01,0.0
1778774954.0431535,-68.23,-0.27,0.06,-0.051,-0.011,9.809,0.0,-0.01,-0.01
1778774954.0531595,-68.23,-0.27,0.06,-0.057,-0.026,9.809,0.0,-0.01,-0.01
1778774954.0631697,-68.23,-0.27,0.05,-0.06,-0.03,9.809,0.0,0.0,0.0
1778774954.0731597,-68.23,-0.27,0.05,-0.05,-0.012,9.809,-0.01,0.0,0.0
1778774954.0831547,-68.23,-0.27,0.05,-0.043,0.005,9.809,-0.01,0.0,-0.01
1778774954.0931401,-68.23,-0.27,0.05,-0.04,0.014,9.809,-0.01,0.0,0.0
1778774954.1031687,-68.23,-0.26,0.06,-0.042,0.006,9.809,0.0,-0.01,0.0
1778774954.1131728,-68.23,-0.26,0.06,-0.048,-0.011,9.809,0.0,-0.01,-0.01
1778774954.1231706,-68.23,-0.27,0.05,-0.051,-0.013,9.809,0.0,-0.01,-0.01
1778774954.1331553,-68.23,-0.27,0.05,-0.046,-0.005,9.809,-0.01,0.0,0.0
1778774954.1431394,-68.23,-0.27,0.05,-0.041,0.005,9.809,-0.01,0.0,-0.01
1778774954.1523268,-68.23,-0.26,0.06,-0.037,0.019,9.809,-0.01,0.0,0.0
1778774954.1631532,-68.23,-0.26,0.07,-0.043,0.025,9.809,0.0,-0.01,0.0
1778774954.173157,-68.23,-0.26,0.08,-0.044,0.02,9.809,0.0,-0.01,-0.01
1778774954.1831388,-68.23,-0.26,0.08,-0.047,0.008,9.809,0.0,-0.01,-0.01
1778774954.1923306,-68.23,-0.26,0.08,-0.05,-0.005,9.809,0.0,-0.01,0.0
1778774954.2023156,-68.23,-0.26,0.08,-0.056,-0.022,9.809,0.0,-0.01,-0.01
1778774954.2123122,-68.23,-0.27,0.07,-0.062,-0.029,9.809,-0.01,0.0,-0.01
1778774954.2223167,-68.23,-0.27,0.06,-0.057,-0.024,9.809,-0.01,0.0,-0.01
1778774954.2322962,-68.23,-0.27,0.06,-0.049,-0.013,9.809,-0.01,0.0,-0.01
1778774954.2431533,-68.23,-0.27,0.05,-0.044,0.002,9.809,-0.01,0.0,-0.01
1778774954.253155,-68.23,-0.27,0.05,-0.036,0.016,9.809,-0.01,0.0,0.0
1778774954.263136,-68.23,-0.27,0.05,-0.037,0.019,9.809,-0.01,0.0,-0.01
1778774954.2722976,-68.23,-0.27,0.05,-0.038,0.005,9.809,0.0,0.0,-0.01
1778774954.2831345,-68.23,-0.27,0.05,-0.046,-0.007,9.809,0.0,0.0,0.0
1778774954.2923262,-68.23,-0.27,0.05,-0.05,-0.013,9.809,-0.01,0.0,0.0
1778774954.3022745,-68.23,-0.28,0.04,-0.049,-0.014,9.809,-0.01,0.0,0.0
1778774954.3122993,-68.23,-0.28,0.04,-0.049,-0.013,9.809,-0.01,0.0,0.0
1778774954.3223052,-68.23,-0.28,0.03,-0.05,-0.005,9.809,-0.01,0.0,0.0
1778774954.3322947,-68.23,-0.28,0.02,-0.037,0.002,9.809,-0.01,0.0,0.0
1778774954.342276,-68.23,-0.29,0.02,-0.031,0.012,9.809,-0.01,0.0,-0.01
1778774954.3522985,-68.23,-0.29,0.02,-0.028,0.026,9.809,-0.01,0.0,0.0
1778774954.362274,-68.23,-0.28,0.02,-0.024,0.036,9.809,-0.01,0.0,0.0
1778774954.372298,-68.24,-0.28,0.02,-0.028,0.035,9.81,-0.01,0.0,0.0
1778774954.3822954,-68.24,-0.28,0.02,-0.028,0.025,9.81,0.0,-0.01,0.0
1778774954.3922973,-68.24,-0.28,0.02,-0.037,0.01,9.81,0.0,-0.01,0.0
1778774954.4022946,-68.24,-0.28,0.02,-0.046,-0.006,9.81,0.0,0.0,-0.01
1778774954.4122674,-68.24,-0.29,0.02,-0.048,-0.012,9.81,-0.01,0.0,0.0
1778774954.4223118,-68.25,-0.29,0.0,-0.055,-0.02,9.809,-0.01,0.0,0.0
1778774954.4322772,-68.25,-0.29,-0.01,-0.053,-0.017,9.809,-0.01,0.0,0.0
1778774954.442231,-68.25,-0.3,-0.03,-0.063,-0.023,9.809,-0.01,0.0,0.0
1778774954.452246,-68.25,-0.31,-0.04,-0.055,-0.012,9.809,-0.02,0.0,0.0
1778774954.4630597,-68.25,-0.31,-0.06,-0.037,0.014,9.809,-0.02,0.0,0.0
1778774954.472282,-68.25,-0.31,-0.07,-0.029,0.055,9.809,-0.02,0.0,-0.01
1778774954.482295,-68.25,-0.31,-0.06,-0.01,0.104,9.809,-0.01,0.0,-0.01
1778774954.4922478,-68.25,-0.31,-0.04,-0.01,0.121,9.809,-0.01,0.0,0.0
1778774954.5022318,-68.25,-0.3,-0.02,-0.006,0.109,9.809,0.0,-0.01,0.0
1778774954.5122151,-68.25,-0.29,-0.01,-0.024,0.081,9.809,0.0,-0.01,-0.01
1778774954.5222583,-68.25,-0.29,0.0,-0.037,0.043,9.809,0.01,-0.01,0.0
1778774954.5322583,-68.25,-0.29,0.01,-0.056,0.008,9.809,0.0,-0.01,-0.01
1778774954.5422494,-68.25,-0.29,0.01,-0.031,-0.022,9.809,0.0,-0.01,0.0
1778774954.5522168,-68.25,-0.29,0.0,-0.042,-0.019,9.809,0.0,-0.01,0.0
1778774954.5622187,-68.25,-0.29,-0.01,-0.037,-0.005,9.809,-0.01,0.0,-0.01
1778774954.572192,-68.25,-0.29,-0.01,-0.056,0.013,9.809,-0.01,0.0,-0.01
1778774954.5822482,-68.25,-0.3,-0.01,-0.046,0.019,9.809,-0.01,0.0,-0.01
1778774954.5922158,-68.25,-0.29,-0.01,-0.028,0.023,9.809,-0.01,0.0,0.0
1778774954.6022468,-68.25,-0.29,-0.01,-0.024,0.046,9.809,-0.01,-0.01,-0.01
1778774954.612608,-68.24,-0.29,0.0,-0.028,0.057,9.81,0.0,-0.01,-0.01
1778774954.6222055,-68.23,-0.29,0.02,-0.028,0.059,9.809,0.0,-0.01,-0.01
1778774954.6322145,-68.23,-0.28,0.02,-0.023,0.043,9.809,0.0,-0.01,-0.01
1778774954.642201,-68.23,-0.28,0.03,-0.035,0.038,9.809,0.0,-0.01,-0.01
1778774954.6522124,-68.23,-0.28,0.04,-0.038,0.029,9.809,0.0,-0.01,-0.01
1778774954.6622493,-68.23,-0.27,0.05,-0.037,0.012,9.809,0.0,-0.01,0.0
1778774954.672251,-68.23,-0.27,0.05,-0.04,0.004,9.809,0.0,-0.01,-0.01
1778774954.6822019,-68.23,-0.27,0.06,-0.049,0.0,9.809,0.0,-0.01,0.0
1778774954.6922126,-68.23,-0.27,0.06,-0.046,-0.006,9.809,0.0,-0.01,0.0
1778774954.7022367,-68.23,-0.27,0.06,-0.042,-0.002,9.809,0.0,-0.01,0.0
1778774954.7122173,-68.23,-0.27,0.06,-0.038,0.002,9.809,0.0,-0.01,-0.01
1778774954.7222,-68.24,-0.27,0.07,-0.049,0.008,9.81,0.0,-0.01,0.0
1778774954.732201,-68.24,-0.26,0.08,-0.038,0.007,9.81,0.0,-0.01,0.0
1778774954.742201,-68.25,-0.26,0.08,-0.04,0.005,9.809,0.0,-0.01,0.0
1778774954.752199,-68.25,-0.25,0.09,-0.036,-0.007,9.809,0.0,-0.01,0.0
1778774954.7622018,-68.25,-0.25,0.09,-0.047,-0.005,9.809,0.0,-0.01,0.0
1778774954.7721858,-68.25,-0.25,0.09,-0.057,-0.022,9.809,0.0,-0.01,0.0
1778774954.7822018,-68.25,-0.25,0.09,-0.065,-0.03,9.809,0.0,-0.01,0.0
1778774954.792199,-68.25,-0.26,0.08,-0.054,-0.038,9.809,0.0,0.0,0.0
1778774954.8022025,-68.25,-0.26,0.08,-0.056,-0.02,9.809,-0.01,0.0,-0.01
1778774954.8121681,-68.25,-0.26,0.08,-0.055,-0.016,9.809,-0.01,0.0,0.0
1778774954.822202,-68.25,-0.26,0.08,-0.032,-0.008,9.809,-0.01,0.0,0.0
1778774954.8322008,-68.25,-0.26,0.07,-0.048,-0.016,9.809,-0.01,0.0,-0.01
1778774954.8422027,-68.25,-0.26,0.07,-0.046,-0.007,9.809,-0.01,-0.01,-0.01
1778774954.8522,-68.25,-0.26,0.06,-0.048,-0.002,9.809,-0.01,0.0,-0.01
1778774954.8622036,-68.25,-0.26,0.06,-0.044,0.004,9.809,-0.01,0.0,0.0
1778774954.8721726,-68.25,-0.26,0.06,-0.036,0.011,9.809,-0.01,0.0,0.0
1778774954.8821719,-68.25,-0.26,0.06,-0.032,0.03,9.809,-0.01,0.0,-0.01
1778774954.8922093,-68.25,-0.26,0.07,-0.031,0.036,9.809,-0.01,0.0,0.0
1778774954.9022021,-68.25,-0.26,0.07,-0.031,0.035,9.809,0.0,-0.01,0.0
1778774954.9121869,-68.25,-0.26,0.08,-0.034,0.024,9.809,0.0,-0.01,-0.01
1778774954.9221854,-68.25,-0.25,0.09,-0.042,0.008,9.809,0.0,-0.01,-0.01
1778774954.9321563,-68.25,-0.25,0.09,-0.05,-0.002,9.809,0.0,-0.01,0.0
1778774954.942201,-68.25,-0.25,0.09,-0.055,-0.023,9.809,0.0,-0.01,0.0
1778774954.952185,-68.25,-0.25,0.09,-0.061,-0.026,9.809,0.0,-0.01,0.0
1778774954.9621673,-68.25,-0.25,0.09,-0.043,-0.043,9.809,-0.01,0.0,0.0
1778774954.972153,-68.25,-0.25,0.08,-0.053,-0.036,9.809,-0.01,0.0,0.0
1778774954.9821362,-68.25,-0.26,0.07,-0.051,-0.022,9.809,-0.01,0.0,0.0
1778774954.992168,-68.25,-0.26,0.07,-0.054,0.0,9.809,-0.01,0.0,0.0
1778774955.0021522,-68.26,-0.26,0.07,-0.042,0.013,9.81,-0.01,0.0,0.0
1778774955.012137,-68.26,-0.26,0.07,-0.041,0.022,9.81,-0.01,0.0,0.0
1778774955.0213435,-68.26,-0.26,0.07,-0.042,0.024,9.81,0.0,-0.01,-0.01
1778774955.0321524,-68.26,-0.26,0.07,-0.05,0.011,9.81,0.0,-0.01,0.0
1778774955.0421517,-68.26,-0.26,0.07,-0.042,0.004,9.81,0.0,-0.01,-0.01
1778774955.0513096,-68.26,-0.26,0.08,-0.043,0.001,9.81,0.0,0.0,0.0
1778774955.0621665,-68.26,-0.26,0.08,-0.043,0.0,9.81,0.0,0.0,-0.01
1778774955.0721378,-68.26,-0.26,0.08,-0.044,-0.004,9.81,0.0,-0.01,-0.01
1778774955.0821202,-68.26,-0.26,0.08,-0.043,-0.005,9.81,0.0,-0.01,0.0
1778774955.0913143,-68.26,-0.26,0.08,-0.047,-0.007,9.81,0.0,0.0,-0.01
1778774955.101315,-68.26,-0.26,0.08,-0.054,-0.018,9.81,0.0,-0.01,-0.01
1778774955.1113274,-68.26,-0.26,0.07,-0.054,-0.02,9.81,-0.01,-0.01,-0.01
1778774955.121331,-68.26,-0.26,0.07,-0.053,-0.01,9.81,-0.01,0.0,0.0
1778774955.1321373,-68.26,-0.26,0.06,-0.051,-0.006,9.81,-0.01,0.0,0.0
1778774955.142136,-68.26,-0.26,0.06,-0.047,-0.002,9.81,-0.01,0.0,-0.01
1778774955.1513395,-68.26,-0.26,0.06,-0.041,0.001,9.81,-0.01,0.0,0.0
1778774955.1612751,-68.26,-0.26,0.06,-0.042,0.007,9.81,-0.01,0.0,0.0
1778774955.1713006,-68.26,-0.26,0.07,-0.041,0.007,9.81,0.0,-0.01,-0.01
1778774955.181281,-68.26,-0.26,0.07,-0.047,0.007,9.81,0.0,-0.01,0.0
1778774955.1921265,-68.26,-0.26,0.07,-0.054,0.005,9.81,0.0,-0.01,-0.01
1778774955.2012818,-68.26,-0.26,0.08,-0.06,0.0,9.81,0.0,-0.01,-0.01
1778774955.2113013,-68.26,-0.26,0.08,-0.057,-0.008,9.81,0.0,-0.01,-0.01
1778774955.221277,-68.26,-0.26,0.08,-0.056,-0.016,9.81,0.0,-0.01,0.0
1778774955.2313225,-68.26,-0.27,0.07,-0.049,-0.008,9.81,0.0,0.0,-0.01
1778774955.241277,-68.26,-0.26,0.08,-0.046,-0.006,9.81,0.0,0.0,0.0
1778774955.2512455,-68.26,-0.26,0.08,-0.038,0.006,9.81,0.0,0.0,-0.01
1778774955.2612991,-68.26,-0.26,0.08,-0.036,0.016,9.81,0.0,-0.01,0.0
1778774955.2712734,-68.26,-0.25,0.09,-0.038,0.022,9.81,0.0,-0.01,-0.01
1778774955.2812567,-68.26,-0.26,0.1,-0.041,0.018,9.81,0.0,-0.01,0.0
1778774955.2912474,-68.26,-0.25,0.11,-0.042,0.016,9.81,0.0,-0.01,-0.01
1778774955.3012342,-68.26,-0.24,0.11,-0.05,0.001,9.81,0.0,-0.01,-0.01
1778774955.311244,-68.26,-0.24,0.12,-0.053,-0.007,9.81,0.0,-0.01,-0.01
1778774955.321258,-68.26,-0.25,0.12,-0.06,-0.026,9.81,0.0,-0.01,0.0
1778774955.3312757,-68.26,-0.25,0.12,-0.059,-0.044,9.81,0.0,-0.01,-0.01
1778774955.3412592,-68.26,-0.25,0.12,-0.068,-0.046,9.81,0.0,0.0,0.0
1778774955.3512576,-68.26,-0.25,0.11,-0.072,-0.046,9.81,-0.01,0.0,0.0
1778774955.361232,-68.26,-0.26,0.11,-0.06,-0.018,9.81,-0.01,0.0,0.0
1778774955.3716447,-68.26,-0.26,0.11,-0.049,0.0,9.81,-0.01,0.0,0.0
1778774955.3812761,-68.26,-0.25,0.11,-0.048,0.0,9.81,-0.01,0.0,0.0
1778774955.391221,-68.26,-0.25,0.11,-0.047,-0.002,9.81,0.0,-0.01,0.0
1778774955.4012785,-68.26,-0.25,0.11,-0.051,-0.007,9.81,0.0,-0.01,0.0
1778774955.4112668,-68.26,-0.25,0.11,-0.05,-0.008,9.81,0.0,-0.01,-0.01
1778774955.4212487,-68.26,-0.25,0.11,-0.053,-0.014,9.81,0.0,-0.01,-0.01
1778774955.431249,-68.26,-0.25,0.11,-0.049,-0.018,9.81,-0.01,0.0,-0.01
1778774955.4412487,-68.26,-0.25,0.11,-0.048,-0.012,9.81,-0.01,-0.01,0.0
1778774955.4512334,-68.26,-0.25,0.11,-0.043,-0.01,9.81,0.0,-0.01,0.0
1778774955.4612498,-68.26,-0.25,0.11,-0.041,-0.005,9.81,0.0,-0.01,0.0
1778774955.471214,-68.26,-0.24,0.11,-0.036,-0.001,9.81,0.0,-0.01,0.0
1778774955.4812503,-68.26,-0.24,0.12,-0.032,0.002,9.81,0.0,-0.01,0.0
1778774955.491234,-68.26,-0.24,0.13,-0.025,0.018,9.81,0.0,-0.01,-0.01
1778774955.501256,-68.26,-0.23,0.14,-0.023,0.037,9.81,0.0,-0.01,-0.01
1778774955.5112422,-68.26,-0.22,0.17,-0.025,0.041,9.81,0.01,-0.01,-0.01
1778774955.5212529,-68.26,-0.21,0.2,-0.023,0.029,9.81,0.01,-0.01,-0.01
1778774955.531242,-68.25,-0.2,0.22,-0.025,0.013,9.809,0.01,-0.01,-0.01
1778774955.5412517,-68.25,-0.19,0.25,-0.034,-0.014,9.809,0.02,-0.01,-0.01
1778774955.551251,-68.25,-0.19,0.27,-0.053,-0.053,9.809,0.02,-0.01,-0.01
1778774955.5612557,-68.25,-0.18,0.28,-0.073,-0.093,9.809,0.01,-0.01,-0.01
1778774955.571206,-68.25,-0.18,0.29,-0.084,-0.135,9.809,0.01,-0.01,-0.01
1778774955.5812037,-68.25,-0.18,0.28,-0.103,-0.165,9.809,0.01,-0.01,-0.01
1778774955.5912015,-68.25,-0.19,0.27,-0.11,-0.183,9.809,0.0,-0.01,-0.01
1778774955.6012352,-68.25,-0.19,0.25,-0.113,-0.184,9.809,-0.01,0.0,0.0
1778774955.6112003,-68.25,-0.2,0.23,-0.099,-0.159,9.809,-0.01,0.0,0.0
1778774955.6212044,-68.25,-0.21,0.21,-0.096,-0.129,9.809,-0.02,0.0,0.0
1778774955.6312022,-68.25,-0.22,0.19,-0.078,-0.098,9.809,-0.02,0.0,0.0
1778774955.6412327,-68.26,-0.23,0.18,-0.075,-0.077,9.81,-0.01,0.0,0.0
1778774955.6512022,-68.26,-0.23,0.16,-0.067,-0.061,9.81,-0.01,0.0,0.0
1778774955.6612043,-68.26,-0.23,0.16,-0.062,-0.053,9.81,-0.01,0.0,0.0
1778774955.6712015,-68.26,-0.24,0.15,-0.063,-0.051,9.81,-0.01,0.0,0.0
1778774955.681221,-68.26,-0.24,0.13,-0.063,-0.049,9.81,-0.01,0.0,0.0
1778774955.6912036,-68.26,-0.25,0.12,-0.06,-0.053,9.81,-0.01,0.0,0.0
1778774955.7012022,-68.26,-0.25,0.1,-0.061,-0.051,9.81,-0.01,0.0,0.0
1778774955.711201,-68.26,-0.26,0.09,-0.062,-0.049,9.81,-0.01,0.0,0.0
1778774955.7212026,-68.26,-0.26,0.08,-0.061,-0.043,9.81,-0.01,0.0,-0.01
1778774955.73117,-68.26,-0.27,0.06,-0.051,-0.03,9.81,-0.01,0.0,0.0
1778774955.7411551,-68.26,-0.27,0.05,-0.05,-0.02,9.81,-0.01,0.0,0.0
1778774955.7512016,-68.26,-0.28,0.04,-0.046,-0.005,9.81,-0.01,0.0,0.0
1778774955.7612038,-68.26,-0.28,0.03,-0.046,0.006,9.81,-0.01,0.0,-0.01
1778774955.7711701,-68.26,-0.28,0.03,-0.038,0.012,9.809,-0.01,0.0,0.0
1778774955.7811568,-68.26,-0.28,0.03,-0.036,0.018,9.809,-0.01,0.0,0.0
1778774955.7912014,-68.26,-0.28,0.02,-0.04,0.012,9.809,-0.01,0.0,0.0
1778774955.801172,-68.26,-0.28,0.02,-0.04,0.006,9.809,-0.01,0.0,0.0
1778774955.8111525,-68.26,-0.28,0.02,-0.044,-0.007,9.809,0.0,-0.01,0.0
1778774955.8211546,-68.26,-0.28,0.02,-0.049,-0.017,9.809,-0.01,0.0,-0.01
1778774955.8311384,-68.26,-0.29,0.02,-0.05,-0.025,9.809,-0.01,0.0,0.0
1778774955.8412018,-68.26,-0.28,0.01,-0.054,-0.026,9.809,-0.01,0.0,0.0
1778774955.851171,-68.26,-0.29,-0.01,-0.055,-0.025,9.809,-0.01,0.0,0.0
1778774955.8611565,-68.26,-0.29,-0.01,-0.056,-0.028,9.809,-0.01,0.0,0.0
1778774955.871153,-68.27,-0.3,-0.03,-0.06,-0.026,9.81,-0.01,0.0,0.0
1778774955.8811412,-68.27,-0.3,-0.03,-0.054,-0.011,9.81,-0.01,0.0,0.0
1778774955.8912046,-68.27,-0.3,-0.04,-0.047,-0.004,9.81,-0.01,0.0,0.0
1778774955.90116,-68.27,-0.31,-0.05,-0.046,0.004,9.809,-0.01,0.0,0.0
1778774955.9111366,-68.27,-0.31,-0.06,-0.036,0.008,9.81,-0.01,0.0,0.0
1778774955.9211411,-68.27,-0.31,-0.07,-0.032,0.013,9.809,-0.01,0.0,-0.01
1778774955.930329,-68.27,-0.31,-0.07,-0.032,0.022,9.809,-0.01,0.0,0.0
1778774955.9411564,-68.27,-0.31,-0.08,-0.029,0.029,9.809,-0.01,0.0,0.0
1778774955.9511461,-68.27,-0.31,-0.08,-0.026,0.036,9.809,-0.01,0.0,0.0
1778774955.9602976,-68.27,-0.31,-0.08,-0.025,0.042,9.809,-0.01,0.0,0.0
1778774955.9711385,-68.27,-0.31,-0.08,-0.024,0.037,9.809,-0.01,0.0,0.0
1778774955.9803166,-68.27,-0.31,-0.08,-0.029,0.032,9.809,-0.01,0.0,0.0
1778774955.990299,-68.27,-0.32,-0.08,-0.031,0.026,9.809,-0.01,0.0,0.0
1778774956.001154,-68.27,-0.32,-0.08,-0.032,0.025,9.809,-0.01,0.0,0.0
1778774956.0103395,-68.27,-0.31,-0.09,-0.03,0.034,9.809,-0.01,0.0,0.0
1778774956.0202882,-68.27,-0.32,-0.09,-0.03,0.047,9.809,-0.01,0.0,-0.01
1778774956.0302749,-68.27,-0.32,-0.08,-0.028,0.049,9.809,-0.01,0.0,0.0
1778774956.041145,-68.27,-0.31,-0.08,-0.026,0.047,9.809,-0.01,0.0,0.0
1778774956.050291,-68.27,-0.31,-0.08,-0.029,0.041,9.809,0.0,-0.01,0.0
1778774956.0602853,-68.27,-0.31,-0.07,-0.036,0.029,9.809,0.0,-0.01,-0.01
1778774956.070278,-68.27,-0.31,-0.07,-0.047,0.016,9.809,0.0,0.0,0.0
1778774956.080276,-68.27,-0.31,-0.07,-0.05,0.008,9.809,0.0,-0.01,0.0
1778774956.0902758,-68.27,-0.31,-0.08,-0.053,0.013,9.809,-0.01,0.0,0.0
1778774956.1002755,-68.27,-0.32,-0.08,-0.044,0.016,9.809,-0.01,0.0,-0.01
1778774956.1103146,-68.28,-0.32,-0.08,-0.036,0.025,9.81,-0.01,0.0,0.0
1778774956.1202767,-68.28,-0.32,-0.08,-0.025,0.034,9.81,-0.01,0.0,0.0
1778774956.1302996,-68.28,-0.32,-0.08,-0.026,0.031,9.81,-0.01,0.0,0.0
1778774956.1402595,-68.28,-0.32,-0.08,-0.024,0.028,9.81,-0.01,0.0,0.0
1778774956.1502743,-68.28,-0.32,-0.08,-0.034,0.025,9.81,-0.01,0.0,0.0
1778774956.1602743,-68.28,-0.32,-0.08,-0.036,0.026,9.81,-0.01,0.0,0.0
1778774956.1702752,-68.28,-0.32,-0.09,-0.035,0.023,9.81,-0.01,0.0,0.0
1778774956.1802375,-68.28,-0.31,-0.09,-0.038,0.014,9.81,-0.01,0.0,0.0
1778774956.190252,-68.28,-0.32,-0.1,-0.037,0.012,9.81,-0.01,0.0,0.0
1778774956.200269,-68.28,-0.32,-0.1,-0.032,0.013,9.81,-0.01,0.0,0.0
1778774956.2103813,-68.28,-0.33,-0.11,-0.031,0.019,9.81,-0.01,0.0,0.0
1778774956.220658,-68.28,-0.33,-0.12,-0.028,0.028,9.81,-0.01,0.0,0.0
1778774956.2305722,-68.28,-0.33,-0.13,-0.028,0.037,9.809,-0.01,0.0,0.0
1778774956.2402875,-68.28,-0.33,-0.13,-0.026,0.049,9.809,-0.01,0.0,0.0
1778774956.250246,-68.28,-0.34,-0.14,-0.02,0.054,9.809,-0.01,0.0,0.0
1778774956.260213,-68.28,-0.34,-0.14,-0.02,0.068,9.809,-0.01,0.0,0.0
1778774956.2702408,-68.28,-0.34,-0.14,-0.019,0.083,9.809,-0.01,0.0,0.0
1778774956.2802405,-68.28,-0.33,-0.13,-0.024,0.085,9.809,-0.01,0.0,0.0
1778774956.290223,-68.28,-0.33,-0.12,-0.022,0.075,9.809,-0.01,0.0,0.0
1778774956.300279,-68.28,-0.32,-0.12,-0.019,0.063,9.809,0.0,-0.01,0.0
1778774956.3102455,-68.28,-0.32,-0.12,-0.02,0.051,9.809,0.0,0.0,-0.01
1778774956.3202255,-68.28,-0.33,-0.11,-0.02,0.049,9.809,0.0,0.0,0.0
1778774956.330212,-68.28,-0.33,-0.11,-0.022,0.048,9.809,-0.01,0.0,-0.01
1778774956.340266,-68.28,-0.33,-0.11,-0.022,0.054,9.809,-0.01,0.0,-0.01
1778774956.3502467,-68.28,-0.32,-0.1,-0.023,0.061,9.809,-0.01,-0.01,0.0
1778774956.3602128,-68.28,-0.32,-0.1,-0.03,0.057,9.809,0.0,0.0,0.0
1778774956.3702133,-68.28,-0.32,-0.1,-0.034,0.055,9.809,0.0,-0.01,-0.01
1778774956.3802595,-68.29,-0.31,-0.09,-0.036,0.044,9.81,0.0,0.0,-0.01
1778774956.3902311,-68.29,-0.32,-0.09,-0.035,0.043,9.81,0.0,-0.01,0.0
1778774956.4005647,-68.29,-0.32,-0.08,-0.024,0.041,9.81,0.0,0.0,0.0
1778774956.4106252,-68.29,-0.32,-0.08,-0.023,0.046,9.81,0.0,0.0,-0.01
1778774956.4202225,-68.29,-0.31,-0.08,-0.029,0.047,9.81,0.0,0.0,-0.01
1778774956.430239,-68.29,-0.31,-0.08,-0.03,0.043,9.81,0.0,0.0,0.0
1778774956.440205,-68.29,-0.31,-0.07,-0.029,0.038,9.81,0.0,0.0,0.0
1778774956.4502048,-68.29,-0.31,-0.07,-0.031,0.032,9.81,-0.01,0.0,0.0
1778774956.4602354,-68.3,-0.31,-0.07,-0.029,0.038,9.809,-0.01,0.0,0.0
1778774956.4702058,-68.3,-0.31,-0.07,-0.029,0.044,9.809,-0.01,0.0,0.0
1778774956.4802356,-68.3,-0.31,-0.07,-0.028,0.051,9.809,-0.01,0.0,0.0
1778774956.4902067,-68.3,-0.31,-0.07,-0.025,0.054,9.809,-0.01,0.0,0.0
1778774956.5002012,-68.3,-0.31,-0.06,-0.026,0.062,9.809,-0.01,0.0,0.0
1778774956.5102558,-68.3,-0.31,-0.06,-0.028,0.062,9.809,-0.01,0.0,0.0
1778774956.520235,-68.3,-0.31,-0.05,-0.028,0.06,9.809,0.0,-0.01,-0.01
1778774956.5302038,-68.3,-0.31,-0.05,-0.028,0.057,9.809,0.0,0.0,-0.01
1778774956.540204,-68.3,-0.31,-0.05,-0.029,0.047,9.809,0.0,0.0,0.0
1778774956.5502052,-68.3,-0.31,-0.05,-0.03,0.043,9.809,-0.01,0.0,-0.01
1778774956.560172,-68.3,-0.31,-0.04,-0.025,0.043,9.809,-0.01,0.0,0.0
1778774956.5702028,-68.3,-0.3,-0.05,-0.023,0.043,9.809,-0.01,0.0,0.0
1778774956.5802038,-68.3,-0.3,-0.05,-0.026,0.048,9.809,-0.01,0.0,0.0
1778774956.5901885,-68.3,-0.3,-0.05,-0.03,0.049,9.809,-0.01,0.0,-0.01
1778774956.6001534,-68.3,-0.31,-0.04,-0.026,0.051,9.809,-0.01,0.0,0.0
1778774956.6102052,-68.3,-0.31,-0.04,-0.024,0.054,9.809,-0.01,0.0,0.0
1778774956.6201787,-68.3,-0.3,-0.04,-0.028,0.053,9.809,-0.01,0.0,0.0
1778774956.6302025,-68.3,-0.3,-0.04,-0.03,0.053,9.809,0.0,0.0,0.0
1778774956.640187,-68.3,-0.3,-0.03,-0.034,0.048,9.809,0.0,-0.01,0.0
1778774956.650157,-68.3,-0.3,-0.03,-0.036,0.043,9.809,0.0,-0.01,0.0
1778774956.6602027,-68.3,-0.3,-0.02,-0.035,0.038,9.809,0.0,-0.01,0.0
1778774956.670188,-68.3,-0.3,-0.03,-0.038,0.032,9.809,0.0,-0.01,0.0
1778774956.680207,-68.3,-0.3,-0.02,-0.04,0.029,9.809,-0.01,-0.01,-0.01
1778774956.6901557,-68.3,-0.3,-0.03,-0.043,0.025,9.809,-0.01,0.0,0.0
1778774956.700171,-68.3,-0.3,-0.03,-0.042,0.026,9.809,-0.01,0.0,0.0
1778774956.7102172,-68.3,-0.3,-0.03,-0.038,0.034,9.809,-0.01,0.0,0.0
1778774956.7201695,-68.31,-0.3,-0.03,-0.037,0.044,9.81,-0.01,0.0,0.0
1778774956.7301557,-68.31,-0.3,-0.03,-0.03,0.049,9.81,-0.01,0.0,0.0
1778774956.7401376,-68.31,-0.3,-0.03,-0.029,0.046,9.81,-0.01,0.0,0.0
1778774956.7501745,-68.31,-0.3,-0.03,-0.026,0.044,9.81,-0.01,0.0,0.0
1778774956.7601686,-68.31,-0.3,-0.03,-0.034,0.047,9.81,-0.01,0.0,0.0
1778774956.7701557,-68.31,-0.3,-0.03,-0.036,0.041,9.81,-0.01,0.0,0.0
1778774956.7801547,-68.31,-0.3,-0.03,-0.034,0.036,9.81,-0.01,0.0,-0.01
1778774956.7901402,-68.31,-0.3,-0.02,-0.03,0.035,9.81,-0.01,0.0,0.0
1778774956.800121,-68.31,-0.3,-0.02,-0.02,0.034,9.81,-0.01,0.0,0.0
1778774956.810172,-68.31,-0.3,-0.02,-0.032,0.035,9.81,-0.01,0.0,0.0
1778774956.8201392,-68.31,-0.3,-0.02,-0.035,0.037,9.81,-0.01,0.0,0.0
1778774956.8301399,-68.31,-0.3,-0.02,-0.032,0.041,9.81,-0.01,0.0,0.0
1778774956.8401213,-68.31,-0.3,-0.02,-0.031,0.04,9.81,-0.01,0.0,-0.01
1778774956.8493035,-68.31,-0.3,-0.02,-0.025,0.042,9.81,-0.01,0.0,0.0
1778774956.8601542,-68.31,-0.29,-0.01,-0.023,0.041,9.81,0.0,0.0,-0.01
1778774956.8701591,-68.31,-0.29,-0.01,-0.022,0.042,9.81,0.0,-0.01,-0.01
1778774956.8801544,-68.31,-0.29,-0.01,-0.026,0.042,9.81,0.0,-0.01,0.0
1778774956.890127,-68.31,-0.29,0.0,-0.032,0.032,9.81,0.0,-0.01,-0.01
1778774956.8992987,-68.31,-0.29,0.0,-0.035,0.025,9.81,0.0,-0.01,0.0
1778774956.9093075,-68.31,-0.29,0.0,-0.037,0.023,9.81,0.0,-0.01,0.0
1778774956.91928,-68.31,-0.29,0.0,-0.041,0.029,9.81,-0.01,0.0,0.0
1778774956.929295,-68.31,-0.29,0.0,-0.037,0.034,9.809,-0.01,0.0,0.0
1778774956.9392786,-68.31,-0.29,0.0,-0.031,0.04,9.809,-0.01,0.0,0.0
1778774956.9492657,-68.31,-0.29,0.0,-0.03,0.043,9.809,-0.01,0.0,-0.01
1778774956.9592779,-68.31,-0.29,0.0,-0.024,0.047,9.809,-0.01,0.0,-0.01
1778774956.9693496,-68.31,-0.28,0.01,-0.026,0.041,9.809,-0.01,0.0,-0.01
1778774956.979265,-68.31,-0.29,0.01,-0.032,0.04,9.809,0.0,0.0,0.0
1778774956.9893007,-68.31,-0.29,0.01,-0.035,0.032,9.809,0.0,-0.01,0.0
1778774956.999291,-68.31,-0.29,0.01,-0.04,0.025,9.809,0.0,-0.01,0.0
1778774957.0092936,-68.31,-0.29,0.02,-0.037,0.024,9.809,-0.01,0.0,0.0
1778774957.019291,-68.31,-0.29,0.02,-0.032,0.024,9.809,-0.01,0.0,0.0
1778774957.029297,-68.31,-0.29,0.02,-0.032,0.032,9.809,-0.01,0.0,0.0
1778774957.0392427,-68.32,-0.29,0.02,-0.03,0.036,9.81,-0.01,-0.01,0.0
1778774957.049258,-68.32,-0.28,0.02,-0.031,0.037,9.81,0.0,0.0,0.0
1778774957.059243,-68.32,-0.28,0.02,-0.026,0.034,9.81,0.0,0.0,0.0
1778774957.0692174,-68.32,-0.28,0.03,-0.022,0.03,9.81,0.0,-0.01,0.0
1778774957.0792556,-68.32,-0.28,0.03,-0.023,0.026,9.809,0.0,-0.01,0.0
1778774957.089217,-68.32,-0.28,0.03,-0.029,0.019,9.809,0.0,0.0,0.0
1778774957.099274,-68.32,-0.28,0.03,-0.031,0.025,9.809,-0.01,0.0,-0.01
1778774957.109259,-68.32,-0.28,0.03,-0.028,0.028,9.809,-0.01,0.0,-0.01
1778774957.1192431,-68.32,-0.28,0.03,-0.029,0.028,9.809,-0.01,0.0,0.0
1778774957.1292298,-68.32,-0.28,0.03,-0.029,0.028,9.809,-0.01,0.0,0.0
1778774957.1392713,-68.32,-0.28,0.03,-0.029,0.024,9.809,-0.01,0.0,0.0
1778774957.1492555,-68.32,-0.27,0.02,-0.028,0.03,9.809,-0.01,0.0,-0.01
1778774957.159227,-68.32,-0.28,0.03,-0.028,0.037,9.809,-0.01,0.0,0.0
1778774957.1692169,-68.32,-0.28,0.03,-0.036,0.035,9.809,-0.01,0.0,0.0
1778774957.1792402,-68.32,-0.28,0.03,-0.034,0.026,9.809,-0.01,0.0,0.0
1778774957.1892166,-68.32,-0.28,0.03,-0.04,0.016,9.809,-0.01,0.0,0.0
1778774957.1992404,-68.32,-0.28,0.02,-0.042,0.008,9.809,-0.01,0.0,0.0
1778774957.2092311,-68.32,-0.28,0.01,-0.041,0.001,9.809,-0.01,0.0,0.0
1778774957.2192008,-68.32,-0.28,-0.0,-0.037,0.002,9.809,-0.01,0.0,0.0
1778774957.229394,-68.32,-0.29,-0.02,-0.032,0.005,9.809,-0.01,0.0,0.0
1778774957.239262,-68.33,-0.29,-0.03,-0.032,0.008,9.809,-0.01,0.0,0.0
1778774957.2492597,-68.33,-0.3,-0.04,-0.032,0.014,9.809,-0.02,0.0,0.0
1778774957.2592227,-68.33,-0.3,-0.06,-0.031,0.032,9.809,-0.02,0.0,0.0
1778774957.2692795,-68.33,-0.31,-0.07,-0.025,0.054,9.809,-0.02,0.0,0.0
1778774957.27927,-68.33,-0.31,-0.08,-0.016,0.079,9.809,-0.02,0.0,0.0
1778774957.289244,-68.33,-0.31,-0.08,-0.002,0.103,9.809,-0.01,0.0,0.0
1778774957.2992034,-68.33,-0.31,-0.08,0.001,0.119,9.809,-0.01,0.0,0.0
1778774957.3092432,-68.33,-0.3,-0.07,0.0,0.122,9.809,-0.01,0.0,0.0
1778774957.3192189,-68.33,-0.31,-0.06,0.0,0.119,9.809,0.0,0.0,-0.01
1778774957.3292127,-68.33,-0.3,-0.05,-0.007,0.108,9.809,0.0,-0.01,0.0
1778774957.3392408,-68.33,-0.3,-0.04,-0.013,0.098,9.809,0.0,-0.01,0.0
1778774957.349252,-68.33,-0.29,-0.03,-0.02,0.092,9.809,0.0,-0.01,-0.01
1778774957.3592224,-68.33,-0.29,-0.02,-0.03,0.083,9.809,0.0,-0.01,-0.01
1778774957.3692157,-68.33,-0.29,-0.01,-0.034,0.072,9.809,0.0,-0.01,-0.01
1778774957.3792078,-68.33,-0.29,0.0,-0.03,0.061,9.809,0.0,-0.01,-0.01
1778774957.389212,-68.33,-0.28,0.01,-0.026,0.048,9.809,0.0,-0.01,-0.01
1778774957.3992074,-68.33,-0.28,0.01,-0.03,0.042,9.809,0.0,-0.01,-0.01
1778774957.4091942,-68.33,-0.28,0.02,-0.024,0.043,9.809,0.0,-0.01,-0.01
1778774957.4198453,-68.33,-0.28,0.02,-0.026,0.043,9.809,0.0,-0.01,0.0
1778774957.4302077,-68.33,-0.27,0.02,-0.029,0.05,9.809,0.0,-0.01,-0.01
1778774957.4399364,-68.33,-0.27,0.03,-0.026,0.051,9.809,0.0,-0.01,0.0
1778774957.449936,-68.33,-0.27,0.04,-0.024,0.053,9.809,0.0,-0.01,0.0
1778774957.4592612,-68.33,-0.27,0.04,-0.03,0.054,9.809,0.0,-0.01,0.0
1778774957.4692328,-68.33,-0.27,0.05,-0.026,0.048,9.809,0.0,-0.01,-0.01
1778774957.4792073,-68.33,-0.26,0.06,-0.029,0.038,9.809,0.0,-0.01,-0.01
1778774957.4892104,-68.33,-0.26,0.07,-0.031,0.038,9.809,0.0,-0.01,-0.01
1778774957.499207,-68.33,-0.26,0.07,-0.035,0.036,9.809,0.0,-0.01,-0.01
1778774957.5091796,-68.33,-0.26,0.08,-0.04,0.026,9.809,0.0,-0.01,0.0
1778774957.519207,-68.33,-0.26,0.08,-0.04,0.02,9.809,0.0,-0.01,0.0
1778774957.529193,-68.33,-0.26,0.08,-0.044,0.02,9.809,0.0,-0.01,0.0
1778774957.5391579,-68.33,-0.26,0.08,-0.047,0.023,9.809,0.0,-0.01,0.0
1778774957.5492084,-68.33,-0.26,0.08,-0.041,0.029,9.809,0.0,-0.01,0.0
1778774957.5591726,-68.34,-0.25,0.09,-0.036,0.036,9.809,0.0,-0.01,0.0
1778774957.5691602,-68.34,-0.26,0.1,-0.034,0.031,9.809,0.0,-0.01,0.0
1778774957.579141,-68.34,-0.26,0.1,-0.029,0.026,9.809,0.0,-0.01,0.0
1778774957.5891752,-68.34,-0.25,0.1,-0.034,0.02,9.809,0.0,-0.01,0.0
1778774957.5991557,-68.34,-0.25,0.1,-0.035,0.013,9.809,0.0,-0.01,0.0
1778774957.6092238,-68.34,-0.25,0.1,-0.036,0.008,9.809,0.0,-0.01,0.0
1778774957.619157,-68.34,-0.25,0.1,-0.037,0.007,9.81,0.0,-0.01,0.0
1778774957.6291428,-68.34,-0.25,0.1,-0.044,0.006,9.81,-0.01,0.0,0.0
1778774957.639174,-68.34,-0.25,0.09,-0.047,0.007,9.81,-0.01,0.0,0.0
1778774957.6491592,-68.34,-0.25,0.09,-0.041,0.017,9.81,-0.01,0.0,0.0
1778774957.6591396,-68.34,-0.25,0.09,-0.031,0.032,9.81,-0.01,0.0,0.0
1778774957.6683176,-68.34,-0.25,0.09,-0.025,0.041,9.81,-0.01,0.0,0.0
1778774957.679139,-68.34,-0.25,0.1,-0.028,0.043,9.81,0.0,0.0,0.0
1778774957.6891277,-68.35,-0.25,0.1,-0.026,0.042,9.809,0.0,-0.01,0.0
1778774957.6991706,-68.35,-0.25,0.11,-0.03,0.032,9.809,0.0,-0.01,0.0
1778774957.7091563,-68.35,-0.24,0.11,-0.032,0.031,9.809,0.0,-0.01,0.0
1778774957.7191558,-68.35,-0.24,0.11,-0.036,0.036,9.809,0.0,-0.01,-0.01
1778774957.7291436,-68.35,-0.24,0.12,-0.035,0.035,9.809,0.0,-0.01,-0.01
1778774957.738318,-68.35,-0.24,0.13,-0.043,0.035,9.809,0.0,-0.01,0.0
1778774957.7483015,-68.35,-0.24,0.14,-0.047,0.035,9.809,0.0,-0.01,0.0
1778774957.7591157,-68.35,-0.23,0.14,-0.048,0.036,9.809,0.0,-0.01,0.0
1778774957.768302,-68.35,-0.23,0.15,-0.046,0.034,9.809,0.0,-0.01,0.0
1778774957.7791243,-68.35,-0.23,0.16,-0.043,0.029,9.809,0.0,-0.01,0.0
1778774957.7882988,-68.35,-0.22,0.17,-0.046,0.02,9.809,0.0,-0.01,0.0
1778774957.7982805,-68.35,-0.22,0.17,-0.048,0.002,9.809,0.0,-0.01,0.0
1778774957.8083444,-68.35,-0.23,0.18,-0.055,-0.001,9.809,0.0,-0.01,0.0
1778774957.8183084,-68.35,-0.22,0.18,-0.063,-0.006,9.809,0.0,-0.01,-0.01
1778774957.8282926,-68.35,-0.22,0.18,-0.063,-0.007,9.809,0.0,-0.01,-0.01
1778774957.8382936,-68.35,-0.22,0.19,-0.067,-0.004,9.809,0.0,-0.01,-0.01
1778774957.8482785,-68.35,-0.22,0.19,-0.043,0.014,9.809,0.0,-0.01,-0.01
1778774957.85828,-68.35,-0.21,0.21,-0.029,0.03,9.809,0.0,-0.01,-0.01
1778774957.868301,-68.35,-0.2,0.22,-0.036,0.032,9.809,0.0,-0.01,0.0
1778774957.8782792,-68.35,-0.2,0.24,-0.054,0.007,9.809,0.01,-0.01,0.0
1778774957.8882804,-68.35,-0.2,0.25,-0.06,-0.025,9.809,0.01,-0.01,0.0
1778774957.8982944,-68.35,-0.2,0.25,-0.062,-0.035,9.809,0.0,-0.01,0.0
1778774957.9082792,-68.35,-0.2,0.26,-0.065,-0.036,9.809,0.0,-0.01,0.0
1778774957.9183006,-68.35,-0.19,0.27,-0.06,-0.019,9.809,0.0,-0.01,-0.01
1778774957.9282937,-68.35,-0.19,0.28,-0.047,-0.016,9.809,0.0,-0.01,-0.01
1778774957.9382682,-68.35,-0.18,0.29,-0.054,-0.022,9.809,0.01,-0.01,-0.01
1778774957.9482663,-68.35,-0.18,0.31,-0.06,-0.047,9.809,0.01,-0.01,-0.01
1778774957.9582613,-68.35,-0.18,0.31,-0.074,-0.072,9.809,0.0,-0.01,-0.01
1778774957.9682388,-68.35,-0.18,0.3,-0.073,-0.09,9.809,0.0,-0.01,0.0
1778774957.9782615,-68.35,-0.18,0.29,-0.08,-0.086,9.809,0.0,-0.01,0.0
1778774957.9882586,-68.35,-0.18,0.29,-0.072,-0.065,9.808,-0.01,0.0,0.0
1778774957.998297,-68.35,-0.18,0.29,-0.059,-0.034,9.808,0.0,0.0,0.0
1778774958.0082521,-68.35,-0.18,0.3,-0.043,-0.011,9.808,0.0,-0.01,0.0
1778774958.018241,-68.35,-0.17,0.32,-0.046,-0.01,9.809,0.0,-0.01,-0.01
1778774958.0282466,-68.35,-0.16,0.33,-0.055,-0.04,9.809,0.01,-0.01,-0.01
1778774958.0382366,-68.35,-0.16,0.33,-0.074,-0.101,9.809,0.01,-0.01,-0.01
1778774958.0482361,-68.35,-0.17,0.32,-0.102,-0.174,9.809,0.0,-0.01,-0.01
1778774958.0582542,-68.35,-0.18,0.28,-0.12,-0.232,9.809,-0.01,-0.01,-0.01
1778774958.0682218,-68.36,-0.19,0.22,-0.117,-0.32,9.772,-0.02,0.0,0.0
1778774958.0783057,-68.37,-0.18,0.13,0.011,-0.412,9.62,-0.02,0.0,0.0
1778774958.0882251,-68.4,-0.11,0.01,0.139,-0.526,9.406,-0.04,-0.01,0.01
1778774958.0982373,-68.45,0.0,-0.16,0.151,-0.643,9.111,-0.05,-0.03,0.02
1778774958.1082351,-68.52,0.17,-0.39,0.083,-0.73,8.878,-0.08,-0.06,0.02
1778774958.1182704,-68.62,0.39,-0.66,-0.09,-0.814,8.847,-0.11,-0.11,0.04
1778774958.1282198,-68.72,0.64,-0.93,-0.271,-0.781,8.876,-0.13,-0.14,0.05
1778774958.1382701,-68.82,0.93,-1.19,-0.525,-0.735,8.887,-0.13,-0.17,0.05
1778774958.1482213,-68.95,1.2,-1.4,-0.789,-0.793,8.652,-0.12,-0.19,0.05
1778774958.158254,-69.09,1.45,-1.59,-1.043,-0.877,8.486,-0.09,-0.18,0.06
1778774958.168283,-69.24,1.67,-1.76,-1.33,-0.924,8.331,-0.08,-0.18,0.07
1778774958.178237,-69.4,1.85,-1.9,-1.527,-0.956,8.118,-0.07,-0.17,0.08
1778774958.1882572,-69.55,2.01,-2.02,-1.712,-0.954,7.992,-0.05,-0.16,0.08
1778774958.1982613,-69.67,2.13,-2.09,-1.716,-0.983,7.822,-0.04,-0.15,0.07
1778774958.2082045,-69.76,2.28,-2.14,-1.66,-1.041,7.659,-0.02,-0.13,0.05
1778774958.2182376,-69.82,2.42,-2.19,-1.617,-1.221,7.443,-0.01,-0.13,0.04
1778774958.2282517,-69.85,2.59,-2.25,-1.498,-1.469,7.168,0.0,-0.13,0.02
1778774958.2382548,-69.84,2.8,-2.36,-1.348,-1.702,6.95,0.0,-0.14,0.0
1778774958.2482057,-69.84,3.04,-2.5,-1.245,-1.934,6.793,-0.02,-0.15,-0.02
1778774958.259089,-69.82,3.29,-2.66,-1.227,-2.151,6.74,-0.02,-0.16,-0.02
1778774958.2690945,-69.8,3.55,-2.83,-1.212,-2.288,6.781,-0.03,-0.18,-0.02
1778774958.2791245,-69.78,3.81,-2.99,-1.166,-2.435,6.905,-0.04,-0.18,-0.03
1778774958.2882159,-69.78,4.06,-3.17,-1.163,-2.581,7.045,-0.03,-0.18,-0.02
1778774958.2982101,-69.78,4.28,-3.34,-1.181,-2.746,7.158,-0.03,-0.18,-0.02
1778774958.3082378,-69.81,4.48,-3.51,-1.217,-2.893,7.316,-0.03,-0.16,-0.01
1778774958.3182063,-69.85,4.65,-3.68,-1.262,-3.009,7.534,-0.02,-0.15,0.0
1778774958.3282065,-69.91,4.77,-3.83,-1.31,-3.031,7.786,-0.02,-0.14,0.01
1778774958.3382287,-69.98,4.86,-3.94,-1.332,-3.029,8.063,-0.01,-0.12,0.02
1778774958.3482292,-70.05,4.93,-4.04,-1.298,-2.982,8.327,0.0,-0.11,0.02
1778774958.3581948,-70.13,4.97,-4.09,-1.236,-2.935,8.581,0.01,-0.09,0.03
1778774958.3682063,-70.24,4.99,-4.13,-1.208,-2.92,8.874,0.03,-0.08,0.04
1778774958.3782072,-70.36,4.95,-4.15,-1.212,-2.924,9.131,0.04,-0.05,0.05
1778774958.3881729,-70.49,4.86,-4.18,-1.275,-2.897,9.326,0.05,-0.03,0.06
1778774958.398174,-70.65,4.72,-4.23,-1.371,-2.838,9.469,0.04,-0.01,0.07
1778774958.4082072,-70.82,4.54,-4.29,-1.429,-2.781,9.574,0.02,0.02,0.08
1778774958.4182086,-71.01,4.35,-4.38,-1.459,-2.69,9.65,0.02,0.02,0.09
1778774958.4282053,-71.24,4.15,-4.48,-1.469,-2.523,9.706,0.0,0.03,0.11
1778774958.438157,-71.5,3.94,-4.57,-1.431,-2.253,9.747,-0.02,0.04,0.13
1778774958.4485445,-71.8,3.75,-4.66,-1.377,-1.938,9.778,-0.02,0.04,0.15
1778774958.458177,-72.14,3.57,-4.72,-1.348,-1.613,9.798,-0.02,0.04,0.17
1778774958.4682064,-72.52,3.39,-4.76,-1.4,-1.308,9.814,-0.02,0.03,0.19
1778774958.4782064,-72.92,3.2,-4.78,-1.541,-1.031,9.826,-0.02,0.02,0.21
1778774958.4881577,-73.33,3.01,-4.77,-1.721,-0.835,9.832,-0.01,0.02,0.22
1778774958.498173,-73.74,2.8,-4.78,-1.926,-0.727,9.836,0.0,0.02,0.22
1778774958.5082057,-74.14,2.57,-4.81,-2.126,-0.663,9.841,-0.01,0.02,0.22
1778774958.518142,-74.52,2.32,-4.9,-2.275,-0.608,9.842,-0.03,0.02,0.22
1778774958.5281394,-74.87,2.06,-5.01,-2.294,-0.489,9.846,-0.05,0.04,0.21
1778774958.538157,-75.17,1.79,-5.16,-2.184,-0.283,9.848,-0.08,0.05,0.19
1778774958.5481737,-75.41,1.53,-5.29,-2.0,-0.121,9.85,-0.1,0.06,0.16
1778774958.5581405,-75.61,1.29,-5.41,-1.837,-0.048,9.723,-0.1,0.08,0.13
1778774958.5681553,-75.76,1.05,-5.53,-1.717,-0.061,9.548,-0.09,0.08,0.11
1778774958.5781744,-75.87,0.84,-5.62,-1.633,-0.126,9.408,-0.08,0.07,0.08
1778774958.5881248,-75.96,0.64,-5.68,-1.586,-0.196,9.35,-0.06,0.06,0.06
1778774958.5981405,-76.02,0.46,-5.7,-1.551,-0.267,9.416,-0.05,0.05,0.05
1778774958.6081579,-76.05,0.27,-5.67,-1.454,-0.372,9.52,-0.02,0.05,0.03
1778774958.6181579,-76.04,0.1,-5.61,-1.326,-0.535,9.609,0.01,0.05,0.02
1778774958.6281629,-76.03,-0.09,-5.55,-1.154,-0.756,9.673,0.02,0.07,0.0
1778774958.637307,-75.99,-0.29,-5.5,-0.986,-0.98,9.721,0.04,0.08,-0.01
1778774958.647332,-75.95,-0.53,-5.45,-0.839,-1.112,9.756,0.04,0.1,-0.02
1778774958.658141,-75.89,-0.82,-5.39,-0.65,-1.132,9.781,0.04,0.12,-0.02
1778774958.6681643,-75.82,-1.13,-5.33,-0.433,-1.006,9.8,0.04,0.15,-0.02
1778774958.6773064,-75.73,-1.46,-5.25,-0.254,-0.86,9.815,0.03,0.18,-0.03
1778774958.6873183,-75.63,-1.79,-5.13,-0.134,-0.771,9.824,0.04,0.19,-0.04
1778774958.6973243,-75.53,-2.09,-4.97,-0.061,-0.695,9.83,0.05,0.19,-0.05
1778774958.7081249,-75.43,-2.34,-4.76,0.069,-0.575,9.835,0.08,0.17,-0.05
1778774958.7181454,-75.33,-2.51,-4.52,0.269,-0.463,9.839,0.1,0.14,-0.05
1778774958.7273052,-75.22,-2.59,-4.26,0.508,-0.34,9.838,0.11,0.11,-0.05
1778774958.7372828,-75.1,-2.59,-4.0,0.704,-0.214,9.838,0.12,0.07,-0.06
1778774958.7473176,-74.96,-2.55,-3.76,0.847,-0.131,9.835,0.11,0.04,-0.08
1778774958.7581246,-74.79,-2.48,-3.52,0.957,-0.125,9.833,0.11,0.02,-0.08
1778774958.768143,-74.64,-2.37,-3.28,1.055,-0.109,9.832,0.11,0.0,-0.09
1778774958.7773032,-74.48,-2.26,-3.02,1.087,-0.162,9.829,0.12,-0.02,-0.09
1778774958.7873173,-74.34,-2.17,-2.74,1.201,-0.074,9.826,0.13,-0.02,-0.09
1778774958.797287,-74.07,-1.77,-2.49,6.117,-1.643,9.822,0.15,-0.02,-0.08
1778774958.8073015,-73.37,-0.7,-2.46,5.659,-1.832,9.817,0.11,0.07,-0.19
1778774958.8173232,-72.86,-0.07,-2.8,5.749,-3.413,9.821,0.15,-0.32,-0.43
1778774958.827302,-72.47,0.57,-3.06,5.275,-4.153,9.824,-0.02,-0.17,-0.24
1778774958.837283,-72.17,1.15,-3.48,4.11,-3.613,9.829,-0.05,-0.21,-0.21
1778774958.8473034,-71.85,1.65,-3.69,3.007,-2.547,9.833,-0.13,-0.27,-0.17
1778774958.8572762,-71.53,2.01,-3.86,1.912,-1.85,9.838,-0.13,-0.25,-0.19
1778774958.8672886,-71.23,2.24,-3.98,1.044,-1.017,9.84,-0.12,-0.2,-0.2
1778774958.8772826,-70.93,2.39,-4.02,0.783,-0.328,9.842,-0.1,-0.13,-0.17
1778774958.8872578,-70.55,2.43,-4.08,0.141,-0.066,9.842,-0.08,-0.08,-0.18
1778774958.8972871,-70.18,2.18,-4.16,-1.187,0.59,9.842,-0.11,-0.03,-0.21
1778774958.907302,-69.87,1.5,-4.07,-1.799,1.133,9.838,-0.09,0.1,-0.2
1778774958.917259,-69.62,0.77,-3.89,-1.641,1.977,9.833,-0.03,0.28,-0.14
1778774958.927271,-69.36,0.11,-3.56,-1.348,2.303,9.828,0.0,0.34,-0.12
1778774958.9372685,-69.15,-0.49,-3.14,-0.956,2.433,9.824,0.08,0.34,-0.13
1778774958.9472795,-68.99,-1.04,-2.58,-0.647,2.394,9.821,0.15,0.31,-0.1
1778774958.9572582,-68.88,-1.53,-1.94,-0.565,2.154,9.817,0.24,0.29,-0.08
1778774958.9672427,-68.85,-2.0,-1.2,-0.843,1.69,9.817,0.31,0.25,-0.05
1778774958.9772694,-68.9,-2.53,-0.47,-1.074,1.447,9.818,0.37,0.24,-0.01
1778774958.987272,-68.98,-3.02,0.29,-1.316,1.418,9.798,0.37,0.24,0.03
1778774958.9972687,-69.05,-3.44,0.96,-1.586,1.448,9.811,0.36,0.21,0.03
1778774959.0072367,-69.1,-3.85,1.54,-1.739,1.368,9.822,0.31,0.18,0.03
1778774959.017248,-69.15,-4.23,1.97,-1.884,1.733,9.832,0.24,0.17,0.02
1778774959.0272422,-69.15,-4.61,2.4,-2.227,1.96,9.842,0.18,0.16,0.01
1778774959.0372388,-69.12,-5.06,2.69,-2.409,2.134,9.852,0.15,0.15,-0.02
1778774959.04724,-69.07,-5.5,2.9,-2.407,2.116,9.863,0.08,0.18,-0.03
1778774959.057242,-69.04,-5.93,3.06,-2.37,2.06,9.873,0.05,0.19,-0.05
1778774959.0672536,-69.01,-6.32,3.24,-2.326,1.953,9.809,0.05,0.18,-0.04
1778774959.07726,-68.98,-6.63,3.42,-2.218,1.9,9.52,0.06,0.17,-0.03
1778774959.0872064,-68.94,-6.88,3.63,-2.207,1.825,9.159,0.07,0.12,-0.03
1778774959.0972075,-68.89,-7.03,3.85,-2.116,1.807,8.745,0.08,0.08,-0.04
1778774959.1072395,-68.84,-7.06,4.08,-1.978,1.691,8.472,0.09,0.03,-0.03
1778774959.1172414,-68.76,-6.99,4.28,-1.797,1.582,8.365,0.09,-0.02,-0.04
1778774959.1272058,-68.67,-6.83,4.45,-1.564,1.441,8.357,0.08,-0.07,-0.04
1778774959.1372058,-68.59,-6.61,4.59,-1.418,1.304,8.526,0.08,-0.1,-0.04
1778774959.1472025,-68.53,-6.38,4.7,-1.213,1.22,8.779,0.07,-0.12,-0.03
1778774959.1572523,-68.49,-6.13,4.76,-0.938,1.154,9.072,0.05,-0.12,-0.02
1778774959.1672022,-68.48,-5.89,4.79,-0.654,1.142,9.288,0.02,-0.12,-0.01
1778774959.1772041,-68.5,-5.68,4.77,-0.37,1.098,9.446,0.0,-0.1,0.01
1778774959.1872141,-68.55,-5.48,4.74,-0.204,1.084,9.42,-0.02,-0.08,0.02
1778774959.197216,-68.6,-5.3,4.73,-0.174,1.049,9.078,-0.03,-0.07,0.03
1778774959.2072062,-68.65,-5.1,4.73,-0.223,1.013,8.704,-0.02,-0.08,0.03
1778774959.2172084,-68.69,-4.89,4.76,-0.265,1.011,8.535,-0.01,-0.1,0.03
1778774959.2272046,-68.7,-4.64,4.75,-0.263,1.117,8.672,0.0,-0.11,0.02
1778774959.237224,-68.67,-4.38,4.73,-0.181,1.354,8.986,-0.02,-0.13,0.01
1778774959.2472093,-68.59,-4.13,4.68,-0.074,1.619,9.217,-0.05,-0.12,-0.02
1778774959.2571752,-68.46,-3.87,4.61,0.043,1.784,9.385,-0.07,-0.12,-0.05
1778774959.2671916,-68.29,-3.6,4.5,0.152,1.866,9.434,-0.08,-0.12,-0.08
1778774959.277983,-68.09,-3.29,4.37,0.214,1.932,9.408,-0.09,-0.13,-0.09
1778774959.2880607,-67.89,-2.95,4.25,0.266,1.906,9.326,-0.1,-0.15,-0.1
1778774959.2972162,-67.7,-2.56,4.12,0.302,1.878,9.247,-0.09,-0.18,-0.1
1778774959.3072097,-67.52,-2.12,3.98,0.303,1.847,9.198,-0.1,-0.21,-0.09
1778774959.3171628,-67.36,-1.65,3.83,0.293,1.806,9.173,-0.11,-0.23,-0.08
1778774959.3271606,-67.23,-1.17,3.69,0.225,1.783,9.194,-0.11,-0.24,-0.08
1778774959.3371768,-67.13,-0.69,3.56,0.116,1.75,9.244,-0.11,-0.26,-0.06
1778774959.3471766,-67.08,-0.24,3.48,0.004,1.751,9.289,-0.09,-0.26,-0.04
1778774959.357178,-67.07,0.19,3.45,-0.102,1.8,9.366,-0.07,-0.25,-0.02
1778774959.3672059,-67.11,0.58,3.49,-0.168,1.855,9.459,-0.05,-0.24,0.01
1778774959.377208,-67.18,0.92,3.58,-0.211,1.914,9.485,-0.02,-0.21,0.03
1778774959.3871436,-67.26,1.22,3.72,-0.274,1.862,9.446,0.02,-0.19,0.05
1778774959.3971434,-67.36,1.46,3.86,-0.366,1.732,9.375,0.04,-0.17,0.05
1778774959.4071424,-67.48,1.66,3.99,-0.486,1.548,9.296,0.05,-0.15,0.06
1778774959.417178,-67.62,1.81,4.09,-0.618,1.35,9.188,0.05,-0.12,0.07
1778774959.427246,-67.76,1.91,4.16,-0.79,1.158,9.095,0.05,-0.1,0.08
1778774959.4371536,-67.91,1.95,4.2,-0.98,0.954,9.045,0.03,-0.08,0.08
1778774959.447148,-68.06,1.94,4.2,-1.151,0.745,9.088,0.02,-0.05,0.08
1778774959.4571483,-68.22,1.88,4.15,-1.272,0.546,9.233,0.01,-0.03,0.08
1778774959.46756,-68.4,1.79,4.05,-1.32,0.39,9.387,-0.02,-0.01,0.08
1778774959.4771678,-68.57,1.68,3.9,-1.305,0.281,9.463,-0.04,0.01,0.09
1778774959.4871595,-68.77,1.57,3.72,-1.255,0.228,9.412,-0.07,0.02,0.09
1778774959.4971635,-68.94,1.46,3.49,-1.174,0.259,9.285,-0.09,0.03,0.09
1778774959.506287,-69.09,1.39,3.24,-1.089,0.332,9.157,-0.11,0.02,0.09
1778774959.5163214,-69.22,1.35,2.98,-1.026,0.382,9.077,-0.14,0.01,0.08
1778774959.526288,-69.31,1.33,2.69,-0.995,0.435,9.042,-0.15,-0.01,0.06
1778774959.5363302,-69.35,1.34,2.39,-0.976,0.459,9.04,-0.16,-0.02,0.04
1778774959.546303,-69.36,1.37,2.08,-0.976,0.485,9.07,-0.17,-0.04,0.02
1778774959.5571477,-69.32,1.39,1.79,-1.011,0.527,9.113,-0.17,-0.05,-0.01
1778774959.566409,-69.27,1.43,1.53,-1.078,0.557,9.163,-0.17,-0.05,-0.02
1778774959.576311,-69.18,1.45,1.31,-1.169,0.551,9.259,-0.15,-0.06,-0.04
1778774959.587124,-69.07,1.46,1.13,-1.266,0.527,9.4,-0.12,-0.06,-0.05
1778774959.5962832,-68.95,1.44,0.98,-1.339,0.481,9.509,-0.11,-0.05,-0.06
1778774959.606281,-68.81,1.39,0.84,-1.358,0.441,9.591,-0.09,-0.04,-0.08
1778774959.6163023,-68.65,1.3,0.72,-1.305,0.394,9.648,-0.08,-0.02,-0.08
1778774959.6271286,-68.47,1.19,0.61,-1.218,0.362,9.69,-0.08,0.01,-0.09
1778774959.6363177,-68.29,1.07,0.51,-1.132,0.344,9.723,-0.07,0.02,-0.1
1778774959.6462846,-68.09,0.93,0.42,-1.055,0.319,9.747,-0.06,0.04,-0.11
1778774959.656286,-67.89,0.78,0.33,-0.983,0.283,9.762,-0.06,0.05,-0.11
1778774959.666316,-67.7,0.63,0.23,-0.926,0.236,9.775,-0.06,0.05,-0.11
1778774959.67633,-67.53,0.49,0.11,-0.869,0.201,9.784,-0.06,0.05,-0.11
1778774959.6862798,-67.37,0.36,-0.02,-0.806,0.186,9.79,-0.07,0.05,-0.1
1778774959.696273,-67.25,0.25,-0.16,-0.735,0.171,9.794,-0.08,0.05,-0.08
1778774959.7062545,-67.15,0.15,-0.29,-0.714,0.22,9.798,-0.08,0.04,-0.07
1778774959.7162697,-67.08,0.07,-0.41,-0.711,0.283,9.78,-0.08,0.03,-0.05
1778774959.7263117,-67.02,0.01,-0.54,-0.729,0.402,9.769,-0.08,0.02,-0.04
1778774959.7363079,-66.97,-0.02,-0.66,-0.753,0.52,9.778,-0.08,0.0,-0.03
1778774959.7462685,-66.93,-0.0,-0.78,-0.73,0.653,9.748,-0.09,-0.02,-0.03
1778774959.7562804,-66.92,0.06,-0.87,-0.697,0.754,9.676,-0.09,-0.03,-0.02
1778774959.7662776,-66.92,0.16,-0.92,-0.723,0.813,9.593,-0.08,-0.06,-0.01
1778774959.7762713,-66.94,0.3,-0.94,-0.795,0.814,9.553,-0.05,-0.08,0.0
1778774959.7862685,-66.97,0.46,-0.94,-0.923,0.8,9.591,-0.04,-0.11,0.01
1778774959.7962437,-67.01,0.62,-0.94,-1.083,0.784,9.648,-0.03,-0.12,0.02
1778774959.806276,-67.05,0.77,-0.94,-1.334,0.899,9.691,-0.02,-0.13,0.02
1778774959.8162832,-67.07,0.62,-0.72,-2.514,1.812,8.213,-0.03,-0.13,0.02
1778774959.8262644,-67.15,0.22,-0.48,-1.708,1.019,8.213,0.05,0.04,0.02
1778774959.8362262,-67.23,-0.19,-0.32,-1.793,1.293,8.636,0.08,0.15,0.05
1778774959.8462367,-67.29,-0.74,-0.13,-1.673,1.171,8.948,0.07,0.21,0.03
1778774959.8562443,-67.38,-1.32,0.07,-1.523,1.129,9.178,0.05,0.26,0.04
1778774959.866255,-67.51,-1.88,0.25,-1.443,0.857,9.32,0.08,0.27,0.05
1778774959.8762763,-67.67,-2.38,0.44,-1.345,0.601,9.174,0.09,0.27,0.07
1778774959.8862746,-67.82,-2.8,0.56,-1.188,0.314,8.847,0.09,0.24,0.08
1778774959.8962605,-68.0,-3.12,0.63,-1.008,0.212,8.882,0.05,0.19,0.08
1778774959.9061997,-68.15,-3.41,0.72,-0.947,0.254,9.072,0.04,0.15,0.08
1778774959.9162204,-68.28,-3.68,0.79,-0.963,0.331,9.276,0.03,0.14,0.08
1778774959.926241,-68.38,-3.96,0.84,-0.845,0.326,9.402,0.02,0.14,0.06
1778774959.9362228,-68.45,-4.23,0.83,-0.607,0.36,9.519,0.0,0.15,0.05
1778774959.9462428,-68.47,-4.53,0.81,-0.439,0.422,9.609,-0.02,0.16,0.02
1778774959.9562423,-68.43,-4.85,0.75,-0.292,0.369,9.673,-0.03,0.18,-0.01
1778774959.9662578,-68.37,-5.21,0.65,-0.103,0.345,9.725,-0.05,0.2,-0.04
1778774959.9762168,-68.27,-5.56,0.53,0.204,0.284,9.743,-0.06,0.21,-0.05
1778774959.9862187,-68.19,-5.87,0.44,0.599,0.337,9.59,-0.07,0.22,-0.07
1778774959.9962091,-68.13,-6.09,0.43,1.188,0.49,9.256,-0.05,0.21,-0.05
1778774960.0062118,-68.1,-6.13,0.55,1.995,0.499,8.186,0.0,0.18,-0.03
1778774960.01621,-68.04,-5.88,0.66,2.167,0.35,8.318,0.05,0.09,-0.03
1778774960.0262482,-67.98,-5.71,0.77,1.873,0.222,8.725,0.06,-0.04,-0.03
1778774960.036213,-67.93,-5.57,0.81,1.702,-0.077,9.022,0.05,-0.03,-0.03
1778774960.0462375,-67.9,-5.47,0.79,1.346,-0.189,9.242,0.02,-0.02,-0.02
1778774960.056214,-67.89,-5.39,0.8,1.104,-0.08,9.403,0.01,-0.02,-0.02
1778774960.066247,-67.9,-5.33,0.85,0.913,-0.067,9.466,0.01,-0.01,-0.01
1778774960.0762174,-67.9,-5.27,0.87,1.008,-0.194,9.536,0.02,0.0,0.0
1778774960.0862117,-67.89,-5.16,0.83,0.957,-0.241,9.582,0.02,0.0,0.0
1778774960.096208,-67.88,-5.09,0.81,0.863,-0.168,9.652,-0.01,-0.01,-0.01
1778774960.1062334,-67.88,-5.02,0.81,0.831,-0.074,9.703,-0.01,-0.01,-0.01
1778774960.1161819,-67.87,-4.95,0.81,0.783,-0.08,9.741,-0.01,0.0,-0.01
1778774960.126211,-67.87,-4.88,0.8,0.813,-0.069,9.756,0.0,0.0,-0.01
1778774960.1362138,-67.86,-4.8,0.81,0.8,-0.051,9.773,0.0,0.0,-0.01
1778774960.146229,-67.86,-4.72,0.81,0.776,-0.019,9.791,0.0,-0.01,-0.01
1778774960.1562119,-67.85,-4.65,0.83,0.745,-0.005,9.804,0.0,-0.01,-0.01
1778774960.1662095,-67.85,-4.57,0.84,0.733,-0.059,9.812,0.01,-0.01,-0.01
1778774960.1762123,-67.85,-4.5,0.84,0.701,-0.108,9.82,0.01,-0.01,0.0
1778774960.1866105,-67.86,-4.44,0.82,0.643,-0.152,9.824,0.01,-0.01,0.0
1778774960.196194,-67.86,-4.38,0.8,0.631,-0.216,9.828,0.0,-0.01,0.0
1778774960.2061765,-67.86,-4.32,0.76,0.618,-0.182,9.829,-0.01,0.0,0.0
1778774960.216161,-67.87,-4.26,0.74,0.582,-0.099,9.83,-0.02,0.0,0.0
1778774960.2261462,-67.9,-4.21,0.75,0.577,-0.017,9.822,-0.01,0.0,0.01
1778774960.2361696,-67.91,-4.14,0.76,0.651,-0.013,9.817,0.0,0.0,0.01
1778774960.2461648,-67.93,-4.06,0.77,0.687,0.031,9.817,0.0,-0.01,0.01
1778774960.256157,-67.93,-3.99,0.79,0.678,0.031,9.822,0.01,-0.01,0.01
1778774960.2661457,-67.93,-3.92,0.81,0.606,-0.012,9.826,0.01,-0.01,0.0
1778774960.276138,-67.93,-3.86,0.81,0.575,-0.08,9.827,0.01,-0.01,-0.01
1778774960.2861502,-67.93,-3.8,0.81,0.559,-0.12,9.827,0.01,-0.01,0.0
1778774960.2961812,-67.92,-3.75,0.8,0.574,-0.135,9.818,0.0,-0.01,0.0
1778774960.3061764,-67.93,-3.69,0.78,0.529,-0.123,9.821,0.0,-0.01,0.0
1778774960.3161588,-67.93,-3.64,0.77,0.525,-0.14,9.823,-0.01,0.0,0.0
1778774960.3261576,-67.93,-3.6,0.74,0.495,-0.125,9.824,-0.01,0.0,-0.01
1778774960.3361533,-67.93,-3.55,0.73,0.51,-0.098,9.826,-0.01,0.0,0.0
1778774960.3453126,-67.93,-3.5,0.71,0.521,-0.071,9.826,-0.01,0.0,0.0
1778774960.3561797,-67.93,-3.45,0.7,0.515,-0.04,9.826,-0.01,0.0,0.0
1778774960.366159,-67.93,-3.39,0.7,0.511,-0.025,9.827,-0.01,0.0,-0.01
1778774960.37616,-67.92,-3.34,0.71,0.495,-0.029,9.824,0.0,-0.01,-0.01
1778774960.386147,-67.92,-3.29,0.7,0.492,-0.043,9.824,0.0,-0.01,0.0
1778774960.3953357,-67.92,-3.24,0.7,0.467,-0.066,9.826,0.0,-0.01,0.0
1778774960.405289,-67.92,-3.2,0.69,0.449,-0.081,9.824,0.0,-0.01,0.0
1778774960.4161475,-67.92,-3.16,0.67,0.437,-0.086,9.824,-0.01,0.0,0.0
1778774960.4253376,-67.92,-3.11,0.66,0.433,-0.079,9.824,-0.01,0.0,0.0
1778774960.4353085,-67.92,-3.07,0.65,0.433,-0.056,9.823,-0.01,0.0,0.0
1778774960.4461467,-67.92,-3.02,0.64,0.432,-0.047,9.823,-0.01,0.0,0.0
1778774960.4553287,-67.92,-2.98,0.64,0.426,-0.03,9.823,-0.01,0.0,0.0
1778774960.4653158,-67.92,-2.94,0.64,0.423,-0.036,9.823,0.0,-0.01,-0.01
1778774960.4761236,-67.92,-2.9,0.63,0.417,-0.044,9.823,0.0,0.0,0.0
1778774960.485307,-67.92,-2.85,0.63,0.407,-0.053,9.822,0.0,-0.01,0.0
1778774960.4952872,-67.91,-2.81,0.62,0.386,-0.048,9.821,0.0,-0.01,0.0
1778774960.5053196,-67.92,-2.78,0.61,0.381,-0.046,9.821,-0.01,-0.01,0.0
1778774960.515303,-67.92,-2.74,0.6,0.377,-0.042,9.821,-0.01,0.0,0.0
1778774960.5254786,-67.92,-2.7,0.59,0.38,-0.036,9.82,-0.01,0.0,0.0
1778774960.5352645,-67.92,-2.66,0.58,0.371,-0.028,9.82,-0.01,0.0,0.0
1778774960.5452404,-67.92,-2.62,0.59,0.365,-0.02,9.82,-0.01,0.0,0.0
1778774960.555421,-67.92,-2.58,0.58,0.352,-0.029,9.82,0.0,-0.01,0.0
1778774960.5652728,-67.92,-2.55,0.58,0.346,-0.042,9.82,0.0,-0.01,-0.01
1778774960.5753891,-67.92,-2.51,0.57,0.342,-0.057,9.82,0.0,0.0,0.0
1778774960.5852723,-67.92,-2.48,0.56,0.339,-0.057,9.818,0.0,0.0,0.0
1778774960.5952837,-67.92,-2.45,0.55,0.331,-0.05,9.818,-0.01,0.0,0.0
1778774960.6052823,-67.92,-2.41,0.54,0.329,-0.035,9.818,-0.01,0.0,0.0
1778774960.61537,-67.92,-2.38,0.54,0.329,-0.029,9.818,-0.01,0.0,0.0
1778774960.6252472,-67.92,-2.35,0.53,0.325,-0.024,9.818,0.0,0.0,0.0
1778774960.6352608,-67.92,-2.31,0.53,0.311,-0.031,9.818,0.0,-0.01,0.0
1778774960.6452494,-67.91,-2.28,0.53,0.307,-0.035,9.817,0.0,-0.01,0.0
1778774960.655274,-67.91,-2.25,0.52,0.298,-0.04,9.817,0.0,-0.01,-0.01
1778774960.665255,-67.91,-2.22,0.51,0.289,-0.042,9.817,-0.01,-0.01,0.0
1778774960.6752424,-67.91,-2.19,0.51,0.287,-0.04,9.816,-0.01,0.0,0.0
1778774960.6852489,-67.91,-2.16,0.5,0.283,-0.038,9.816,-0.01,0.0,0.0
1778774960.6952908,-67.91,-2.13,0.5,0.279,-0.029,9.816,-0.01,0.0,0.0
1778774960.7052877,-67.91,-2.1,0.49,0.273,-0.025,9.816,-0.01,-0.01,0.0
1778774960.7152207,-67.91,-2.07,0.49,0.271,-0.031,9.816,0.0,0.0,0.0
1778774960.725232,-67.91,-2.03,0.48,0.269,-0.032,9.815,0.0,-0.01,-0.01
1778774960.7352602,-67.91,-2.01,0.48,0.263,-0.036,9.815,0.0,0.0,0.0
1778774960.7452319,-67.91,-1.98,0.47,0.26,-0.035,9.815,0.0,0.0,0.0
1778774960.7552135,-67.91,-1.96,0.46,0.253,-0.029,9.815,0.0,0.0,-0.01
1778774960.7652614,-67.91,-1.93,0.46,0.25,-0.025,9.815,-0.01,0.0,0.0
1778774960.7752566,-67.91,-1.9,0.45,0.249,-0.023,9.815,-0.01,-0.01,0.0
1778774960.7852464,-67.91,-1.88,0.45,0.247,-0.019,9.815,-0.01,0.0,0.0
1778774960.7952087,-67.91,-1.85,0.45,0.241,-0.023,9.814,0.0,0.0,0.0
1778774960.8052597,-67.91,-1.83,0.44,0.235,-0.023,9.814,0.0,-0.01,0.0
1778774960.8152256,-67.91,-1.8,0.44,0.23,-0.023,9.814,0.0,0.0,0.0
1778774960.825247,-67.91,-1.78,0.44,0.223,-0.023,9.814,0.0,0.0,0.0
1778774960.8352432,-67.91,-1.75,0.43,0.22,-0.023,9.814,-0.01,0.0,0.0
1778774960.8452332,-67.91,-1.73,0.42,0.218,-0.024,9.814,-0.01,0.0,0.0
1778774960.855203,-67.91,-1.71,0.42,0.216,-0.022,9.814,-0.01,0.0,0.0
1778774960.8652642,-67.91,-1.68,0.42,0.212,-0.018,9.814,-0.01,0.0,0.0
1778774960.8754306,-67.92,-1.66,0.42,0.208,-0.016,9.812,-0.01,0.0,0.0
1778774960.885231,-67.92,-1.64,0.41,0.2,-0.013,9.812,0.0,0.0,0.0
1778774960.8952699,-67.92,-1.62,0.41,0.196,-0.018,9.812,0.0,0.0,0.0
1778774960.9052043,-67.92,-1.59,0.4,0.186,-0.019,9.812,0.0,0.0,0.0
1778774960.9152427,-67.92,-1.58,0.4,0.184,-0.02,9.812,0.0,0.0,0.0
1778774960.9252357,-67.92,-1.55,0.4,0.176,-0.018,9.812,-0.01,0.0,0.0
1778774960.9364007,-67.92,-1.53,0.39,0.176,-0.018,9.812,0.0,0.0,0.0
1778774960.945302,-67.92,-1.52,0.39,0.172,-0.013,9.812,-0.01,0.0,0.0
1778774960.9552042,-67.92,-1.5,0.38,0.168,-0.006,9.812,0.0,0.0,0.0
1778774960.965232,-67.92,-1.48,0.39,0.162,-0.008,9.812,0.0,0.0,0.0
1778774960.975216,-67.92,-1.46,0.38,0.158,-0.006,9.812,0.0,0.0,0.0
1778774960.985216,-67.92,-1.44,0.38,0.156,-0.01,9.811,0.0,-0.01,0.0
1778774960.9952106,-67.92,-1.42,0.38,0.147,-0.008,9.811,0.0,0.0,0.0
1778774961.0052252,-67.92,-1.4,0.37,0.15,-0.012,9.811,-0.01,0.0,0.0
1778774961.015203,-67.92,-1.39,0.37,0.153,-0.011,9.811,-0.01,0.0,0.0
1778774961.025229,-67.93,-1.37,0.37,0.156,-0.005,9.812,-0.01,0.0,0.0
1778774961.035215,-67.93,-1.35,0.36,0.152,0.0,9.812,0.0,0.0,0.0
1778774961.0451856,-67.93,-1.34,0.36,0.146,-0.004,9.812,0.0,0.0,0.0
1778774961.0552113,-67.93,-1.32,0.36,0.144,-0.008,9.812,0.0,0.0,0.0
1778774961.0653596,-67.93,-1.3,0.36,0.141,-0.014,9.811,0.0,0.0,0.0
1778774961.0752194,-67.93,-1.28,0.35,0.137,-0.01,9.811,0.0,0.0,0.0
1778774961.0851862,-67.93,-1.27,0.35,0.129,-0.007,9.811,-0.01,0.0,0.0
1778774961.0951657,-67.93,-1.25,0.35,0.127,-0.006,9.811,-0.01,0.0,0.0
1778774961.1051717,-67.93,-1.24,0.34,0.131,-0.005,9.811,-0.01,0.0,-0.01
1778774961.1152117,-67.93,-1.22,0.34,0.125,-0.001,9.811,0.0,0.0,-0.01
1778774961.1252217,-67.93,-1.21,0.34,0.117,0.0,9.811,0.0,-0.01,-0.01
1778774961.1351643,-67.93,-1.19,0.33,0.11,0.002,9.811,0.0,0.0,0.0
1778774961.1452203,-67.93,-1.18,0.33,0.111,0.001,9.811,0.0,0.0,0.0
1778774961.15519,-67.93,-1.17,0.33,0.114,-0.006,9.811,0.0,-0.01,0.0
1778774961.1651726,-67.93,-1.15,0.33,0.111,-0.007,9.811,0.0,0.0,-0.01
1778774961.1752877,-67.93,-1.14,0.33,0.11,-0.006,9.811,0.0,-0.01,0.0
1778774961.1843524,-67.93,-1.12,0.33,0.108,-0.005,9.811,0.0,0.0,-0.01
1778774961.195301,-67.93,-1.11,0.32,0.102,0.0,9.811,-0.01,0.0,0.0
1778774961.2051394,-67.93,-1.09,0.32,0.102,0.001,9.811,0.0,0.0,0.0
1778774961.2151396,-67.93,-1.08,0.32,0.101,0.0,9.811,0.0,0.0,0.0
1778774961.2244737,-67.93,-1.07,0.32,0.095,0.005,9.811,0.0,0.0,0.0
1778774961.2351494,-67.93,-1.06,0.32,0.092,0.0,9.811,-0.01,0.0,0.0
1778774961.2444696,-67.93,-1.05,0.31,0.09,0.0,9.811,0.0,0.0,0.0
1778774961.2558205,-67.93,-1.03,0.31,0.08,0.004,9.811,-0.01,0.0,0.0
1778774961.26585,-67.93,-1.02,0.31,0.079,0.006,9.811,-0.01,0.0,0.0
1778774961.2742882,-67.93,-1.01,0.3,0.081,0.008,9.81,-0.01,0.0,0.0
1778774961.2851458,-67.93,-1.0,0.3,0.081,0.001,9.81,-0.01,0.0,0.0
1778774961.2943027,-67.93,-0.99,0.3,0.073,0.0,9.81,0.0,-0.01,0.0
1778774961.3051405,-67.93,-0.98,0.3,0.074,0.002,9.81,0.0,0.0,0.0
1778774961.314454,-67.93,-0.96,0.3,0.079,0.005,9.81,0.0,0.0,0.0
1778774961.3243155,-67.93,-0.95,0.3,0.074,0.004,9.81,0.0,0.0,0.0
1778774961.33429,-67.93,-0.95,0.29,0.073,0.0,9.81,-0.01,0.0,0.0
1778774961.3455927,-67.93,-0.93,0.29,0.072,-0.002,9.81,-0.01,0.0,0.0
1778774961.3544536,-67.93,-0.93,0.29,0.074,-0.002,9.81,-0.01,0.0,0.0
1778774961.3645015,-67.93,-0.91,0.29,0.073,0.0,9.81,0.0,0.0,0.0
1778774961.3743675,-67.93,-0.91,0.28,0.069,0.0,9.81,-0.01,0.0,0.0
1778774961.3844385,-67.93,-0.9,0.28,0.063,0.0,9.81,0.0,0.0,0.0
1778774961.39427,-67.94,-0.89,0.28,0.067,-0.001,9.811,-0.01,0.0,0.0
1778774961.4044037,-67.94,-0.88,0.28,0.066,0.0,9.811,-0.01,0.0,0.0
1778774961.414256,-67.94,-0.86,0.27,0.062,0.0,9.811,-0.01,0.0,0.0
1778774961.4244468,-67.94,-0.85,0.27,0.061,0.0,9.811,-0.01,0.0,0.0
1778774961.4344304,-67.94,-0.85,0.27,0.062,0.006,9.811,0.0,0.0,-0.01
1778774961.444428,-67.94,-0.84,0.27,0.061,0.011,9.811,0.0,0.0,0.0
1778774961.4546676,-67.94,-0.83,0.27,0.061,0.007,9.811,-0.01,0.0,0.0
1778774961.464273,-67.94,-0.82,0.26,0.062,0.004,9.811,0.0,0.0,0.0
1778774961.4742603,-67.95,-0.81,0.27,0.065,0.0,9.81,0.0,0.0,0.0
1778774961.4842658,-67.95,-0.8,0.26,0.061,0.0,9.81,-0.01,0.0,0.0
1778774961.4942453,-67.95,-0.79,0.26,0.053,-0.002,9.81,-0.01,0.0,0.0
1778774961.5042498,-67.95,-0.78,0.26,0.055,0.0,9.81,-0.01,-0.01,-0.01
1778774961.5143585,-67.95,-0.77,0.26,0.056,0.002,9.81,0.0,0.0,-0.01
1778774961.524253,-67.95,-0.77,0.25,0.051,0.004,9.81,0.0,0.0,0.0
1778774961.5349998,-67.95,-0.76,0.25,0.044,0.011,9.81,-0.01,0.0,0.0
1778774961.5442898,-67.95,-0.75,0.25,0.038,0.004,9.81,0.0,0.0,0.0
1778774961.5542192,-67.95,-0.74,0.25,0.034,0.002,9.81,-0.01,0.0,0.0
1778774961.5642333,-67.95,-0.74,0.24,0.035,0.002,9.81,0.0,-0.01,0.0
1778774961.57424,-67.95,-0.73,0.25,0.041,0.001,9.81,-0.01,0.0,-0.01
1778774961.5842113,-67.95,-0.72,0.24,0.038,0.005,9.81,-0.01,0.0,0.0
1778774961.594222,-67.95,-0.71,0.24,0.035,0.005,9.81,0.0,0.0,0.0
1778774961.6042106,-67.95,-0.71,0.24,0.035,0.011,9.81,0.0,0.0,0.0
1778774961.6142757,-67.95,-0.7,0.25,0.031,0.005,9.81,-0.01,0.0,0.0
1778774961.6242113,-67.95,-0.7,0.24,0.035,0.006,9.809,0.0,0.0,0.0
1778774961.6342657,-67.95,-0.69,0.24,0.032,0.004,9.809,-0.01,0.0,0.0
1778774961.6442113,-67.96,-0.68,0.24,0.029,0.008,9.81,0.0,-0.01,0.0
1778774961.6542432,-67.96,-0.68,0.24,0.03,0.013,9.81,0.0,0.0,0.0
1778774961.664225,-67.96,-0.67,0.24,0.029,0.01,9.81,-0.01,0.0,0.0
1778774961.674249,-67.96,-0.66,0.23,0.029,0.013,9.81,-0.01,0.0,0.0
1778774961.684237,-67.96,-0.65,0.23,0.028,0.011,9.81,-0.01,0.0,0.0
1778774961.694195,-67.96,-0.65,0.24,0.028,0.008,9.81,0.0,0.0,0.0
1778774961.7042227,-67.96,-0.64,0.23,0.024,0.008,9.81,0.0,0.0,0.0
1778774961.7142189,-67.96,-0.64,0.23,0.018,0.01,9.81,0.0,0.0,0.0
1778774961.7242386,-67.96,-0.63,0.22,0.016,0.01,9.81,-0.01,0.0,0.0
1778774961.734204,-67.96,-0.62,0.23,0.012,0.006,9.81,-0.01,0.0,0.0
1778774961.7441943,-67.96,-0.62,0.23,0.016,0.007,9.809,-0.01,0.0,0.0
1778774961.7542396,-67.96,-0.62,0.22,0.019,0.01,9.809,-0.01,0.0,0.0
1778774961.7642078,-67.96,-0.61,0.22,0.02,0.007,9.809,0.0,0.0,-0.01
1778774961.7742376,-67.96,-0.6,0.22,0.017,0.013,9.809,0.0,0.0,0.0
1778774961.7842069,-67.96,-0.6,0.22,0.017,0.012,9.809,0.0,0.0,0.0
1778774961.794238,-67.96,-0.59,0.22,0.013,0.014,9.809,0.0,-0.01,0.0
1778774961.8042114,-67.96,-0.59,0.22,0.008,0.017,9.809,0.0,0.0,-0.01
1778774961.8142114,-67.96,-0.59,0.22,0.007,0.011,9.809,-0.01,0.0,0.0
1778774961.8242064,-67.96,-0.58,0.22,0.014,0.008,9.809,-0.01,-0.01,0.0
1778774961.8342092,-67.96,-0.57,0.22,0.013,0.011,9.809,-0.01,0.0,0.0
1778774961.8442078,-67.96,-0.57,0.22,0.016,0.013,9.809,-0.01,0.0,0.0
1778774961.8542278,-67.96,-0.57,0.21,0.016,0.014,9.809,-0.01,0.0,0.0
1778774961.8642054,-67.97,-0.56,0.21,0.011,0.013,9.81,0.0,0.0,0.0
1778774961.8741808,-67.97,-0.56,0.21,0.01,0.012,9.81,-0.01,0.0,0.0
1778774961.8842196,-67.97,-0.55,0.21,0.012,0.018,9.81,0.0,-0.01,-0.01
1778774961.894191,-67.97,-0.55,0.22,0.012,0.022,9.81,0.0,0.0,0.0
1778774961.9041739,-67.97,-0.54,0.21,0.008,0.022,9.81,-0.01,0.0,-0.01
1778774961.914208,-67.97,-0.53,0.21,0.007,0.016,9.81,-0.01,0.0,0.0
1778774961.9241905,-67.97,-0.53,0.21,0.007,0.014,9.81,-0.01,0.0,0.0
1778774961.9341636,-67.97,-0.52,0.21,0.006,0.014,9.81,-0.01,-0.01,0.0
1778774961.9442062,-67.97,-0.52,0.21,0.005,0.012,9.81,-0.01,0.0,0.0
1778774961.954175,-67.97,-0.52,0.21,0.004,0.012,9.81,-0.01,0.0,0.0
1778774961.9642105,-67.97,-0.51,0.2,0.004,0.014,9.81,0.0,0.0,0.0
1778774961.9741764,-67.97,-0.51,0.21,0.005,0.018,9.81,0.0,0.0,-0.01
1778774961.9841423,-67.97,-0.5,0.2,0.007,0.017,9.81,-0.01,0.0,0.0
1778774961.9941761,-67.97,-0.5,0.2,0.006,0.016,9.81,-0.01,0.0,0.0
1778774962.0041602,-67.97,-0.5,0.2,0.007,0.016,9.81,-0.01,0.0,0.0
1778774962.0142105,-67.97,-0.49,0.2,0.006,0.017,9.81,0.0,0.0,-0.01
1778774962.0241766,-67.97,-0.49,0.2,0.007,0.019,9.81,-0.01,0.0,-0.01
1778774962.034145,-67.97,-0.48,0.2,0.008,0.018,9.81,0.0,0.0,0.0
1778774962.044175,-67.97,-0.48,0.2,0.007,0.012,9.81,0.0,0.0,-0.01
1778774962.054143,-67.97,-0.47,0.2,0.004,0.013,9.81,0.0,0.0,0.0
1778774962.0641613,-67.97,-0.47,0.2,0.0,0.014,9.81,0.0,0.0,0.0
1778774962.0741634,-67.97,-0.47,0.2,-0.001,0.017,9.81,-0.01,-0.01,0.0
1778774962.0841768,-67.97,-0.47,0.2,-0.001,0.02,9.81,0.0,0.0,0.0
1778774962.094819,-67.97,-0.46,0.2,0.0,0.025,9.81,0.0,0.0,0.0
1778774962.1041744,-67.97,-0.46,0.2,-0.005,0.028,9.81,0.0,0.0,0.0
1778774962.1132817,-67.97,-0.46,0.2,-0.007,0.024,9.809,0.0,0.0,0.0
1778774962.1241539,-67.97,-0.46,0.2,-0.01,0.023,9.809,-0.01,0.0,0.0
1778774962.1341345,-67.97,-0.45,0.2,-0.01,0.022,9.809,-0.01,-0.01,0.0
1778774962.1433065,-67.97,-0.45,0.2,-0.006,0.02,9.809,-0.01,0.0,0.0
1778774962.1532621,-67.97,-0.44,0.2,-0.005,0.018,9.809,-0.01,0.0,0.0
1778774962.1641328,-67.97,-0.44,0.2,-0.006,0.014,9.809,-0.01,0.0,0.0
1778774962.1733744,-67.97,-0.44,0.19,-0.013,0.012,9.809,-0.01,0.0,0.0
1778774962.1842003,-67.97,-0.44,0.19,-0.012,0.011,9.809,-0.01,0.0,0.0
1778774962.1933033,-67.98,-0.44,0.19,-0.014,0.011,9.81,-0.01,0.0,0.0
1778774962.203292,-67.98,-0.43,0.19,-0.007,0.012,9.81,-0.01,0.0,0.0
1778774962.2141426,-67.98,-0.43,0.19,-0.01,0.016,9.81,0.0,0.0,0.0
1778774962.2232976,-67.98,-0.42,0.19,-0.011,0.014,9.81,0.0,0.0,0.0
1778774962.2333174,-67.98,-0.42,0.19,-0.012,0.018,9.81,0.0,-0.01,0.0
1778774962.2432685,-67.98,-0.42,0.19,-0.01,0.023,9.81,0.0,0.0,0.0
1778774962.2532706,-67.98,-0.41,0.19,-0.006,0.023,9.809,-0.01,-0.01,0.0
1778774962.26329,-67.98,-0.41,0.19,-0.006,0.017,9.809,0.0,0.0,0.0
1778774962.2732918,-67.98,-0.4,0.19,-0.006,0.019,9.809,0.0,0.0,0.0
1778774962.2832704,-67.98,-0.4,0.19,-0.005,0.018,9.809,0.0,-0.01,0.0
1778774962.2932324,-67.98,-0.4,0.18,-0.008,0.018,9.809,-0.01,-0.01,0.0
1778774962.3032675,-67.98,-0.4,0.18,-0.007,0.02,9.809,0.0,-0.01,0.0
1778774962.313247,-67.98,-0.39,0.19,-0.013,0.019,9.809,0.0,0.0,0.0
1778774962.3232706,-67.98,-0.39,0.19,-0.013,0.019,9.809,-0.01,0.0,0.0
1778774962.333277,-67.98,-0.39,0.19,-0.01,0.022,9.809,-0.01,0.0,0.0
1778774962.3432653,-67.98,-0.39,0.19,-0.013,0.022,9.809,0.0,0.0,0.0
1778774962.3532715,-67.98,-0.39,0.19,-0.017,0.02,9.809,-0.01,0.0,0.0
1778774962.3632262,-67.98,-0.38,0.18,-0.018,0.023,9.809,-0.01,0.0,0.0
1778774962.3732836,-67.98,-0.38,0.18,-0.014,0.026,9.809,-0.01,0.0,0.0
1778774962.3832693,-67.98,-0.38,0.19,-0.012,0.029,9.809,-0.01,-0.01,0.0
1778774962.3932414,-67.98,-0.38,0.19,-0.01,0.028,9.809,-0.01,0.0,0.0
1778774962.4032679,-67.98,-0.37,0.18,-0.01,0.026,9.809,0.0,0.0,0.0
1778774962.4132457,-68.0,-0.37,0.18,-0.013,0.03,9.81,-0.01,0.0,0.0
1778774962.4232266,-68.0,-0.37,0.18,-0.02,0.025,9.81,-0.01,0.0,0.0
1778774962.4333975,-68.0,-0.37,0.18,-0.022,0.024,9.81,-0.01,0.0,0.0
1778774962.4432323,-68.0,-0.37,0.18,-0.02,0.024,9.81,-0.01,0.0,-0.01
1778774962.4532516,-68.0,-0.37,0.18,-0.025,0.017,9.81,-0.01,0.0,-0.01
1778774962.463212,-68.0,-0.37,0.18,-0.025,0.013,9.81,0.0,0.0,0.0
1778774962.4732406,-68.0,-0.36,0.18,-0.024,0.016,9.81,-0.01,0.0,0.0
1778774962.4832397,-68.0,-0.36,0.18,-0.023,0.014,9.81,-0.01,0.0,0.0
1778774962.4932718,-68.0,-0.36,0.18,-0.02,0.016,9.81,0.0,0.0,-0.01
1778774962.5032325,-68.0,-0.35,0.18,-0.019,0.018,9.81,0.0,-0.01,0.0
1778774962.51323,-68.0,-0.35,0.18,-0.026,0.018,9.81,-0.01,-0.01,0.0
1778774962.5232139,-68.0,-0.35,0.18,-0.028,0.018,9.81,-0.01,0.0,-0.01
1778774962.5332322,-68.0,-0.35,0.18,-0.03,0.014,9.81,0.0,0.0,0.0
1778774962.5432146,-68.0,-0.36,0.17,-0.028,0.018,9.81,-0.01,0.0,0.0
1778774962.5531929,-68.0,-0.35,0.18,-0.028,0.02,9.81,-0.01,0.0,0.0
1778774962.5632377,-68.0,-0.35,0.18,-0.026,0.024,9.81,-0.01,0.0,0.0
1778774962.573199,-68.0,-0.35,0.17,-0.024,0.026,9.81,0.0,0.0,0.0
1778774962.5832279,-68.0,-0.35,0.17,-0.024,0.029,9.81,0.0,0.0,0.0
1778774962.5932276,-68.0,-0.35,0.17,-0.023,0.031,9.81,-0.01,0.0,-0.01
1778774962.603199,-68.0,-0.35,0.17,-0.023,0.031,9.81,0.0,0.0,-0.01
1778774962.6132307,-68.0,-0.35,0.17,-0.022,0.029,9.81,0.0,0.0,0.0
1778774962.623196,-68.0,-0.35,0.17,-0.025,0.023,9.809,-0.01,0.0,0.0
1778774962.6332014,-68.0,-0.34,0.18,-0.028,0.018,9.809,-0.01,-0.01,0.0
1778774962.6431952,-68.0,-0.34,0.18,-0.024,0.019,9.809,0.0,0.0,0.0
1778774962.6532009,-68.0,-0.34,0.18,-0.024,0.018,9.809,-0.01,-0.01,-0.01
1778774962.6632006,-68.0,-0.34,0.18,-0.024,0.018,9.809,-0.01,0.0,0.0
1778774962.6732476,-68.0,-0.33,0.17,-0.028,0.018,9.809,0.0,-0.01,0.0
1778774962.6832006,-68.0,-0.33,0.17,-0.028,0.017,9.809,0.0,-0.01,0.0
1778774962.693216,-68.0,-0.33,0.17,-0.025,0.011,9.809,0.0,-0.01,-0.01
1778774962.7032347,-68.0,-0.33,0.17,-0.026,0.016,9.809,0.0,0.0,-0.01
1778774962.7132165,-68.01,-0.33,0.17,-0.028,0.019,9.81,0.0,0.0,0.0
1778774962.7232156,-68.01,-0.33,0.17,-0.028,0.013,9.81,-0.01,0.0,0.0
1778774962.7332175,-68.01,-0.33,0.17,-0.029,0.019,9.81,-0.01,-0.01,0.0
1778774962.7432144,-68.01,-0.33,0.17,-0.029,0.018,9.81,0.0,0.0,0.0
1778774962.7532172,-68.01,-0.32,0.17,-0.028,0.012,9.809,-0.01,0.0,0.0
1778774962.7632177,-68.01,-0.32,0.17,-0.026,0.011,9.809,-0.01,0.0,-0.01
1778774962.7732153,-68.01,-0.32,0.17,-0.03,0.013,9.809,0.0,0.0,0.0
1778774962.783214,-68.01,-0.32,0.17,-0.025,0.018,9.809,-0.01,-0.01,0.0
1778774962.7932322,-68.01,-0.32,0.16,-0.03,0.022,9.809,-0.01,0.0,0.0
1778774962.8031812,-68.01,-0.32,0.16,-0.03,0.02,9.809,-0.01,0.0,-0.01
1778774962.8132136,-68.01,-0.32,0.16,-0.03,0.022,9.809,-0.01,0.0,0.0
1778774962.8232152,-68.01,-0.32,0.17,-0.029,0.026,9.809,-0.01,0.0,0.0
1778774962.833168,-68.01,-0.32,0.17,-0.028,0.028,9.809,0.0,0.0,0.0
1778774962.8432434,-68.01,-0.32,0.17,-0.024,0.025,9.809,0.0,-0.01,0.0
1778774962.853169,-68.01,-0.32,0.17,-0.024,0.024,9.809,0.0,0.0,0.0
1778774962.8632154,-68.01,-0.31,0.17,-0.025,0.029,9.809,-0.01,0.0,0.0
1778774962.8731854,-68.01,-0.31,0.17,-0.028,0.03,9.809,-0.01,0.0,0.0
1778774962.8831575,-68.01,-0.31,0.17,-0.03,0.032,9.809,-0.01,0.0,0.0
1778774962.8932014,-68.01,-0.31,0.17,-0.03,0.028,9.809,-0.01,0.0,0.0
1778774962.9031847,-68.02,-0.31,0.17,-0.031,0.025,9.81,0.0,0.0,-0.01
1778774962.913159,-68.02,-0.31,0.17,-0.034,0.024,9.81,0.0,0.0,0.0
1778774962.9231694,-68.02,-0.31,0.17,-0.034,0.026,9.81,0.0,0.0,0.0
1778774962.9331522,-68.02,-0.31,0.17,-0.03,0.022,9.81,0.0,-0.01,0.0
1778774962.9431553,-68.02,-0.31,0.17,-0.032,0.018,9.81,0.0,0.0,0.0
1778774962.9531538,-68.02,-0.31,0.17,-0.034,0.02,9.81,-0.01,0.0,0.0
1778774962.962317,-68.02,-0.31,0.17,-0.031,0.022,9.81,-0.01,0.0,0.0
1778774962.9731662,-68.02,-0.31,0.17,-0.031,0.025,9.81,-0.01,0.0,0.0
1778774962.9831374,-68.02,-0.3,0.17,-0.035,0.023,9.81,-0.01,0.0,0.0
1778774962.9923298,-68.02,-0.3,0.17,-0.029,0.02,9.81,-0.01,-0.01,0.0
1778774963.0031452,-68.02,-0.3,0.17,-0.031,0.022,9.81,0.0,0.0,0.0
1778774963.0123105,-68.02,-0.3,0.17,-0.03,0.018,9.81,-0.01,0.0,0.0
1778774963.0231636,-68.02,-0.3,0.17,-0.032,0.018,9.81,-0.01,0.0,0.0
1778774963.0323267,-68.02,-0.3,0.17,-0.034,0.018,9.81,0.0,0.0,0.0
1778774963.0431643,-68.02,-0.29,0.16,-0.026,0.019,9.81,0.0,-0.01,0.0
1778774963.0531764,-68.02,-0.29,0.16,-0.026,0.022,9.81,-0.01,-0.01,0.0
1778774963.063142,-68.02,-0.29,0.16,-0.034,0.025,9.81,-0.01,0.0,-0.01
1778774963.072309,-68.02,-0.29,0.16,-0.036,0.028,9.809,-0.01,0.0,0.0
1778774963.082311,-68.02,-0.29,0.16,-0.04,0.024,9.809,0.0,-0.01,0.0
1778774963.0923045,-68.02,-0.29,0.16,-0.043,0.02,9.809,0.0,0.0,0.0
1778774963.1031415,-68.02,-0.29,0.16,-0.038,0.014,9.809,0.0,0.0,0.0
1778774963.1122909,-68.02,-0.29,0.16,-0.029,0.019,9.809,0.0,0.0,0.0
1778774963.122271,-68.03,-0.29,0.16,-0.028,0.022,9.81,-0.01,0.0,0.0
1778774963.1323047,-68.03,-0.29,0.16,-0.026,0.024,9.81,-0.01,0.0,0.0
1778774963.1422713,-68.03,-0.29,0.16,-0.028,0.025,9.81,-0.01,0.0,0.0
1778774963.1522925,-68.03,-0.29,0.16,-0.032,0.025,9.81,-0.01,0.0,0.0
1778774963.162291,-68.03,-0.29,0.16,-0.031,0.023,9.81,-0.01,0.0,0.0
1778774963.172293,-68.03,-0.29,0.16,-0.034,0.023,9.809,-0.01,0.0,0.0
1778774963.1822882,-68.03,-0.29,0.16,-0.038,0.017,9.809,-0.01,0.0,0.0
1778774963.192271,-68.03,-0.29,0.16,-0.038,0.022,9.809,0.0,0.0,0.0
1778774963.2022524,-68.03,-0.29,0.16,-0.036,0.02,9.809,-0.01,-0.01,0.0
1778774963.2122347,-68.03,-0.29,0.16,-0.038,0.017,9.809,-0.01,0.0,0.0
1778774963.2222562,-68.03,-0.29,0.16,-0.04,0.019,9.809,0.0,0.0,0.0
1778774963.2322423,-68.03,-0.29,0.16,-0.043,0.018,9.809,0.0,0.0,0.0
1778774963.2422597,-68.03,-0.29,0.16,-0.038,0.022,9.809,-0.01,0.0,0.0
1778774963.2522693,-68.03,-0.29,0.16,-0.036,0.026,9.809,-0.01,-0.01,0.0
1778774963.2622292,-68.03,-0.29,0.16,-0.038,0.025,9.809,-0.01,0.0,0.0
1778774963.2722728,-68.03,-0.28,0.16,-0.038,0.025,9.809,-0.01,-0.01,0.0
1778774963.2822702,-68.03,-0.28,0.16,-0.032,0.026,9.809,-0.01,0.0,-0.01
1778774963.2922382,-68.03,-0.28,0.16,-0.031,0.025,9.809,-0.01,0.0,0.0
1778774963.3022275,-68.04,-0.28,0.16,-0.034,0.019,9.809,-0.01,0.0,0.0
1778774963.3122365,-68.05,-0.28,0.16,-0.035,0.022,9.81,0.0,0.0,0.0
1778774963.3222704,-68.05,-0.28,0.16,-0.034,0.024,9.81,0.0,0.0,0.0
1778774963.3322296,-68.05,-0.28,0.16,-0.036,0.022,9.81,0.0,0.0,0.0
1778774963.342216,-68.05,-0.28,0.16,-0.036,0.02,9.81,-0.01,0.0,0.0
1778774963.352227,-68.05,-0.28,0.16,-0.032,0.018,9.81,-0.01,0.0,0.0
1778774963.3622267,-68.05,-0.28,0.16,-0.029,0.016,9.81,-0.01,0.0,-0.01
1778774963.3722517,-68.05,-0.28,0.16,-0.028,0.016,9.81,-0.01,0.0,0.0
1778774963.3822443,-68.05,-0.28,0.16,-0.031,0.014,9.81,0.0,0.0,-0.01
1778774963.3922167,-68.05,-0.28,0.15,-0.034,0.017,9.809,0.0,0.0,0.0
1778774963.4022217,-68.05,-0.28,0.15,-0.031,0.016,9.809,-0.01,0.0,-0.01
1778774963.4122565,-68.05,-0.28,0.15,-0.031,0.018,9.809,-0.01,0.0,0.0
1778774963.4222414,-68.05,-0.28,0.15,-0.037,0.018,9.809,-0.01,0.0,0.0
1778774963.432259,-68.05,-0.28,0.15,-0.037,0.026,9.809,0.0,0.0,0.0
1778774963.4422307,-68.05,-0.28,0.15,-0.036,0.026,9.809,0.0,0.0,0.0
1778774963.4522154,-68.05,-0.28,0.15,-0.031,0.024,9.809,0.0,-0.01,0.0
1778774963.4622357,-68.05,-0.28,0.15,-0.037,0.025,9.809,-0.01,0.0,-0.01
1778774963.472192,-68.05,-0.28,0.15,-0.037,0.026,9.809,-0.01,0.0,-0.01
1778774963.4822156,-68.05,-0.28,0.15,-0.038,0.023,9.809,0.0,0.0,0.0
1778774963.4921885,-68.05,-0.28,0.15,-0.041,0.026,9.809,0.0,0.0,0.0
1778774963.5022237,-68.05,-0.28,0.15,-0.044,0.03,9.809,0.0,0.0,-0.01
1778774963.5122187,-68.05,-0.28,0.15,-0.046,0.026,9.809,-0.01,-0.01,0.0
1778774963.5221925,-68.05,-0.28,0.15,-0.046,0.024,9.809,-0.01,0.0,0.0
1778774963.532202,-68.05,-0.28,0.15,-0.038,0.026,9.809,-0.01,0.0,-0.01
1778774963.54219,-68.05,-0.28,0.15,-0.036,0.028,9.809,0.0,0.0,0.0
1778774963.5521948,-68.05,-0.28,0.15,-0.044,0.026,9.809,-0.01,0.0,0.0
1778774963.5624819,-68.06,-0.28,0.15,-0.04,0.022,9.81,0.0,0.0,0.0
1778774963.5722053,-68.06,-0.27,0.16,-0.042,0.024,9.81,0.0,-0.01,0.0
1778774963.5822027,-68.06,-0.27,0.16,-0.04,0.024,9.81,0.0,0.0,0.0
1778774963.5921836,-68.06,-0.27,0.16,-0.044,0.026,9.81,0.0,0.0,0.0
1778774963.602205,-68.06,-0.28,0.15,-0.043,0.025,9.81,-0.01,0.0,0.0
1778774963.6122072,-68.06,-0.28,0.15,-0.043,0.025,9.81,-0.01,0.0,0.0
1778774963.6221898,-68.06,-0.28,0.15,-0.046,0.028,9.81,0.0,0.0,0.0
1778774963.6322083,-68.06,-0.27,0.16,-0.046,0.029,9.81,0.0,0.0,0.0
1778774963.6422153,-68.06,-0.27,0.16,-0.044,0.032,9.809,0.0,-0.01,-0.01
1778774963.6522112,-68.06,-0.27,0.16,-0.046,0.029,9.809,0.0,0.0,0.0
1778774963.662307,-68.06,-0.27,0.16,-0.041,0.031,9.809,0.0,0.0,0.0
1778774963.6722155,-68.06,-0.27,0.16,-0.036,0.026,9.809,0.0,0.0,-0.01
1778774963.6821988,-68.06,-0.27,0.16,-0.038,0.023,9.809,0.0,0.0,0.0
1778774963.6921787,-68.06,-0.27,0.16,-0.038,0.023,9.809,-0.01,-0.01,0.0
1778774963.702217,-68.06,-0.27,0.16,-0.04,0.029,9.809,-0.01,0.0,0.0
1778774963.7122023,-68.06,-0.27,0.16,-0.037,0.028,9.809,0.0,0.0,0.0
1778774963.72217,-68.06,-0.27,0.16,-0.041,0.026,9.809,0.0,-0.01,0.0
1778774963.7322009,-68.06,-0.27,0.16,-0.035,0.029,9.809,0.0,0.0,0.0
1778774963.7421513,-68.06,-0.27,0.16,-0.034,0.031,9.809,0.0,0.0,0.0
1778774963.752189,-68.06,-0.27,0.16,-0.031,0.03,9.809,0.0,-0.01,0.0
1778774963.762166,-68.06,-0.27,0.16,-0.026,0.028,9.809,0.0,-0.01,0.0
1778774963.7722163,-68.06,-0.27,0.16,-0.028,0.025,9.809,0.0,0.0,0.0
1778774963.7821777,-68.06,-0.27,0.16,-0.034,0.023,9.809,-0.01,0.0,0.0
1778774963.7921948,-68.07,-0.27,0.16,-0.032,0.02,9.809,0.0,0.0,0.0
1778774963.8021607,-68.07,-0.27,0.16,-0.032,0.024,9.809,0.0,0.0,0.0
1778774963.8121808,-68.07,-0.27,0.16,-0.036,0.022,9.809,0.0,0.0,0.0
1778774963.822177,-68.07,-0.27,0.16,-0.034,0.02,9.809,0.0,0.0,0.0
1778774963.8321326,-68.07,-0.26,0.16,-0.032,0.016,9.809,-0.01,0.0,0.0
1778774963.8421996,-68.07,-0.26,0.16,-0.031,0.017,9.809,0.0,-0.01,-0.01
1778774963.8521712,-68.07,-0.26,0.16,-0.035,0.02,9.809,0.0,0.0,0.0
1778774963.861364,-68.07,-0.26,0.16,-0.037,0.02,9.809,0.0,-0.01,0.0
1778774963.8721633,-68.07,-0.26,0.16,-0.037,0.019,9.809,-0.01,0.0,0.0
1778774963.8821647,-68.07,-0.26,0.16,-0.04,0.02,9.809,0.0,-0.01,0.0
1778774963.8921292,-68.07,-0.26,0.16,-0.042,0.023,9.809,0.0,-0.01,0.0
1778774963.9021502,-68.07,-0.26,0.16,-0.036,0.018,9.809,0.0,0.0,0.0
1778774963.9121306,-68.07,-0.26,0.16,-0.041,0.019,9.809,-0.01,0.0,0.0
1778774963.9213095,-68.07,-0.26,0.16,-0.042,0.017,9.809,-0.01,-0.01,0.0
1778774963.932151,-68.07,-0.26,0.16,-0.036,0.02,9.809,0.0,0.0,0.0
1778774963.941314,-68.07,-0.26,0.16,-0.036,0.024,9.809,-0.01,0.0,0.0
1778774963.9521272,-68.07,-0.26,0.16,-0.036,0.022,9.809,0.0,0.0,0.0
1778774963.9613175,-68.07,-0.26,0.16,-0.034,0.023,9.809,0.0,0.0,0.0
1778774963.9721444,-68.07,-0.26,0.16,-0.036,0.02,9.809,0.0,-0.01,0.0
1778774963.9813051,-68.07,-0.26,0.16,-0.036,0.02,9.809,0.0,0.0,-0.01
1778774963.9912877,-68.07,-0.26,0.16,-0.037,0.02,9.809,-0.01,0.0,-0.01
1778774964.002142,-68.07,-0.26,0.16,-0.041,0.024,9.809,0.0,-0.01,0.0
1778774964.0113068,-68.07,-0.26,0.16,-0.043,0.024,9.809,-0.01,0.0,0.0
1778774964.0212922,-68.07,-0.26,0.16,-0.048,0.02,9.809,-0.01,0.0,0.0
1778774964.0313168,-68.07,-0.26,0.16,-0.047,0.019,9.809,-0.01,0.0,0.0
1778774964.0412738,-68.07,-0.26,0.16,-0.044,0.018,9.809,-0.01,0.0,0.0
1778774964.0512757,-68.07,-0.26,0.16,-0.041,0.014,9.809,-0.01,0.0,0.0
1778774964.0612934,-68.07,-0.26,0.16,-0.031,0.017,9.809,0.0,0.0,0.0
1778774964.0712724,-68.08,-0.26,0.16,-0.032,0.017,9.81,0.0,0.0,0.0
1778774964.0813036,-68.08,-0.26,0.16,-0.03,0.025,9.81,-0.01,0.0,0.0
1778774964.0914195,-68.08,-0.26,0.16,-0.035,0.026,9.81,-0.01,0.0,0.0
1778774964.1012955,-68.08,-0.26,0.16,-0.035,0.025,9.81,0.0,0.0,0.0
1778774964.1114411,-68.08,-0.26,0.16,-0.034,0.026,9.81,-0.01,0.0,0.0
1778774964.12123,-68.08,-0.26,0.16,-0.028,0.028,9.81,0.0,0.0,0.0
1778774964.1313922,-68.08,-0.25,0.16,-0.026,0.022,9.81,0.0,0.0,0.0
1778774964.1418958,-68.08,-0.25,0.16,-0.029,0.019,9.81,0.0,0.0,-0.01
1778774964.151326,-68.08,-0.25,0.16,-0.023,0.014,9.81,0.0,0.0,-0.01
1778774964.1612895,-68.08,-0.25,0.16,-0.025,0.018,9.809,-0.01,0.0,0.0
1778774964.1713111,-68.08,-0.25,0.16,-0.028,0.024,9.809,0.0,0.0,0.0
1778774964.1813438,-68.08,-0.25,0.16,-0.031,0.024,9.809,0.0,0.0,0.0
1778774964.1912186,-68.08,-0.25,0.16,-0.037,0.023,9.809,0.0,0.0,0.0
1778774964.2012389,-68.08,-0.25,0.16,-0.037,0.02,9.809,0.0,0.0,0.0
1778774964.2111986,-68.08,-0.25,0.16,-0.041,0.024,9.809,0.0,0.0,0.0
1778774964.2212253,-68.08,-0.25,0.16,-0.044,0.025,9.809,-0.01,0.0,0.0
1778774964.2311943,-68.08,-0.25,0.16,-0.047,0.019,9.809,0.0,0.0,0.0
1778774964.2412338,-68.08,-0.26,0.16,-0.047,0.018,9.809,-0.01,0.0,0.0
1778774964.2512035,-68.08,-0.26,0.16,-0.043,0.019,9.809,0.0,0.0,0.0
1778774964.2612164,-68.08,-0.26,0.16,-0.041,0.024,9.809,0.0,0.0,0.0
1778774964.2712016,-68.08,-0.25,0.16,-0.038,0.017,9.809,0.0,-0.01,0.0
1778774964.2812462,-68.08,-0.26,0.16,-0.044,0.02,9.809,0.0,0.0,-0.01
1778774964.2912114,-68.08,-0.26,0.16,-0.043,0.029,9.809,-0.01,0.0,0.0
1778774964.3011916,-68.08,-0.26,0.16,-0.038,0.031,9.809,-0.01,0.0,0.0
1778774964.3112264,-68.1,-0.25,0.16,-0.038,0.029,9.809,-0.01,0.0,0.0
1778774964.3212037,-68.08,-0.26,0.16,-0.037,0.025,9.809,0.0,0.0,0.0
1778774964.3311875,-68.1,-0.26,0.16,-0.042,0.026,9.809,-0.01,0.0,-0.01
1778774964.341228,-68.1,-0.25,0.16,-0.037,0.024,9.809,0.0,0.0,0.0
1778774964.3511949,-68.1,-0.25,0.16,-0.038,0.028,9.809,-0.01,-0.01,0.0
1778774964.3612432,-68.1,-0.25,0.16,-0.041,0.022,9.809,-0.01,0.0,0.0
1778774964.3711972,-68.1,-0.26,0.16,-0.046,0.02,9.809,0.0,0.0,0.0
1778774964.3812277,-68.1,-0.26,0.16,-0.043,0.017,9.809,-0.01,0.0,0.0
1778774964.391211,-68.1,-0.26,0.16,-0.037,0.016,9.809,-0.01,0.0,0.0
1778774964.4012325,-68.1,-0.26,0.16,-0.04,0.023,9.809,0.0,0.0,0.0
1778774964.4112277,-68.1,-0.26,0.16,-0.044,0.023,9.809,-0.01,-0.01,0.0
1778774964.4212322,-68.1,-0.26,0.16,-0.042,0.025,9.809,-0.01,-0.01,0.0
1778774964.4312093,-68.1,-0.26,0.16,-0.043,0.022,9.809,-0.01,0.0,0.0
1778774964.4412491,-68.1,-0.26,0.16,-0.042,0.02,9.809,0.0,0.0,0.0
1778774964.4512103,-68.1,-0.25,0.15,-0.047,0.022,9.809,-0.01,0.0,0.0
1778774964.4612164,-68.1,-0.25,0.15,-0.05,0.024,9.809,0.0,-0.01,0.0
1778774964.4712384,-68.1,-0.26,0.16,-0.049,0.022,9.809,-0.01,0.0,-0.01
1778774964.4812317,-68.1,-0.26,0.16,-0.046,0.024,9.809,0.0,0.0,-0.01
1778774964.4912107,-68.1,-0.26,0.16,-0.047,0.028,9.809,-0.01,0.0,0.0
1778774964.5012152,-68.1,-0.26,0.16,-0.043,0.025,9.809,0.0,0.0,0.0
1778774964.511214,-68.1,-0.26,0.16,-0.043,0.024,9.809,0.0,-0.01,-0.01
1778774964.5212176,-68.1,-0.26,0.16,-0.043,0.028,9.809,0.0,0.0,-0.01
1778774964.531179,-68.1,-0.26,0.16,-0.042,0.029,9.809,-0.01,0.0,0.0
1778774964.541214,-68.11,-0.26,0.16,-0.044,0.028,9.81,-0.01,0.0,0.0
1778774964.5511782,-68.11,-0.26,0.16,-0.049,0.03,9.81,0.0,0.0,0.0
1778774964.5612154,-68.11,-0.26,0.16,-0.048,0.026,9.81,-0.01,0.0,0.0
1778774964.5712137,-68.11,-0.26,0.16,-0.049,0.025,9.81,-0.01,0.0,0.0
1778774964.581169,-68.11,-0.26,0.16,-0.044,0.024,9.81,0.0,0.0,0.0
1778774964.5912724,-68.11,-0.26,0.16,-0.038,0.026,9.81,-0.01,0.0,0.0
1778774964.601184,-68.11,-0.26,0.16,-0.044,0.028,9.81,0.0,0.0,0.0
1778774964.6112077,-68.11,-0.26,0.16,-0.044,0.025,9.81,0.0,0.0,0.0
1778774964.621199,-68.11,-0.26,0.16,-0.046,0.024,9.809,-0.01,0.0,0.0
1778774964.6311767,-68.11,-0.26,0.16,-0.046,0.023,9.809,-0.01,0.0,0.0
1778774964.641212,-68.11,-0.26,0.16,-0.046,0.025,9.809,0.0,0.0,0.0
1778774964.6511765,-68.11,-0.26,0.16,-0.04,0.023,9.809,-0.01,0.0,0.0
1778774964.6611493,-68.11,-0.26,0.16,-0.038,0.025,9.809,0.0,0.0,0.0
1778774964.671175,-68.11,-0.26,0.16,-0.04,0.019,9.809,0.0,0.0,0.0
1778774964.681144,-68.11,-0.26,0.16,-0.041,0.022,9.809,0.0,0.0,0.0
1778774964.6911752,-68.11,-0.26,0.16,-0.038,0.025,9.809,-0.01,-0.01,0.0
1778774964.7011614,-68.11,-0.26,0.16,-0.037,0.026,9.809,-0.01,0.0,0.0
1778774964.7111409,-68.11,-0.26,0.16,-0.038,0.026,9.809,0.0,0.0,0.0
1778774964.7211595,-68.11,-0.26,0.16,-0.04,0.025,9.809,0.0,0.0,0.0
1778774964.7311418,-68.11,-0.26,0.16,-0.042,0.028,9.809,-0.01,0.0,0.0
1778774964.741145,-68.12,-0.26,0.16,-0.036,0.028,9.809,-0.01,-0.01,0.0
1778774964.7511582,-68.12,-0.26,0.16,-0.036,0.024,9.809,0.0,0.0,0.0
1778774964.7611444,-68.12,-0.26,0.16,-0.036,0.026,9.809,-0.01,0.0,0.0
1778774964.7711248,-68.12,-0.26,0.16,-0.037,0.023,9.809,-0.01,0.0,-0.01
1778774964.7811613,-68.12,-0.26,0.16,-0.037,0.018,9.809,0.0,0.0,0.0
1778774964.7911444,-68.12,-0.26,0.16,-0.038,0.019,9.809,-0.01,-0.01,0.0
1778774964.8003306,-68.12,-0.26,0.16,-0.04,0.028,9.809,0.0,-0.01,0.0
1778774964.8103008,-68.12,-0.26,0.16,-0.04,0.026,9.809,-0.01,0.0,0.0
1778774964.8211448,-68.12,-0.26,0.16,-0.041,0.024,9.809,-0.01,0.0,0.0
1778774964.8313057,-68.12,-0.26,0.16,-0.042,0.026,9.809,0.0,-0.01,-0.01
1778774964.8403015,-68.12,-0.26,0.16,-0.037,0.024,9.809,0.0,0.0,0.0
1778774964.8512805,-68.12,-0.26,0.16,-0.038,0.024,9.809,0.0,0.0,0.0
1778774964.8603055,-68.12,-0.26,0.16,-0.04,0.023,9.809,0.0,0.0,0.0
1778774964.8712246,-68.12,-0.26,0.16,-0.042,0.019,9.809,-0.01,0.0,0.0
1778774964.88047,-68.12,-0.26,0.16,-0.041,0.02,9.809,0.0,0.0,0.0
1778774964.8913052,-68.12,-0.26,0.16,-0.042,0.022,9.809,-0.01,0.0,0.0
1778774964.900304,-68.12,-0.26,0.16,-0.037,0.018,9.809,0.0,0.0,0.0
1778774964.911306,-68.12,-0.26,0.16,-0.037,0.017,9.809,0.0,0.0,0.0
1778774964.9203174,-68.12,-0.26,0.16,-0.035,0.014,9.809,0.0,0.0,0.0
1778774964.9302933,-68.12,-0.26,0.16,-0.036,0.017,9.809,0.0,0.0,0.0
1778774964.940305,-68.12,-0.26,0.16,-0.035,0.02,9.809,-0.01,0.0,0.0
1778774964.9502811,-68.12,-0.26,0.16,-0.037,0.023,9.809,-0.01,0.0,0.0
1778774964.9602847,-68.13,-0.26,0.16,-0.04,0.026,9.81,-0.01,-0.01,0.0
1778774964.970302,-68.13,-0.26,0.16,-0.04,0.029,9.81,-0.01,0.0,0.0
1778774964.9803069,-68.13,-0.26,0.16,-0.034,0.024,9.81,0.0,-0.01,-0.01
1778774964.9903002,-68.13,-0.25,0.15,-0.036,0.023,9.81,-0.01,0.0,0.0
1778774965.0002494,-68.13,-0.26,0.16,-0.034,0.026,9.81,-0.01,0.0,0.0
1778774965.010262,-68.13,-0.26,0.16,-0.034,0.029,9.81,0.0,0.0,0.0
1778774965.0202622,-68.13,-0.26,0.16,-0.034,0.026,9.81,-0.01,0.0,0.0
1778774965.030268,-68.13,-0.25,0.15,-0.034,0.028,9.81,0.0,0.0,0.0
1778774965.0402782,-68.13,-0.25,0.15,-0.034,0.03,9.809,-0.01,0.0,0.0
1778774965.0502677,-68.13,-0.25,0.16,-0.031,0.029,9.809,-0.01,0.0,0.0
1778774965.0602512,-68.13,-0.25,0.16,-0.041,0.026,9.809,-0.01,-0.01,0.0
1778774965.0702364,-68.13,-0.25,0.15,-0.04,0.028,9.809,-0.01,-0.01,0.0
1778774965.080303,-68.13,-0.25,0.15,-0.044,0.028,9.809,-0.01,0.0,0.0
1778774965.090269,-68.13,-0.25,0.15,-0.043,0.026,9.809,-0.01,0.0,0.0
1778774965.100234,-68.13,-0.25,0.15,-0.044,0.031,9.809,-0.01,0.0,0.0
1778774965.110269,-68.13,-0.25,0.15,-0.044,0.026,9.809,0.0,0.0,0.0
1778774965.1202528,-68.13,-0.25,0.15,-0.042,0.026,9.809,0.0,-0.01,0.0
1778774965.1302686,-68.13,-0.25,0.15,-0.04,0.023,9.809,0.0,-0.01,0.0
1778774965.1403005,-68.13,-0.25,0.15,-0.044,0.022,9.809,-0.01,0.0,0.0
1778774965.1502686,-68.13,-0.26,0.16,-0.044,0.019,9.809,-0.01,0.0,0.0
1778774965.160236,-68.13,-0.25,0.15,-0.046,0.02,9.809,-0.01,0.0,0.0
1778774965.1702313,-68.14,-0.25,0.15,-0.038,0.016,9.81,-0.01,0.0,0.0
1778774965.1802692,-68.15,-0.25,0.15,-0.041,0.013,9.809,-0.01,-0.01,0.0
1778774965.1902523,-68.15,-0.25,0.15,-0.036,0.016,9.809,-0.01,0.0,0.0
1778774965.2002366,-68.15,-0.25,0.15,-0.037,0.017,9.809,-0.01,0.0,0.0
1778774965.2102582,-68.15,-0.25,0.15,-0.037,0.022,9.809,0.0,0.0,0.0
1778774965.2202318,-68.15,-0.25,0.15,-0.04,0.023,9.809,0.0,0.0,0.0
1778774965.2302773,-68.15,-0.25,0.15,-0.043,0.026,9.809,-0.01,0.0,-0.01
1778774965.2402422,-68.15,-0.25,0.15,-0.044,0.026,9.809,0.0,0.0,0.0
1778774965.2502248,-68.15,-0.25,0.15,-0.046,0.024,9.809,-0.01,-0.01,0.0
1778774965.2602286,-68.15,-0.25,0.15,-0.042,0.024,9.809,-0.01,0.0,-0.01
1778774965.2702594,-68.15,-0.25,0.15,-0.041,0.019,9.809,0.0,0.0,0.0
1778774965.2802415,-68.15,-0.25,0.15,-0.046,0.023,9.809,0.0,-0.01,0.0
1778774965.2902274,-68.15,-0.25,0.15,-0.048,0.025,9.809,-0.01,-0.01,0.0
1778774965.300209,-68.15,-0.25,0.15,-0.047,0.026,9.809,-0.01,0.0,0.0
1778774965.310243,-68.15,-0.25,0.15,-0.046,0.026,9.809,0.0,0.0,0.0
1778774965.320226,-68.15,-0.25,0.15,-0.041,0.026,9.809,-0.01,0.0,0.0
1778774965.330211,-68.15,-0.25,0.15,-0.037,0.026,9.809,-0.01,0.0,0.0
1778774965.3402128,-68.15,-0.25,0.15,-0.04,0.026,9.809,-0.01,-0.01,-0.01
1778774965.350183,-68.15,-0.25,0.15,-0.04,0.025,9.809,0.0,0.0,0.0
1778774965.3602116,-68.15,-0.25,0.15,-0.04,0.025,9.809,-0.01,0.0,0.0
1778774965.3702278,-68.15,-0.25,0.15,-0.038,0.025,9.809,-0.01,0.0,0.0
1778774965.3802104,-68.15,-0.25,0.15,-0.036,0.025,9.809,-0.01,-0.01,0.0
1778774965.3902125,-68.15,-0.25,0.15,-0.036,0.024,9.809,0.0,0.0,0.0
1778774965.4002094,-68.15,-0.25,0.15,-0.034,0.031,9.809,-0.01,0.0,0.0
1778774965.4101799,-68.15,-0.25,0.15,-0.037,0.028,9.809,0.0,0.0,0.0
1778774965.4202085,-68.15,-0.25,0.15,-0.046,0.028,9.809,-0.01,0.0,0.0
1778774965.4302108,-68.15,-0.25,0.15,-0.046,0.023,9.809,-0.01,0.0,0.0
1778774965.4401777,-68.16,-0.25,0.15,-0.05,0.024,9.81,0.0,0.0,-0.01
1778774965.4502108,-68.16,-0.25,0.15,-0.051,0.03,9.81,-0.01,0.0,0.0
1778774965.4602137,-68.16,-0.25,0.15,-0.048,0.03,9.81,0.0,0.0,0.0
1778774965.47018,-68.16,-0.25,0.15,-0.053,0.031,9.81,0.0,0.0,-0.01
1778774965.4801629,-68.16,-0.25,0.15,-0.053,0.031,9.81,-0.01,0.0,0.0
1778774965.4902122,-68.16,-0.25,0.15,-0.048,0.029,9.81,-0.01,0.0,0.0
1778774965.500211,-68.16,-0.25,0.15,-0.042,0.028,9.81,0.0,-0.01,-0.01
1778774965.5102124,-68.16,-0.25,0.15,-0.042,0.026,9.81,-0.01,0.0,-0.01
1778774965.5201821,-68.16,-0.25,0.15,-0.043,0.023,9.81,-0.01,0.0,0.0
1778774965.5301492,-68.16,-0.25,0.15,-0.048,0.022,9.81,0.0,0.0,0.0
1778774965.540214,-68.16,-0.25,0.15,-0.05,0.022,9.81,-0.01,0.0,-0.01
1778774965.550181,-68.16,-0.25,0.15,-0.048,0.023,9.81,0.0,-0.01,0.0
1778774965.5601804,-68.16,-0.25,0.15,-0.049,0.022,9.809,0.0,-0.01,0.0
1778774965.5701632,-68.16,-0.25,0.15,-0.049,0.026,9.809,-0.01,-0.01,0.0
1778774965.5801344,-68.16,-0.25,0.15,-0.047,0.026,9.809,0.0,-0.01,0.0
1778774965.5901804,-68.16,-0.26,0.16,-0.047,0.025,9.809,-0.01,0.0,0.0
1778774965.6001475,-68.16,-0.26,0.16,-0.044,0.029,9.809,-0.01,0.0,0.0
1778774965.610768,-68.16,-0.25,0.15,-0.037,0.031,9.809,-0.01,0.0,0.0
1778774965.6205547,-68.16,-0.25,0.15,-0.044,0.03,9.809,-0.01,0.0,0.0
1778774965.6305144,-68.16,-0.26,0.16,-0.051,0.028,9.809,-0.01,0.0,0.0
1778774965.6401587,-68.16,-0.26,0.15,-0.053,0.025,9.809,0.0,0.0,0.0
1778774965.6501236,-68.16,-0.26,0.15,-0.049,0.022,9.809,-0.01,0.0,0.0
1778774965.6601422,-68.16,-0.26,0.15,-0.043,0.02,9.809,0.0,0.0,0.0
1778774965.6693249,-68.16,-0.26,0.15,-0.043,0.023,9.809,-0.01,0.0,0.0
1778774965.6801586,-68.16,-0.26,0.15,-0.042,0.02,9.809,-0.01,0.0,0.0
1778774965.689337,-68.16,-0.26,0.15,-0.048,0.019,9.809,-0.01,0.0,0.0
1778774965.6993024,-68.17,-0.26,0.15,-0.051,0.018,9.81,-0.01,-0.01,0.0
1778774965.71031,-68.17,-0.26,0.15,-0.049,0.024,9.809,0.0,0.0,0.0
1778774965.7193036,-68.17,-0.26,0.15,-0.048,0.025,9.809,-0.01,0.0,0.0
1778774965.7302701,-68.17,-0.26,0.15,-0.049,0.025,9.809,0.0,0.0,0.0
1778774965.7393026,-68.17,-0.26,0.15,-0.042,0.026,9.809,-0.01,0.0,0.0
1778774965.7493043,-68.17,-0.26,0.15,-0.04,0.028,9.809,-0.01,0.0,-0.01
1778774965.7601397,-68.17,-0.26,0.15,-0.04,0.026,9.809,-0.01,-0.01,0.0
1778774965.7692971,-68.17,-0.26,0.15,-0.041,0.03,9.809,0.0,-0.01,0.0
1778774965.7793045,-68.17,-0.26,0.15,-0.042,0.028,9.809,0.0,0.0,-0.01
1778774965.7892957,-68.17,-0.26,0.15,-0.044,0.023,9.809,-0.01,0.0,0.0
1778774965.7994506,-68.17,-0.26,0.15,-0.041,0.022,9.809,0.0,0.0,0.0
1778774965.809308,-68.17,-0.26,0.15,-0.04,0.019,9.809,0.0,0.0,0.0
1778774965.8193011,-68.17,-0.26,0.15,-0.037,0.022,9.809,-0.01,0.0,-0.01
1778774965.8293223,-68.17,-0.26,0.15,-0.036,0.022,9.809,0.0,0.0,0.0
1778774965.8392987,-68.17,-0.26,0.15,-0.034,0.022,9.809,0.0,0.0,0.0
1778774965.8492706,-68.17,-0.26,0.15,-0.03,0.024,9.809,0.0,-0.01,0.0
1778774965.8592978,-68.17,-0.26,0.15,-0.032,0.028,9.809,-0.01,-0.01,0.0
1778774965.8693044,-68.17,-0.26,0.15,-0.037,0.023,9.809,0.0,0.0,0.0
1778774965.8792439,-68.17,-0.26,0.15,-0.036,0.026,9.809,-0.01,0.0,-0.01
1778774965.889265,-68.17,-0.26,0.15,-0.04,0.029,9.809,0.0,0.0,-0.01
1778774965.899262,-68.17,-0.26,0.16,-0.047,0.026,9.809,0.0,0.0,0.0
1778774965.9092631,-68.17,-0.26,0.16,-0.047,0.024,9.809,0.0,0.0,0.0
1778774965.9192762,-68.17,-0.26,0.15,-0.047,0.023,9.809,0.0,-0.01,0.0
1778774965.929244,-68.17,-0.26,0.15,-0.047,0.028,9.809,-0.01,0.0,0.0
1778774965.9392748,-68.18,-0.26,0.15,-0.051,0.029,9.81,-0.01,0.0,0.0
1778774965.9492347,-68.18,-0.26,0.15,-0.048,0.032,9.81,-0.01,0.0,0.0
1778774965.9592307,-68.18,-0.26,0.15,-0.044,0.028,9.81,0.0,-0.01,0.0
1778774965.969264,-68.18,-0.26,0.15,-0.038,0.026,9.81,0.0,-0.01,0.0
1778774965.97939,-68.18,-0.26,0.15,-0.038,0.034,9.81,-0.01,-0.01,0.0
1778774965.9892392,-68.18,-0.26,0.16,-0.032,0.035,9.81,-0.01,0.0,-0.01
1778774965.9993675,-68.18,-0.26,0.16,-0.031,0.035,9.81,-0.01,0.0,0.0
1778774966.0092528,-68.18,-0.26,0.16,-0.031,0.032,9.81,-0.01,0.0,-0.01
1778774966.0192366,-68.18,-0.26,0.16,-0.026,0.031,9.81,-0.01,0.0,-0.01
1778774966.0292377,-68.18,-0.26,0.16,-0.029,0.024,9.81,-0.01,0.0,0.0
1778774966.0392525,-68.18,-0.25,0.15,-0.032,0.026,9.81,-0.01,-0.01,0.0
1778774966.0492368,-68.18,-0.26,0.16,-0.034,0.028,9.81,0.0,-0.01,0.0
1778774966.059499,-68.18,-0.25,0.15,-0.036,0.026,9.809,-0.01,0.0,0.0
1778774966.0701535,-68.18,-0.26,0.16,-0.035,0.024,9.809,0.0,0.0,0.0
1778774966.0792832,-68.18,-0.25,0.15,-0.036,0.017,9.809,0.0,0.0,0.0
1778774966.089208,-68.18,-0.26,0.15,-0.036,0.018,9.809,-0.01,0.0,0.0
1778774966.0992582,-68.18,-0.26,0.15,-0.041,0.019,9.809,-0.01,0.0,0.0
1778774966.1092448,-68.18,-0.26,0.15,-0.042,0.023,9.809,-0.01,0.0,0.0
1778774966.1192513,-68.18,-0.26,0.15,-0.04,0.024,9.809,0.0,0.0,0.0
1778774966.1292443,-68.18,-0.26,0.15,-0.036,0.02,9.809,0.0,-0.01,-0.01
1778774966.1392376,-68.18,-0.26,0.15,-0.038,0.018,9.809,-0.01,-0.01,0.0
1778774966.149212,-68.18,-0.26,0.15,-0.041,0.024,9.809,0.0,0.0,-0.01
1778774966.159255,-68.18,-0.26,0.15,-0.043,0.026,9.809,-0.01,0.0,0.0
1778774966.169228,-68.18,-0.26,0.15,-0.043,0.026,9.809,-0.01,0.0,0.0
1778774966.1792035,-68.18,-0.26,0.15,-0.044,0.026,9.809,-0.01,0.0,-0.01
1778774966.1893897,-68.18,-0.26,0.15,-0.048,0.028,9.809,0.0,0.0,0.0
1778774966.1992514,-68.19,-0.26,0.15,-0.044,0.032,9.81,-0.01,-0.01,0.0
1778774966.2092261,-68.19,-0.26,0.16,-0.044,0.035,9.81,-0.01,0.0,0.0
1778774966.2192233,-68.2,-0.26,0.16,-0.044,0.036,9.809,-0.01,-0.01,0.0
1778774966.2292323,-68.2,-0.26,0.16,-0.046,0.034,9.809,-0.01,-0.01,0.0
1778774966.239254,-68.2,-0.26,0.16,-0.049,0.032,9.809,-0.01,-0.01,0.0
1778774966.2492273,-68.2,-0.26,0.16,-0.044,0.026,9.809,0.0,-0.01,0.0
1778774966.2592175,-68.2,-0.26,0.16,-0.037,0.028,9.809,-0.01,0.0,0.0
1778774966.2692232,-68.2,-0.25,0.15,-0.036,0.03,9.809,0.0,0.0,0.0
1778774966.2792192,-68.2,-0.26,0.16,-0.041,0.025,9.809,-0.01,0.0,0.0
1778774966.2892177,-68.2,-0.26,0.16,-0.042,0.028,9.809,0.0,0.0,0.0
1778774966.2992196,-68.2,-0.26,0.16,-0.043,0.026,9.809,-0.01,0.0,0.0
1778774966.3091855,-68.2,-0.26,0.16,-0.043,0.028,9.809,0.0,0.0,0.0
1778774966.3192263,-68.2,-0.26,0.16,-0.04,0.028,9.809,0.0,0.0,0.0
1778774966.3291743,-68.2,-0.26,0.16,-0.037,0.024,9.809,0.0,0.0,0.0
1778774966.3392136,-68.2,-0.26,0.16,-0.037,0.019,9.809,-0.01,0.0,0.0
1778774966.349191,-68.2,-0.26,0.16,-0.037,0.023,9.809,-0.01,0.0,0.0
1778774966.3592322,-68.2,-0.26,0.16,-0.04,0.029,9.809,0.0,0.0,0.0
1778774966.3691878,-68.2,-0.26,0.16,-0.041,0.03,9.808,0.0,0.0,0.0
1778774966.3792157,-68.21,-0.26,0.16,-0.044,0.025,9.809,0.0,0.0,0.0
1778774966.3892014,-68.21,-0.26,0.16,-0.044,0.029,9.809,-0.01,-0.01,0.0
1778774966.399182,-68.21,-0.26,0.16,-0.047,0.025,9.809,0.0,-0.01,0.0
