timestamp,yaw,pitch,roll,accel_x,accel_y,accel_z,gyro_x,gyro_y,gyro_z
1778774347.8596268,0.01,-0.01,0.43,0.002,-0.079,-2.557,0.0,0.0,0.0
1778774347.8694773,0.01,-0.01,0.43,0.0,-0.081,0.715,-0.01,-0.01,-0.01
1778774347.8794866,0.01,-0.01,0.42,0.0,-0.077,3.123,-0.01,-0.01,-0.01
1778774347.8894897,0.01,-0.01,0.41,0.0,-0.078,4.888,-0.01,-0.01,-0.01
1778774347.8994823,0.01,-0.01,0.41,0.0,-0.078,6.192,-0.01,-0.01,-0.01
1778774347.9094841,0.01,-0.01,0.4,0.0,-0.079,7.147,-0.01,-0.01,-0.01
1778774347.9194806,0.01,-0.01,0.39,-0.002,-0.078,7.85,-0.01,-0.01,-0.01
1778774347.9294856,0.01,-0.01,0.38,-0.001,-0.078,8.367,-0.01,-0.01,-0.01
1778774347.939501,0.01,-0.01,0.38,-0.002,-0.071,8.741,-0.01,0.0,-0.01
1778774347.949489,0.01,-0.01,0.37,0.001,-0.073,9.017,-0.01,-0.01,-0.01
1778774347.959445,0.01,-0.01,0.36,0.007,-0.074,9.218,-0.01,-0.01,-0.01
1778774347.969444,0.02,-0.01,0.36,0.006,-0.077,9.367,-0.01,-0.01,-0.01
1778774347.979433,0.02,-0.01,0.34,0.0,-0.079,9.481,-0.01,-0.01,-0.01
1778774347.9894314,0.02,-0.01,0.34,0.001,-0.073,9.566,-0.01,-0.01,-0.01
1778774347.99946,0.02,-0.01,0.34,0.006,-0.072,9.624,-0.01,0.0,-0.01
1778774348.0094442,0.02,-0.01,0.33,0.01,-0.071,9.671,-0.01,-0.01,-0.01
1778774348.019427,0.02,-0.01,0.32,0.004,-0.068,9.707,-0.01,-0.01,-0.01
1778774348.029417,0.02,-0.01,0.31,0.005,-0.067,9.731,-0.01,-0.01,-0.01
1778774348.0394397,0.02,-0.01,0.31,0.007,-0.067,9.745,-0.01,-0.01,0.0
1778774348.0494523,0.03,-0.01,0.3,0.012,-0.066,9.759,-0.01,-0.01,-0.01
1778774348.059407,0.03,-0.0,0.29,0.008,-0.067,9.767,-0.01,-0.01,-0.01
1778774348.0685906,0.03,-0.0,0.29,0.01,-0.063,9.773,-0.01,-0.01,-0.01
1778774348.0794065,0.03,-0.0,0.28,0.008,-0.061,9.782,-0.01,0.0,-0.01
1778774348.0885856,0.03,-0.0,0.28,0.005,-0.055,9.781,-0.01,-0.01,-0.01
1778774348.099406,0.03,-0.0,0.27,0.0,-0.055,9.781,-0.01,-0.01,-0.01
1778774348.108604,0.03,-0.0,0.27,0.0,-0.055,9.779,-0.01,-0.01,-0.01
1778774348.118614,0.03,-0.0,0.26,0.001,-0.053,9.784,-0.01,-0.01,-0.01
1778774348.1286864,0.03,-0.0,0.25,0.004,-0.05,9.788,-0.01,-0.01,-0.01
1778774348.138524,0.03,-0.0,0.25,0.005,-0.053,9.784,-0.01,-0.01,-0.01
1778774348.1485138,0.03,-0.0,0.24,0.008,-0.051,9.79,-0.01,-0.01,-0.01
1778774348.1586778,0.03,-0.0,0.24,0.012,-0.048,9.788,-0.01,-0.01,-0.01
1778774348.1685002,0.03,-0.0,0.23,0.011,-0.05,9.772,-0.01,0.0,-0.01
1778774348.178507,0.04,-0.0,0.23,0.005,-0.05,9.764,-0.01,-0.01,-0.01
1778774348.1885068,0.04,0.01,0.22,0.007,-0.043,9.774,-0.01,-0.01,-0.01
1778774348.199385,0.04,0.01,0.22,0.013,-0.044,9.779,-0.01,-0.01,-0.01
1778774348.2093859,0.04,0.01,0.22,0.01,-0.043,9.782,-0.01,-0.01,-0.01
1778774348.2185178,0.04,0.01,0.21,0.008,-0.043,9.787,-0.01,-0.01,-0.01
1778774348.2285101,0.04,0.01,0.2,0.006,-0.041,9.785,-0.01,-0.01,-0.01
1778774348.2385318,0.04,0.01,0.2,0.005,-0.04,9.785,-0.01,0.0,-0.01
1778774348.248511,0.05,0.01,0.2,0.001,-0.042,9.78,-0.01,-0.01,-0.01
1778774348.2585306,0.05,0.01,0.19,0.002,-0.042,9.781,-0.01,0.0,-0.01
1778774348.2685394,0.05,0.01,0.19,0.01,-0.043,9.787,-0.01,-0.01,-0.01
1778774348.2785096,0.05,0.01,0.18,0.007,-0.043,9.792,-0.01,-0.01,-0.01
1778774348.288492,0.05,0.01,0.17,0.006,-0.041,9.791,-0.01,-0.01,-0.01
1778774348.2985063,0.05,0.01,0.17,0.004,-0.042,9.796,-0.01,-0.01,-0.01
1778774348.308531,0.05,0.01,0.17,0.004,-0.043,9.793,-0.01,-0.01,-0.01
1778774348.3185449,0.06,0.01,0.16,0.006,-0.04,9.798,-0.01,-0.01,-0.01
1778774348.3285031,0.06,0.01,0.16,0.01,-0.037,9.798,-0.01,-0.01,-0.01
1778774348.3385057,0.06,0.01,0.15,0.01,-0.035,9.791,-0.01,-0.01,-0.01
1778774348.348529,0.06,0.01,0.15,0.006,-0.036,9.79,-0.01,-0.01,-0.01
1778774348.3584685,0.06,0.01,0.15,0.004,-0.037,9.794,-0.01,-0.01,-0.01
1778774348.368476,0.06,0.01,0.15,0.0,-0.035,9.787,-0.01,-0.01,-0.01
1778774348.378536,0.06,0.01,0.14,0.0,-0.034,9.785,-0.01,-0.01,-0.01
1778774348.388493,0.06,0.01,0.14,0.001,-0.034,9.781,-0.01,-0.01,-0.01
1778774348.3984911,0.06,0.01,0.13,0.005,-0.034,9.782,-0.01,-0.01,-0.01
1778774348.408489,0.06,0.01,0.13,0.004,-0.032,9.785,-0.01,-0.01,-0.01
1778774348.4184747,0.06,0.01,0.13,0.004,-0.036,9.79,-0.01,-0.01,-0.01
1778774348.4284663,0.06,0.01,0.13,0.002,-0.038,9.788,-0.01,-0.01,-0.01
1778774348.4384909,0.06,0.01,0.12,0.004,-0.036,9.79,-0.01,-0.01,-0.01
1778774348.4484878,0.07,0.01,0.12,0.005,-0.04,9.792,-0.01,-0.01,-0.01
1778774348.4584885,0.07,0.01,0.11,0.007,-0.037,9.797,-0.01,-0.01,-0.01
1778774348.4684772,0.07,0.02,0.11,0.005,-0.038,9.788,-0.01,-0.01,-0.01
1778774348.4784625,0.07,0.01,0.1,0.001,-0.036,9.784,-0.01,-0.01,-0.01
1778774348.4884474,0.07,0.01,0.1,0.002,-0.037,9.78,-0.01,-0.01,-0.01
1778774348.4984474,0.07,0.02,0.1,0.005,-0.031,9.781,-0.01,-0.01,-0.01
1778774348.5084872,0.07,0.02,0.1,0.002,-0.03,9.776,-0.01,-0.01,-0.01
1778774348.5184882,0.08,0.02,0.1,0.006,-0.031,9.782,-0.01,-0.01,-0.01
1778774348.52846,0.08,0.02,0.09,0.005,-0.028,9.785,-0.01,-0.01,-0.01
1778774348.5384607,0.08,0.02,0.09,0.001,-0.028,9.79,-0.01,-0.01,-0.01
1778774348.5484595,0.08,0.02,0.08,0.001,-0.03,9.792,-0.01,-0.01,-0.01
1778774348.5584896,0.08,0.02,0.08,-0.002,-0.032,9.793,-0.01,-0.01,-0.01
1778774348.5684702,0.08,0.02,0.08,0.0,-0.03,9.792,-0.01,-0.01,-0.01
1778774348.578463,0.08,0.02,0.08,0.001,-0.024,9.788,-0.01,0.0,-0.01
1778774348.588475,0.08,0.02,0.08,-0.001,-0.023,9.794,-0.01,-0.01,-0.01
1778774348.598474,0.08,0.02,0.07,-0.005,-0.023,9.794,-0.01,-0.01,-0.01
1778774348.6084893,0.08,0.02,0.07,-0.002,-0.023,9.79,-0.01,-0.01,0.0
1778774348.6184733,0.08,0.02,0.07,0.0,-0.02,9.794,-0.01,-0.01,-0.01
1778774348.6284723,0.08,0.02,0.06,-0.002,-0.023,9.79,-0.01,0.0,-0.01
1778774348.6384878,0.08,0.02,0.06,-0.002,-0.023,9.788,-0.01,-0.01,-0.01
1778774348.648463,0.08,0.02,0.06,-0.001,-0.018,9.788,-0.01,-0.01,-0.01
1778774348.6584377,0.08,0.02,0.06,0.004,-0.017,9.781,-0.01,-0.01,-0.01
1778774348.668471,0.08,0.02,0.06,0.007,-0.02,9.78,-0.01,0.0,-0.01
1778774348.678488,0.09,0.02,0.06,0.008,-0.019,9.778,-0.01,-0.01,-0.01
1778774348.688441,0.09,0.02,0.05,0.004,-0.018,9.784,-0.01,-0.01,-0.01
1778774348.6984668,0.09,0.02,0.05,0.002,-0.018,9.781,-0.01,-0.01,-0.01
1778774348.7084258,0.09,0.02,0.05,0.006,-0.018,9.787,-0.01,-0.01,-0.01
1778774348.7186131,0.09,0.02,0.04,0.005,-0.018,9.786,-0.01,-0.01,-0.01
1778774348.7285209,0.09,0.02,0.04,0.007,-0.016,9.78,-0.01,-0.01,-0.01
1778774348.7384498,0.09,0.02,0.04,0.006,-0.014,9.786,-0.01,-0.01,-0.01
1778774348.7484477,0.1,0.02,0.04,0.004,-0.016,9.792,-0.01,-0.01,-0.01
1778774348.758427,0.1,0.02,0.04,0.002,-0.016,9.794,-0.01,-0.01,-0.01
1778774348.7688446,0.1,0.02,0.03,0.0,-0.012,9.793,-0.01,-0.01,-0.01
1778774348.7787733,0.1,0.02,0.03,0.006,-0.016,9.781,-0.01,-0.01,-0.01
1778774348.787666,0.1,0.02,0.03,0.006,-0.007,9.784,-0.01,-0.01,-0.01
1778774348.798443,0.1,0.02,0.03,0.005,-0.012,9.791,-0.01,-0.01,-0.01
1778774348.8084211,0.1,0.02,0.03,0.007,-0.01,9.787,-0.01,-0.01,-0.01
1778774348.8184035,0.1,0.03,0.03,0.002,-0.011,9.79,-0.01,-0.01,-0.01
1778774348.8285742,0.1,0.02,0.03,0.0,-0.01,9.79,-0.01,-0.01,-0.01
1778774348.8383923,0.1,0.03,0.03,0.0,-0.012,9.794,-0.01,-0.01,-0.01
1778774348.8475432,0.1,0.03,0.02,0.001,-0.014,9.796,-0.01,-0.01,-0.01
1778774348.8575332,0.1,0.03,0.02,0.005,-0.008,9.797,-0.01,-0.01,-0.01
1778774348.8684058,0.1,0.03,0.02,0.002,-0.007,9.799,-0.01,0.0,-0.01
1778774348.8775883,0.11,0.03,0.02,0.005,-0.008,9.798,-0.01,-0.01,-0.01
1778774348.8875427,0.11,0.03,0.02,-0.002,-0.007,9.797,-0.01,-0.01,-0.01
1778774348.8975656,0.11,0.03,0.02,-0.001,-0.01,9.796,-0.01,-0.01,-0.01
1778774348.9075456,0.11,0.03,0.01,0.0,-0.012,9.79,-0.01,-0.01,-0.01
1778774348.9175463,0.11,0.03,0.01,0.002,-0.011,9.792,-0.01,-0.01,-0.01
1778774348.928405,0.11,0.03,0.01,0.001,-0.016,9.794,-0.01,-0.01,-0.01
1778774348.9375577,0.12,0.03,0.01,0.004,-0.014,9.794,-0.01,-0.01,-0.01
1778774348.9475815,0.12,0.03,0.01,0.005,-0.012,9.784,-0.01,-0.01,-0.01
1778774348.9575646,0.12,0.03,0.01,0.002,-0.005,9.786,-0.01,-0.01,-0.01
1778774348.9675527,0.12,0.03,0.01,-0.002,-0.007,9.792,-0.01,-0.01,-0.01
1778774348.9775617,0.12,0.03,0.01,-0.005,-0.011,9.796,-0.01,-0.01,-0.01
1778774348.9875438,0.12,0.03,0.01,-0.002,-0.014,9.799,-0.01,-0.01,-0.01
1778774348.9975636,0.12,0.03,0.01,0.0,-0.014,9.8,-0.01,-0.01,-0.01
1778774349.0075285,0.13,0.03,0.0,-0.001,-0.014,9.794,-0.01,-0.01,-0.01
1778774349.0175178,0.13,0.03,0.0,0.001,-0.011,9.788,-0.01,-0.01,-0.01
1778774349.0275555,0.13,0.03,0.0,0.007,-0.01,9.786,-0.01,-0.01,-0.01
1778774349.0374818,0.13,0.03,0.0,0.008,-0.006,9.784,-0.01,-0.01,-0.01
1778774349.04752,0.13,0.03,0.0,0.004,-0.007,9.786,-0.01,-0.01,-0.01
1778774349.0575006,0.13,0.03,-0.01,0.0,-0.007,9.782,-0.01,-0.01,-0.01
1778774349.0674937,0.13,0.03,-0.01,0.0,-0.01,9.79,-0.01,-0.01,-0.01
1778774349.077496,0.13,0.03,-0.01,0.0,-0.014,9.788,-0.01,-0.01,-0.01
1778774349.0875294,0.13,0.03,-0.01,-0.002,-0.01,9.785,-0.01,-0.01,-0.01
1778774349.0975294,0.13,0.03,-0.01,0.0,-0.005,9.786,-0.01,-0.01,-0.01
1778774349.1074982,0.13,0.03,-0.01,0.004,-0.005,9.785,-0.01,0.0,-0.01
1778774349.1175716,0.13,0.03,-0.01,0.004,-0.007,9.788,-0.01,-0.01,-0.01
1778774349.1274915,0.14,0.03,-0.01,0.002,-0.005,9.792,-0.01,-0.01,-0.01
1778774349.1374805,0.14,0.03,-0.01,0.001,-0.002,9.791,-0.01,-0.01,-0.01
1778774349.1474745,0.14,0.03,-0.01,0.005,-0.004,9.786,-0.01,-0.01,-0.01
1778774349.157543,0.14,0.03,-0.01,0.005,-0.006,9.786,-0.01,-0.01,-0.01
1778774349.167487,0.14,0.03,-0.01,0.0,-0.006,9.787,-0.01,-0.01,-0.01
1778774349.1776268,0.14,0.03,-0.01,0.001,-0.01,9.785,-0.01,-0.01,-0.01
1778774349.1874778,0.14,0.03,-0.02,0.0,-0.01,9.785,-0.01,-0.01,-0.01
1778774349.1976416,0.15,0.03,-0.02,0.001,-0.01,9.784,-0.01,-0.01,-0.01
1778774349.2074554,0.15,0.03,-0.02,0.0,-0.008,9.786,-0.01,0.0,-0.01
1778774349.2175,0.15,0.03,-0.02,0.004,-0.004,9.786,-0.01,-0.01,-0.01
1778774349.2275307,0.15,0.03,-0.02,0.004,-0.001,9.784,-0.01,-0.01,-0.01
1778774349.2374785,0.15,0.03,-0.02,0.001,-0.01,9.787,-0.01,-0.01,-0.01
1778774349.2475376,0.15,0.03,-0.03,0.004,-0.005,9.788,-0.01,0.0,-0.01
1778774349.258012,0.15,0.03,-0.03,0.011,-0.005,9.785,-0.01,-0.01,-0.01
1778774349.2680678,0.15,0.03,-0.03,0.01,-0.002,9.788,-0.01,-0.01,-0.01
1778774349.2775083,0.15,0.03,-0.03,0.008,-0.005,9.791,-0.01,-0.01,-0.01
1778774349.287488,0.15,0.04,-0.03,0.007,-0.006,9.791,-0.01,-0.01,-0.01
1778774349.2974873,0.15,0.04,-0.03,0.008,-0.008,9.791,-0.01,-0.01,-0.01
1778774349.3074598,0.15,0.04,-0.03,0.006,-0.01,9.792,-0.01,-0.01,0.0
1778774349.3174717,0.15,0.04,-0.03,0.002,-0.011,9.796,-0.01,-0.01,-0.01
1778774349.3274677,0.15,0.04,-0.03,0.002,-0.004,9.798,-0.01,-0.01,-0.01
1778774349.337472,0.15,0.04,-0.03,0.006,0.0,9.793,-0.01,-0.01,-0.01
1778774349.3474703,0.15,0.04,-0.03,0.002,0.002,9.79,-0.01,-0.01,-0.01
1778774349.3574734,0.15,0.04,-0.03,0.001,0.002,9.792,-0.01,-0.01,-0.01
1778774349.3674762,0.16,0.04,-0.03,0.002,0.002,9.797,-0.01,-0.01,-0.01
1778774349.3774595,0.16,0.04,-0.03,0.001,0.0,9.796,-0.01,-0.01,-0.01
1778774349.387451,0.16,0.04,-0.03,0.001,-0.001,9.792,-0.01,-0.01,-0.01
1778774349.3979974,0.16,0.04,-0.03,0.0,-0.001,9.794,-0.01,-0.01,-0.01
1778774349.4080489,0.16,0.04,-0.03,0.004,0.0,9.796,-0.01,0.0,-0.01
1778774349.4180872,0.17,0.04,-0.03,0.002,0.005,9.793,-0.01,-0.01,-0.01
1778774349.427953,0.17,0.04,-0.03,-0.001,0.005,9.788,-0.01,-0.01,-0.01
1778774349.437464,0.17,0.04,-0.03,-0.006,0.004,9.784,-0.01,-0.01,-0.01
1778774349.4474945,0.17,0.04,-0.04,-0.001,0.002,9.778,-0.01,0.0,-0.01
1778774349.4575183,0.17,0.04,-0.04,0.002,0.0,9.782,-0.01,-0.01,-0.01
1778774349.467484,0.17,0.04,-0.04,-0.001,-0.002,9.782,-0.01,-0.01,-0.01
1778774349.477475,0.17,0.04,-0.04,-0.001,-0.008,9.784,-0.01,-0.01,-0.01
1778774349.48747,0.17,0.04,-0.04,-0.005,-0.008,9.787,-0.01,-0.01,-0.01
1778774349.497472,0.17,0.04,-0.04,-0.005,-0.006,9.787,-0.01,-0.01,-0.01
1778774349.5074677,0.17,0.04,-0.04,-0.001,-0.001,9.792,-0.01,-0.01,-0.01
1778774349.5177839,0.17,0.04,-0.04,-0.001,0.0,9.796,-0.01,-0.01,-0.01
1778774349.5274255,0.17,0.04,-0.04,-0.002,0.0,9.799,-0.01,-0.01,-0.01
1778774349.5374393,0.17,0.04,-0.04,-0.004,-0.002,9.792,-0.01,-0.01,-0.01
1778774349.5474029,0.18,0.04,-0.05,0.0,-0.002,9.79,-0.01,0.0,-0.01
1778774349.5574532,0.18,0.03,-0.05,0.004,-0.004,9.791,-0.01,-0.01,-0.01
1778774349.567432,0.18,0.04,-0.05,0.01,-0.005,9.786,-0.01,0.0,-0.01
1778774349.5774364,0.18,0.04,-0.05,0.01,-0.004,9.775,-0.01,-0.01,0.0
1778774349.5865872,0.18,0.04,-0.05,0.004,0.0,9.779,-0.01,-0.01,-0.01
1778774349.5965886,0.18,0.04,-0.05,-0.001,0.002,9.769,-0.01,-0.01,-0.01
1778774349.6065578,0.18,0.04,-0.05,-0.001,0.005,9.775,-0.01,-0.01,-0.01
1778774349.6165564,0.19,0.04,-0.05,0.004,0.005,9.785,-0.01,-0.01,-0.01
1778774349.6266048,0.19,0.04,-0.05,0.0,0.005,9.791,-0.01,-0.01,-0.01
1778774349.637422,0.19,0.04,-0.05,-0.004,0.002,9.784,-0.01,-0.01,-0.01
1778774349.6465898,0.19,0.04,-0.05,-0.004,0.0,9.785,-0.01,-0.01,-0.01
1778774349.6565638,0.19,0.04,-0.05,-0.005,0.001,9.79,-0.01,-0.01,-0.01
1778774349.6665561,0.2,0.04,-0.06,-0.002,-0.006,9.79,-0.01,-0.01,-0.01
1778774349.6765664,0.2,0.04,-0.06,-0.006,-0.007,9.785,-0.01,-0.01,-0.01
1778774349.6865597,0.2,0.04,-0.06,-0.008,-0.013,9.784,-0.01,-0.01,-0.01
1778774349.6965816,0.2,0.04,-0.06,-0.007,-0.01,9.787,-0.01,-0.01,-0.01
1778774349.7065835,0.2,0.04,-0.06,-0.002,-0.014,9.79,-0.01,-0.01,-0.01
1778774349.7165797,0.2,0.04,-0.06,-0.002,-0.011,9.792,-0.01,-0.01,-0.01
1778774349.7266004,0.2,0.04,-0.06,-0.001,-0.006,9.792,-0.01,0.0,-0.01
1778774349.7365599,0.2,0.04,-0.06,0.0,-0.005,9.79,-0.01,-0.01,-0.01
1778774349.7465684,0.2,0.04,-0.06,0.0,-0.001,9.787,-0.01,-0.01,-0.01
1778774349.7565312,0.2,0.04,-0.06,0.0,-0.001,9.787,-0.01,-0.01,-0.01
1778774349.7665672,0.2,0.04,-0.06,0.002,0.0,9.793,-0.01,-0.01,-0.01
1778774349.7765794,0.2,0.04,-0.06,0.002,0.0,9.794,-0.01,-0.01,-0.01
1778774349.786574,0.2,0.04,-0.06,0.001,-0.001,9.787,-0.01,-0.01,-0.01
1778774349.7965477,0.21,0.04,-0.06,0.004,0.002,9.792,-0.01,-0.01,-0.01
1778774349.806527,0.21,0.04,-0.06,0.005,0.0,9.792,-0.01,-0.01,-0.01
1778774349.816559,0.21,0.04,-0.06,0.004,-0.005,9.796,-0.01,-0.01,0.0
1778774349.8265784,0.21,0.04,-0.06,0.001,-0.005,9.793,-0.01,-0.01,-0.01
1778774349.8365545,0.21,0.04,-0.06,-0.004,-0.001,9.788,-0.01,-0.01,-0.01
1778774349.8465269,0.21,0.04,-0.06,-0.008,0.0,9.792,-0.01,-0.01,-0.01
1778774349.856505,0.21,0.04,-0.06,-0.011,0.0,9.793,-0.01,-0.01,-0.01
1778774349.8665028,0.22,0.04,-0.07,-0.011,-0.001,9.787,-0.01,-0.01,-0.01
1778774349.8765192,0.22,0.04,-0.07,-0.012,0.001,9.792,-0.01,-0.01,-0.01
1778774349.8864934,0.22,0.04,-0.07,-0.005,0.008,9.796,-0.01,0.0,-0.01
1778774349.8965106,0.22,0.04,-0.06,-0.005,0.008,9.793,-0.01,0.0,-0.01
1778774349.9064977,0.22,0.04,-0.06,0.0,0.007,9.786,-0.01,-0.01,-0.01
1778774349.916481,0.22,0.04,-0.06,0.0,0.005,9.788,-0.01,-0.01,-0.01
1778774349.92647,0.22,0.04,-0.06,0.002,0.0,9.792,-0.01,-0.01,-0.01
1778774349.9364965,0.22,0.04,-0.07,0.001,-0.001,9.791,-0.01,-0.01,-0.01
1778774349.9465122,0.22,0.04,-0.07,0.004,-0.004,9.79,-0.01,-0.01,-0.01
1778774349.9565096,0.22,0.04,-0.07,0.0,-0.002,9.794,-0.01,-0.01,-0.01
1778774349.9664786,0.22,0.04,-0.07,-0.001,-0.005,9.792,-0.01,0.0,-0.01
1778774349.9764802,0.22,0.04,-0.07,0.0,-0.004,9.794,-0.01,-0.01,-0.01
1778774349.9865294,0.23,0.04,-0.07,0.001,-0.002,9.79,-0.01,-0.01,-0.01
1778774349.9965122,0.23,0.04,-0.07,0.005,-0.005,9.793,-0.01,-0.01,-0.01
1778774350.0065138,0.23,0.04,-0.07,0.002,0.0,9.787,-0.01,-0.01,-0.01
1778774350.0164971,0.23,0.04,-0.07,0.008,-0.001,9.78,-0.01,-0.01,-0.01
1778774350.0264812,0.23,0.04,-0.07,0.007,-0.001,9.784,-0.01,-0.01,-0.01
1778774350.0364769,0.23,0.04,-0.07,0.001,0.0,9.784,-0.01,-0.01,-0.01
1778774350.04648,0.23,0.04,-0.07,0.0,-0.005,9.782,-0.01,-0.01,-0.01
1778774350.0564797,0.23,0.04,-0.08,0.0,-0.004,9.775,-0.01,-0.01,-0.01
1778774350.0665004,0.24,0.04,-0.08,0.0,-0.002,9.779,-0.01,-0.01,-0.01
1778774350.076482,0.24,0.04,-0.08,-0.001,0.0,9.787,-0.01,-0.01,-0.01
1778774350.0864823,0.24,0.04,-0.08,-0.002,0.001,9.793,-0.01,-0.01,-0.01
1778774350.09649,0.24,0.04,-0.08,-0.004,-0.006,9.794,-0.01,-0.01,-0.01
1778774350.1065435,0.24,0.04,-0.08,-0.004,-0.007,9.798,-0.01,-0.01,-0.01
1778774350.116488,0.24,0.04,-0.08,-0.004,-0.004,9.797,-0.01,-0.01,-0.01
1778774350.1264832,0.24,0.04,-0.08,-0.001,-0.001,9.796,-0.01,-0.01,-0.01
1778774350.1364815,0.24,0.04,-0.08,0.005,0.0,9.797,-0.01,-0.01,-0.01
1778774350.1466954,0.24,0.04,-0.08,0.006,-0.001,9.796,-0.01,0.0,-0.01
1778774350.1564367,0.24,0.04,-0.08,0.0,-0.001,9.798,-0.01,-0.01,-0.01
1778774350.1664922,0.24,0.04,-0.08,-0.001,0.0,9.79,-0.01,-0.01,-0.01
1778774350.1764846,0.24,0.04,-0.08,-0.002,0.005,9.793,-0.01,-0.01,-0.01
1778774350.1864915,0.24,0.04,-0.08,-0.004,0.006,9.792,-0.01,-0.01,-0.01
1778774350.1964524,0.24,0.04,-0.08,0.0,0.008,9.796,-0.01,-0.01,-0.01
1778774350.2064323,0.25,0.04,-0.08,0.002,0.011,9.798,-0.01,-0.01,-0.01
1778774350.216417,0.25,0.04,-0.08,-0.001,0.011,9.797,-0.01,0.0,-0.01
1778774350.2264526,0.25,0.04,-0.08,0.0,0.006,9.791,-0.01,-0.01,-0.01
1778774350.236435,0.25,0.04,-0.08,0.0,0.002,9.793,-0.01,-0.01,-0.01
1778774350.2464333,0.25,0.04,-0.08,0.001,0.004,9.798,-0.01,-0.01,-0.01
1778774350.25642,0.25,0.04,-0.08,-0.001,0.005,9.796,-0.01,-0.01,-0.01
1778774350.266416,0.26,0.04,-0.08,-0.005,0.004,9.797,-0.01,-0.01,-0.01
1778774350.276413,0.26,0.04,-0.08,-0.007,0.004,9.794,-0.01,-0.01,-0.01
1778774350.2855961,0.26,0.04,-0.08,-0.008,0.002,9.797,-0.01,-0.01,-0.01
1778774350.2964182,0.26,0.04,-0.08,-0.007,0.0,9.793,-0.01,0.0,-0.01
1778774350.3064206,0.26,0.04,-0.08,-0.004,0.002,9.79,-0.01,-0.01,-0.01
1778774350.3156111,0.26,0.04,-0.08,-0.002,0.006,9.794,-0.01,-0.01,-0.01
1778774350.3255816,0.26,0.04,-0.08,-0.002,0.008,9.79,-0.01,-0.01,-0.01
1778774350.3367848,0.27,0.04,-0.08,0.0,0.005,9.794,-0.01,-0.01,-0.01
1778774350.3464253,0.27,0.04,-0.08,0.0,0.006,9.796,-0.01,-0.01,-0.01
1778774350.3556075,0.27,0.04,-0.08,0.0,0.005,9.791,-0.01,-0.01,-0.01
1778774350.3655758,0.27,0.04,-0.08,0.001,0.0,9.796,-0.01,-0.01,-0.01
1778774350.3755865,0.27,0.04,-0.08,0.0,0.0,9.797,-0.01,-0.01,-0.01
1778774350.3855824,0.27,0.04,-0.08,0.001,0.002,9.794,-0.01,-0.01,-0.01
1778774350.39561,0.27,0.04,-0.08,-0.001,0.005,9.784,-0.01,0.0,-0.01
1778774350.4055686,0.27,0.04,-0.08,0.0,0.006,9.791,-0.01,0.0,-0.01
1778774350.415598,0.27,0.04,-0.08,-0.004,0.002,9.784,-0.01,-0.01,-0.01
1778774350.4256816,0.27,0.04,-0.08,0.0,0.004,9.779,-0.01,0.0,-0.01
1778774350.435586,0.27,0.04,-0.08,-0.006,0.0,9.781,-0.01,-0.01,-0.01
1778774350.446041,0.27,0.04,-0.08,-0.008,0.002,9.787,-0.01,-0.01,-0.01
1778774350.4555953,0.27,0.04,-0.08,-0.007,0.001,9.793,-0.01,-0.01,-0.01
1778774350.4655643,0.27,0.03,-0.08,-0.004,0.0,9.786,-0.01,0.0,-0.01
1778774350.4755867,0.28,0.03,-0.08,-0.007,-0.004,9.79,-0.01,0.0,-0.01
1778774350.4855893,0.28,0.03,-0.08,-0.004,-0.002,9.794,-0.01,-0.01,-0.01
1778774350.4955752,0.28,0.03,-0.08,-0.001,-0.002,9.798,-0.01,-0.01,-0.01
1778774350.5055554,0.28,0.03,-0.08,0.002,0.0,9.798,-0.01,-0.01,-0.01
1778774350.5155318,0.28,0.03,-0.08,0.002,0.005,9.793,-0.01,-0.01,-0.01
1778774350.5255451,0.28,0.04,-0.08,0.0,0.0,9.792,-0.01,-0.01,-0.01
1778774350.5355604,0.29,0.04,-0.08,0.004,0.004,9.787,-0.01,-0.01,-0.01
1778774350.545518,0.29,0.04,-0.08,0.002,0.0,9.788,-0.01,-0.01,-0.01
1778774350.5555038,0.29,0.04,-0.08,0.002,0.002,9.79,-0.01,-0.01,-0.01
1778774350.5655062,0.29,0.04,-0.08,-0.002,0.0,9.792,-0.01,-0.01,-0.01
1778774350.5755305,0.29,0.03,-0.08,0.0,0.004,9.791,-0.01,-0.01,-0.01
1778774350.5855193,0.29,0.03,-0.08,0.0,0.004,9.792,-0.01,-0.01,-0.01
1778774350.5955021,0.29,0.04,-0.08,-0.001,0.007,9.793,-0.01,-0.01,-0.01
1778774350.6055021,0.29,0.04,-0.08,0.004,0.006,9.793,-0.01,-0.01,-0.01
1778774350.6155,0.29,0.04,-0.08,0.001,0.006,9.791,-0.01,-0.01,-0.01
1778774350.6255374,0.29,0.04,-0.08,0.002,0.006,9.793,-0.01,-0.01,-0.01
1778774350.6355019,0.29,0.04,-0.08,0.0,0.005,9.787,-0.01,0.0,-0.01
1778774350.6455054,0.29,0.04,-0.08,-0.007,0.006,9.791,-0.01,-0.01,-0.01
1778774350.6554997,0.3,0.03,-0.08,-0.007,0.007,9.79,-0.01,-0.01,-0.01
1778774350.665542,0.3,0.04,-0.08,-0.004,0.002,9.788,-0.01,-0.01,-0.01
1778774350.6754842,0.3,0.04,-0.08,0.0,0.0,9.788,-0.01,-0.01,-0.01
1778774350.6854994,0.3,0.04,-0.08,0.0,0.002,9.788,-0.01,-0.01,-0.01
1778774350.695515,0.3,0.04,-0.08,0.001,0.0,9.793,-0.01,-0.01,-0.01
1778774350.70553,0.3,0.04,-0.08,0.001,-0.001,9.794,-0.01,-0.01,-0.01
1778774350.7154875,0.31,0.04,-0.08,-0.001,-0.007,9.796,-0.01,0.0,-0.01
1778774350.725489,0.31,0.04,-0.08,-0.005,-0.006,9.796,-0.01,-0.01,-0.01
1778774350.735483,0.31,0.03,-0.08,-0.002,-0.002,9.788,-0.01,-0.01,-0.01
1778774350.7454867,0.31,0.03,-0.08,0.0,-0.004,9.787,-0.01,0.0,-0.01
1778774350.7555125,0.31,0.04,-0.09,0.0,-0.002,9.78,-0.01,-0.01,-0.01
1778774350.7654877,0.31,0.04,-0.09,0.0,-0.002,9.785,-0.01,-0.01,-0.01
1778774350.7754924,0.31,0.04,-0.09,0.0,0.001,9.781,-0.01,-0.01,-0.01
1778774350.7854922,0.31,0.03,-0.09,-0.005,0.002,9.784,-0.01,-0.01,-0.01
1778774350.7957194,0.31,0.03,-0.09,0.0,0.002,9.78,-0.01,0.0,-0.01
1778774350.8054802,0.31,0.03,-0.09,0.0,0.007,9.782,-0.01,0.0,-0.01
1778774350.8154874,0.31,0.03,-0.09,0.001,0.005,9.784,-0.01,0.0,-0.01
1778774350.8255038,0.31,0.03,-0.09,-0.001,0.001,9.788,-0.01,0.0,-0.01
1778774350.8354845,0.31,0.03,-0.09,-0.005,0.001,9.784,-0.01,-0.01,-0.01
1778774350.8454592,0.31,0.03,-0.09,-0.001,0.004,9.79,-0.01,0.0,-0.01
1778774350.8554885,0.32,0.03,-0.09,0.0,0.002,9.791,-0.01,-0.01,-0.01
1778774350.8654861,0.32,0.03,-0.09,-0.007,0.006,9.785,-0.01,0.0,-0.01
1778774350.875485,0.32,0.03,-0.09,-0.008,0.007,9.786,-0.01,-0.01,-0.01
1778774350.8854587,0.32,0.03,-0.09,-0.008,0.01,9.792,-0.01,-0.01,0.0
1778774350.895452,0.32,0.03,-0.09,-0.006,0.008,9.788,-0.01,-0.01,-0.01
1778774350.905439,0.32,0.03,-0.09,-0.001,0.0,9.788,-0.01,-0.01,-0.01
1778774350.9154267,0.32,0.03,-0.09,0.002,0.002,9.79,-0.01,-0.01,-0.01
1778774350.9254985,0.33,0.03,-0.09,0.001,0.0,9.788,-0.01,-0.01,-0.01
1778774350.93546,0.33,0.03,-0.09,-0.001,0.0,9.794,-0.01,-0.01,-0.01
1778774350.9454405,0.33,0.03,-0.09,0.001,-0.004,9.794,-0.01,0.0,-0.01
1778774350.9546523,0.33,0.03,-0.09,0.0,0.001,9.794,-0.01,-0.01,-0.01
1778774350.9661255,0.33,0.03,-0.09,-0.001,0.004,9.797,-0.01,-0.01,-0.01
1778774350.9754374,0.33,0.03,-0.09,0.0,0.0,9.794,-0.01,-0.01,-0.01
1778774350.9854286,0.34,0.03,-0.09,0.002,0.0,9.786,-0.01,-0.01,-0.01
1778774350.9954681,0.34,0.03,-0.09,0.004,0.002,9.791,-0.01,0.0,-0.01
1778774351.0054393,0.34,0.03,-0.09,0.0,0.0,9.793,-0.01,-0.01,-0.01
1778774351.015436,0.34,0.03,-0.09,0.004,-0.002,9.79,-0.01,-0.01,-0.01
1778774351.0254235,0.34,0.03,-0.09,-0.004,-0.002,9.785,-0.01,-0.01,-0.01
1778774351.035402,0.34,0.03,-0.09,-0.004,0.0,9.79,-0.01,-0.01,-0.01
1778774351.044612,0.34,0.03,-0.09,-0.004,-0.002,9.794,-0.01,-0.01,-0.01
1778774351.054574,0.34,0.03,-0.09,0.001,0.001,9.796,-0.01,-0.01,-0.01
1778774351.0647867,0.34,0.03,-0.09,0.001,0.006,9.79,-0.01,-0.01,-0.01
1778774351.0754328,0.34,0.03,-0.09,0.005,0.006,9.791,-0.01,-0.01,-0.01
1778774351.0854177,0.34,0.03,-0.09,0.01,0.005,9.785,-0.01,-0.01,-0.01
1778774351.0954032,0.34,0.03,-0.09,0.008,0.008,9.791,-0.01,-0.01,-0.01
1778774351.1045823,0.34,0.03,-0.09,0.007,0.01,9.792,-0.01,-0.01,-0.01
1778774351.114581,0.34,0.03,-0.09,0.01,0.008,9.794,-0.01,-0.01,-0.01
1778774351.1245835,0.34,0.04,-0.09,0.007,0.011,9.784,-0.01,-0.01,-0.01
1778774351.1345868,0.35,0.03,-0.09,0.0,0.007,9.776,-0.01,-0.01,-0.01
1778774351.1445568,0.35,0.03,-0.09,0.002,0.004,9.785,-0.01,0.0,-0.01
1778774351.1545582,0.35,0.03,-0.09,0.01,0.0,9.781,-0.01,-0.01,-0.01
1778774351.1645603,0.35,0.04,-0.09,0.013,0.002,9.782,-0.01,0.0,-0.01
1778774351.1745567,0.35,0.04,-0.09,0.01,0.002,9.784,-0.01,-0.01,-0.01
1778774351.184561,0.35,0.04,-0.09,0.004,0.002,9.788,-0.01,-0.01,-0.01
1778774351.1945462,0.36,0.04,-0.09,0.002,0.002,9.792,-0.01,-0.01,-0.01
1778774351.2045743,0.36,0.04,-0.09,0.008,-0.001,9.787,-0.01,-0.01,-0.01
1778774351.2145684,0.36,0.04,-0.09,0.006,0.002,9.791,-0.01,-0.01,-0.01
1778774351.2245595,0.36,0.04,-0.09,0.001,0.001,9.79,-0.01,-0.01,-0.01
1778774351.2345471,0.36,0.04,-0.09,0.001,0.0,9.784,-0.01,-0.01,-0.01
1778774351.244532,0.36,0.04,-0.1,0.004,0.004,9.785,-0.01,-0.01,-0.01
1778774351.254583,0.36,0.04,-0.09,0.002,0.002,9.778,-0.01,-0.01,-0.01
1778774351.2645595,0.36,0.04,-0.09,0.001,0.001,9.786,-0.01,-0.01,-0.01
1778774351.274546,0.36,0.04,-0.09,0.0,0.004,9.792,-0.01,-0.01,-0.01
1778774351.2845323,0.36,0.04,-0.09,0.001,0.008,9.797,-0.01,-0.01,-0.01
1778774351.2945065,0.36,0.04,-0.09,0.002,0.006,9.798,-0.01,-0.01,-0.01
1778774351.3045619,0.36,0.04,-0.09,0.001,0.005,9.793,-0.01,-0.01,-0.01
1778774351.3145194,0.36,0.04,-0.09,0.004,0.006,9.797,-0.01,0.0,-0.01
1778774351.324504,0.37,0.04,-0.09,0.001,0.006,9.796,-0.01,-0.01,-0.01
1778774351.334504,0.37,0.04,-0.09,-0.002,0.01,9.794,-0.01,-0.01,-0.01
1778774351.3445172,0.37,0.04,-0.09,-0.006,0.008,9.797,-0.01,-0.01,-0.01
1778774351.3545349,0.37,0.04,-0.09,-0.002,0.01,9.791,-0.01,-0.01,-0.01
1778774351.3645205,0.37,0.04,-0.09,-0.001,0.011,9.796,-0.01,-0.01,-0.01
1778774351.374522,0.37,0.04,-0.09,-0.004,0.01,9.792,-0.01,-0.01,-0.01
1778774351.3845036,0.37,0.04,-0.09,-0.005,0.012,9.785,-0.01,-0.01,-0.01
1778774351.3945243,0.37,0.04,-0.09,-0.006,0.011,9.78,-0.01,-0.01,-0.01
1778774351.4045048,0.37,0.04,-0.09,-0.006,0.006,9.782,-0.01,-0.01,-0.01
1778774351.4145064,0.38,0.04,-0.09,-0.007,0.001,9.776,-0.01,-0.01,-0.01
1778774351.424473,0.38,0.04,-0.09,-0.002,0.002,9.775,-0.01,-0.01,0.0
1778774351.4344747,0.38,0.04,-0.09,-0.006,0.005,9.775,-0.01,-0.01,-0.01
1778774351.4444728,0.38,0.04,-0.09,-0.005,0.005,9.78,-0.01,-0.01,-0.01
1778774351.4545052,0.38,0.04,-0.09,0.0,0.001,9.776,-0.01,-0.01,-0.01
1778774351.464474,0.38,0.04,-0.09,0.0,-0.001,9.779,-0.01,-0.01,-0.01
1778774351.4744847,0.38,0.04,-0.09,0.004,0.0,9.781,-0.01,-0.01,-0.01
1778774351.4844751,0.38,0.04,-0.09,0.005,0.004,9.788,-0.01,-0.01,-0.01
1778774351.4944859,0.38,0.04,-0.09,0.004,0.004,9.793,-0.01,-0.01,-0.01
1778774351.504502,0.38,0.04,-0.09,0.004,0.002,9.792,-0.01,-0.01,-0.01
1778774351.5144837,0.38,0.04,-0.09,0.011,0.005,9.788,-0.01,-0.01,-0.01
1778774351.5244844,0.38,0.04,-0.09,0.007,0.007,9.788,-0.01,0.0,-0.01
1778774351.5344543,0.38,0.04,-0.09,0.007,0.008,9.794,-0.01,0.0,-0.01
1778774351.5444863,0.39,0.04,-0.09,0.005,0.01,9.786,-0.01,-0.01,-0.01
1778774351.5547173,0.39,0.04,-0.09,0.0,0.011,9.79,-0.01,-0.01,-0.01
1778774351.5644844,0.39,0.04,-0.09,-0.007,0.01,9.791,-0.01,-0.01,-0.01
1778774351.5744708,0.39,0.04,-0.09,-0.006,0.012,9.796,-0.01,0.0,-0.01
1778774351.5844522,0.39,0.04,-0.09,-0.006,0.012,9.793,-0.01,-0.01,-0.01
1778774351.594454,0.39,0.04,-0.09,-0.007,0.01,9.796,-0.01,-0.01,-0.01
1778774351.604454,0.39,0.04,-0.09,-0.008,0.013,9.792,-0.01,-0.01,-0.01
1778774351.614485,0.4,0.04,-0.09,-0.007,0.01,9.79,-0.01,-0.01,-0.01
1778774351.624487,0.4,0.03,-0.09,-0.005,0.006,9.791,-0.01,-0.01,-0.01
1778774351.6351688,0.4,0.03,-0.09,-0.001,0.002,9.794,-0.01,0.0,-0.01
1778774351.6444662,0.4,0.03,-0.09,-0.001,0.005,9.79,-0.01,-0.01,-0.01
1778774351.6544983,0.4,0.03,-0.09,-0.004,0.006,9.796,-0.01,0.0,-0.01
1778774351.6644638,0.4,0.03,-0.09,-0.004,0.008,9.797,-0.01,0.0,-0.01
1778774351.6744444,0.4,0.03,-0.09,0.0,0.012,9.799,-0.01,-0.01,-0.01
1778774351.6844296,0.41,0.03,-0.09,-0.001,0.014,9.797,-0.01,-0.01,-0.01
1778774351.6944923,0.41,0.03,-0.09,0.0,0.011,9.786,-0.01,-0.01,-0.01
1778774351.704442,0.41,0.03,-0.09,0.0,0.008,9.784,-0.01,0.0,-0.01
1778774351.7145162,0.41,0.03,-0.09,0.004,0.005,9.785,-0.01,-0.01,-0.01
1778774351.7246602,0.41,0.03,-0.09,0.005,0.008,9.791,-0.01,-0.01,-0.01
1778774351.7344413,0.41,0.03,-0.09,0.002,0.005,9.791,-0.01,-0.01,-0.01
1778774351.744415,0.41,0.03,-0.09,0.005,0.004,9.796,-0.01,-0.01,-0.01
1778774351.753594,0.41,0.03,-0.09,0.005,0.007,9.797,-0.01,-0.01,-0.01
1778774351.7635796,0.41,0.03,-0.09,0.005,0.002,9.799,-0.01,-0.01,-0.01
1778774351.7744455,0.41,0.03,-0.09,-0.004,0.006,9.802,-0.01,-0.01,-0.01
1778774351.7844427,0.41,0.03,-0.09,-0.006,0.005,9.803,-0.01,-0.01,-0.01
1778774351.7944417,0.41,0.03,-0.09,-0.007,0.004,9.805,-0.01,-0.01,-0.01
1778774351.804427,0.41,0.03,-0.09,-0.013,0.001,9.804,-0.01,-0.01,-0.01
1778774351.814425,0.42,0.03,-0.09,-0.016,0.0,9.803,-0.01,-0.01,-0.01
1778774351.8244054,0.42,0.03,-0.09,-0.013,0.0,9.791,-0.01,-0.01,-0.01
1778774351.8336108,0.42,0.03,-0.09,-0.012,0.001,9.786,-0.01,-0.01,-0.01
1778774351.8435855,0.42,0.02,-0.09,-0.011,0.007,9.79,-0.01,-0.01,-0.01
1778774351.8535874,0.42,0.02,-0.09,-0.012,0.002,9.794,-0.01,-0.01,-0.01
1778774351.863588,0.42,0.02,-0.09,-0.011,-0.001,9.794,-0.01,-0.01,-0.01
1778774351.8744087,0.43,0.02,-0.09,-0.008,0.0,9.793,-0.01,-0.01,-0.01
1778774351.883521,0.43,0.02,-0.09,-0.004,-0.002,9.793,-0.01,-0.01,-0.01
1778774351.893601,0.43,0.02,-0.09,-0.002,0.0,9.791,-0.01,-0.01,-0.01
1778774351.903592,0.43,0.02,-0.09,-0.001,0.004,9.791,-0.01,-0.01,-0.01
1778774351.9135911,0.43,0.02,-0.09,0.001,0.002,9.792,-0.01,0.0,-0.01
1778774351.9235704,0.43,0.02,-0.09,0.0,0.007,9.791,-0.01,-0.01,-0.01
1778774351.9335518,0.43,0.02,-0.09,0.002,0.006,9.792,-0.01,-0.01,-0.01
1778774351.9435577,0.43,0.02,-0.09,-0.002,0.007,9.788,-0.01,-0.01,-0.01
1778774351.9535782,0.43,0.02,-0.09,-0.001,0.006,9.791,-0.01,-0.01,-0.01
1778774351.963566,0.43,0.02,-0.09,0.0,0.001,9.788,-0.01,0.0,-0.01
1778774351.9735322,0.43,0.02,-0.09,0.0,0.001,9.786,-0.01,-0.01,-0.01
1778774351.9835699,0.43,0.02,-0.09,0.0,-0.001,9.786,-0.01,0.0,-0.01
1778774351.993549,0.44,0.02,-0.09,0.0,0.002,9.78,-0.01,-0.01,-0.01
1778774352.0035105,0.44,0.02,-0.09,0.0,0.0,9.779,-0.01,-0.01,-0.01
1778774352.013539,0.44,0.02,-0.09,0.005,0.002,9.776,-0.01,-0.01,-0.01
1778774352.0235195,0.44,0.03,-0.09,0.007,0.004,9.775,-0.01,-0.01,-0.01
1778774352.0335147,0.44,0.03,-0.09,0.008,0.001,9.782,-0.01,-0.01,-0.01
1778774352.0435083,0.44,0.03,-0.09,0.004,0.0,9.781,-0.01,-0.01,-0.01
1778774352.0534978,0.44,0.03,-0.09,0.004,0.002,9.785,-0.01,-0.01,-0.01
1778774352.0635343,0.45,0.03,-0.09,0.002,0.006,9.781,-0.01,-0.01,0.0
1778774352.0735264,0.45,0.03,-0.09,0.0,0.007,9.769,-0.01,-0.01,-0.01
1778774352.0835075,0.45,0.03,-0.09,0.0,0.004,9.768,-0.01,-0.01,-0.01
1778774352.0934968,0.45,0.03,-0.09,-0.001,0.008,9.77,-0.01,0.0,-0.01
1778774352.1034799,0.45,0.03,-0.09,0.0,0.008,9.778,-0.01,-0.01,-0.01
1778774352.1135242,0.45,0.03,-0.09,0.001,0.008,9.786,-0.01,-0.01,-0.01
1778774352.123506,0.45,0.03,-0.09,0.002,0.006,9.79,-0.01,-0.01,0.0
1778774352.133498,0.45,0.03,-0.09,0.006,0.005,9.794,-0.01,-0.01,-0.01
1778774352.1434972,0.45,0.03,-0.09,0.002,0.005,9.793,-0.01,-0.01,-0.01
1778774352.1534746,0.45,0.03,-0.09,0.0,0.007,9.794,-0.01,-0.01,-0.01
1778774352.1634665,0.45,0.03,-0.09,0.0,0.007,9.786,-0.01,-0.01,-0.01
1778774352.1734958,0.45,0.03,-0.09,0.006,0.007,9.788,-0.01,-0.01,-0.01
1778774352.183483,0.45,0.03,-0.09,0.005,0.008,9.791,-0.01,-0.01,-0.01
1778774352.1934946,0.45,0.03,-0.09,0.002,0.007,9.788,-0.01,-0.01,-0.01
1778774352.203467,0.45,0.03,-0.09,0.004,0.01,9.791,-0.01,-0.01,-0.01
1778774352.2135217,0.45,0.03,-0.09,0.006,0.008,9.791,-0.01,-0.01,-0.01
1778774352.223511,0.46,0.03,-0.09,0.007,0.005,9.794,-0.01,-0.01,-0.01
1778774352.2336702,0.46,0.03,-0.09,0.008,0.002,9.794,-0.01,-0.01,-0.01
1778774352.2434921,0.46,0.03,-0.09,0.011,0.006,9.796,-0.01,-0.01,-0.01
1778774352.2535012,0.46,0.03,-0.09,0.007,0.011,9.791,-0.01,-0.01,-0.01
1778774352.2635098,0.46,0.03,-0.09,0.005,0.005,9.786,-0.01,-0.01,-0.01
1778774352.273505,0.46,0.03,-0.09,-0.001,0.007,9.786,-0.01,-0.01,-0.01
1778774352.2834837,0.47,0.03,-0.09,0.004,0.002,9.788,-0.01,-0.01,-0.01
1778774352.2934997,0.47,0.03,-0.09,-0.001,0.0,9.788,-0.01,-0.01,-0.01
1778774352.303489,0.47,0.03,-0.09,0.001,-0.002,9.785,-0.01,-0.01,-0.01
1778774352.3134835,0.47,0.03,-0.09,-0.001,0.0,9.788,-0.01,-0.01,-0.01
1778774352.3234508,0.47,0.03,-0.09,0.0,0.0,9.79,-0.01,-0.01,-0.01
1778774352.3334613,0.47,0.03,-0.09,0.007,0.004,9.786,-0.01,-0.01,-0.01
1778774352.3434596,0.48,0.04,-0.09,0.005,0.006,9.792,-0.01,-0.01,-0.01
1778774352.353452,0.48,0.04,-0.09,0.006,0.001,9.797,-0.01,-0.01,-0.01
1778774352.363492,0.48,0.04,-0.09,0.008,0.001,9.799,-0.01,-0.01,-0.01
1778774352.373503,0.48,0.04,-0.09,0.001,0.005,9.802,-0.01,-0.01,-0.01
1778774352.3834486,0.48,0.03,-0.09,0.0,0.006,9.8,-0.01,0.0,-0.01
1778774352.393469,0.48,0.03,-0.09,-0.002,0.007,9.8,-0.01,-0.01,-0.01
1778774352.4034464,0.48,0.03,-0.09,0.0,0.008,9.798,-0.01,-0.01,-0.01
1778774352.413451,0.48,0.03,-0.09,0.0,0.011,9.796,-0.01,-0.01,-0.01
1778774352.4234266,0.48,0.03,-0.09,-0.002,0.011,9.796,-0.01,-0.01,-0.01
1778774352.4334507,0.48,0.03,-0.09,-0.001,0.008,9.791,-0.01,-0.01,-0.01
1778774352.4434662,0.48,0.03,-0.09,-0.001,0.008,9.785,-0.01,-0.01,-0.01
1778774352.4534676,0.48,0.03,-0.09,-0.002,0.011,9.791,-0.01,-0.01,-0.01
1778774352.4634542,0.48,0.03,-0.09,-0.007,0.006,9.794,-0.01,0.0,0.0
1778774352.4734437,0.48,0.03,-0.09,-0.006,0.006,9.797,-0.01,-0.01,-0.01
1778774352.483432,0.48,0.03,-0.09,-0.004,0.011,9.798,-0.01,-0.01,-0.01
1778774352.4934149,0.48,0.03,-0.09,-0.006,0.019,9.797,-0.01,-0.01,-0.01
1778774352.503417,0.49,0.03,-0.09,-0.002,0.019,9.794,-0.01,-0.01,-0.01
1778774352.512623,0.49,0.03,-0.08,-0.001,0.017,9.796,-0.01,-0.01,-0.01
1778774352.5226007,0.49,0.03,-0.09,0.0,0.011,9.799,-0.01,-0.01,-0.01
1778774352.53366,0.49,0.03,-0.09,-0.002,0.006,9.797,-0.01,0.0,-0.01
1778774352.5435524,0.49,0.03,-0.09,-0.001,0.006,9.788,-0.01,-0.01,-0.01
1778774352.5535045,0.49,0.03,-0.09,0.0,0.004,9.791,-0.01,-0.01,-0.01
1778774352.5626945,0.5,0.03,-0.09,0.006,0.002,9.792,-0.01,-0.01,-0.01
1778774352.5725038,0.5,0.03,-0.09,0.001,0.002,9.791,-0.01,-0.01,-0.01
1778774352.5825205,0.5,0.03,-0.09,0.0,0.005,9.786,-0.01,-0.01,-0.01
1778774352.5925107,0.5,0.03,-0.09,0.0,0.007,9.788,-0.01,-0.01,-0.01
1778774352.602512,0.5,0.03,-0.09,0.001,0.008,9.794,-0.01,-0.01,-0.01
1778774352.6125317,0.5,0.03,-0.09,0.002,0.008,9.793,-0.01,-0.01,-0.01
1778774352.6225116,0.5,0.03,-0.09,0.0,0.002,9.792,-0.01,-0.01,-0.01
1778774352.6325145,0.5,0.03,-0.09,-0.002,0.006,9.79,-0.01,-0.01,-0.01
1778774352.642514,0.5,0.03,-0.09,-0.007,0.004,9.785,-0.01,-0.01,-0.01
1778774352.6527207,0.5,0.03,-0.09,-0.007,0.004,9.784,-0.01,-0.01,-0.01
1778774352.662522,0.5,0.03,-0.09,-0.007,0.002,9.784,-0.01,-0.01,-0.01
1778774352.6725204,0.5,0.03,-0.09,-0.01,0.001,9.79,-0.01,-0.01,-0.01
1778774352.6825213,0.5,0.03,-0.09,-0.006,0.002,9.785,-0.01,-0.01,-0.01
1778774352.6924953,0.5,0.03,-0.09,-0.006,0.005,9.791,-0.01,-0.01,-0.01
1778774352.7024713,0.5,0.03,-0.09,0.0,0.01,9.796,-0.01,-0.01,-0.01
1778774352.7125206,0.51,0.04,-0.09,0.001,0.011,9.793,-0.01,-0.01,-0.01
1778774352.7225063,0.51,0.04,-0.09,0.001,0.01,9.797,-0.01,-0.01,-0.01
1778774352.7325096,0.51,0.04,-0.09,0.002,0.007,9.792,-0.01,-0.01,-0.01
1778774352.7424946,0.51,0.04,-0.09,0.001,0.005,9.788,-0.01,-0.01,-0.01
1778774352.7524846,0.51,0.04,-0.09,0.006,0.008,9.792,-0.01,-0.01,-0.01
1778774352.7624714,0.51,0.04,-0.09,0.011,0.011,9.796,-0.01,-0.01,-0.01
1778774352.7724695,0.52,0.04,-0.09,0.006,0.007,9.799,-0.01,-0.01,-0.01
1778774352.7825146,0.52,0.04,-0.09,0.002,0.005,9.799,-0.01,-0.01,-0.01
1778774352.7925029,0.52,0.04,-0.09,0.0,0.002,9.802,-0.01,-0.01,-0.01
1778774352.8025029,0.52,0.04,-0.09,-0.001,0.005,9.802,-0.01,-0.01,-0.01
1778774352.8125024,0.52,0.04,-0.09,-0.004,0.001,9.803,-0.01,-0.01,-0.01
1778774352.8224754,0.52,0.04,-0.09,-0.004,0.0,9.796,-0.01,-0.01,-0.01
1778774352.8324623,0.52,0.04,-0.09,-0.004,0.0,9.799,-0.01,-0.01,-0.01
1778774352.842486,0.52,0.04,-0.09,-0.004,0.0,9.797,-0.01,0.0,-0.01
1778774352.8524709,0.52,0.04,-0.09,0.0,0.007,9.797,-0.01,-0.01,-0.01
1778774352.8624744,0.52,0.04,-0.09,0.001,0.012,9.798,-0.01,-0.01,-0.01
1778774352.8724668,0.52,0.04,-0.09,0.001,0.012,9.8,-0.01,-0.01,-0.01
1778774352.8824482,0.52,0.04,-0.09,0.002,0.008,9.803,-0.01,-0.01,-0.01
1778774352.892443,0.52,0.04,-0.09,0.001,0.004,9.802,-0.01,-0.01,-0.01
1778774352.902473,0.52,0.04,-0.09,-0.001,0.004,9.802,-0.01,-0.01,-0.01
1778774352.912478,0.53,0.04,-0.09,-0.004,0.004,9.797,-0.01,-0.01,-0.01
1778774352.9224727,0.53,0.04,-0.09,-0.002,0.004,9.796,-0.01,-0.01,-0.01
1778774352.932458,0.53,0.04,-0.09,-0.002,0.006,9.797,-0.01,0.0,-0.01
1778774352.9424472,0.53,0.04,-0.09,0.001,0.012,9.793,-0.01,-0.01,-0.01
1778774352.9524505,0.53,0.04,-0.09,0.002,0.014,9.79,-0.01,-0.01,-0.01
1778774352.962453,0.53,0.04,-0.09,0.0,0.012,9.791,-0.01,-0.01,-0.01
1778774352.9724507,0.54,0.04,-0.09,-0.004,0.01,9.793,-0.01,-0.01,-0.01
1778774352.9824543,0.54,0.04,-0.09,-0.013,0.008,9.788,-0.01,-0.01,-0.01
1778774352.9924636,0.54,0.04,-0.09,-0.014,0.011,9.79,-0.01,-0.01,-0.01
1778774353.0024476,0.54,0.04,-0.09,-0.008,0.013,9.788,-0.01,-0.01,-0.01
1778774353.0124745,0.54,0.04,-0.08,-0.006,0.006,9.79,-0.01,-0.01,-0.01
1778774353.0224588,0.54,0.04,-0.09,-0.002,0.004,9.793,-0.01,-0.01,0.0
1778774353.032465,0.54,0.04,-0.09,-0.002,0.001,9.791,-0.01,-0.01,0.0
1778774353.0424337,0.54,0.04,-0.09,-0.004,0.0,9.794,-0.01,-0.01,-0.01
1778774353.0524704,0.55,0.03,-0.09,-0.002,0.0,9.796,-0.01,-0.01,-0.01
1778774353.0624723,0.55,0.03,-0.09,-0.002,0.002,9.787,-0.01,-0.01,-0.01
1778774353.0724716,0.55,0.03,-0.09,0.0,0.004,9.782,-0.01,-0.01,-0.01
1778774353.0824738,0.55,0.03,-0.09,-0.005,0.001,9.788,-0.01,-0.01,-0.01
1778774353.0924432,0.55,0.03,-0.09,-0.008,0.002,9.791,-0.01,0.0,-0.01
1778774353.1024468,0.55,0.03,-0.09,-0.005,0.004,9.794,-0.01,-0.01,-0.01
1778774353.1124415,0.55,0.03,-0.09,-0.006,0.002,9.79,-0.01,-0.01,-0.01
1778774353.1224234,0.55,0.03,-0.09,-0.006,0.004,9.788,-0.01,-0.01,-0.01
1778774353.132448,0.55,0.03,-0.09,-0.002,0.002,9.792,-0.01,-0.01,-0.01
1778774353.1424387,0.55,0.03,-0.09,-0.002,0.001,9.796,-0.01,-0.01,-0.01
1778774353.152438,0.55,0.03,-0.09,-0.006,0.005,9.794,-0.01,-0.01,-0.01
1778774353.162441,0.55,0.03,-0.09,-0.002,0.01,9.794,-0.01,-0.01,-0.01
1778774353.1724234,0.55,0.03,-0.09,-0.004,0.011,9.793,-0.01,-0.01,-0.01
1778774353.1824214,0.55,0.03,-0.09,-0.006,0.008,9.794,-0.01,-0.01,-0.01
1778774353.1924078,0.55,0.03,-0.09,-0.001,0.008,9.79,-0.01,-0.01,-0.01
1778774353.2024555,0.56,0.03,-0.09,-0.002,0.008,9.787,-0.01,-0.01,-0.01
1778774353.2124531,0.56,0.03,-0.08,0.0,0.011,9.787,-0.01,-0.01,-0.01
1778774353.2224696,0.56,0.03,-0.08,0.001,0.013,9.79,-0.01,-0.01,-0.01
1778774353.232454,0.56,0.03,-0.08,-0.001,0.013,9.791,-0.01,-0.01,-0.01
1778774353.2424388,0.56,0.03,-0.08,0.001,0.008,9.793,-0.01,-0.01,-0.01
1778774353.2524235,0.56,0.03,-0.08,0.002,0.01,9.797,-0.01,0.0,-0.01
1778774353.2624054,0.56,0.03,-0.08,0.004,0.006,9.788,-0.01,-0.01,-0.01
1778774353.272099,0.56,0.03,-0.08,0.002,0.006,9.788,-0.01,-0.01,-0.01
1778774353.2815893,0.57,0.03,-0.09,0.001,0.001,9.787,-0.01,-0.01,-0.01
1778774353.292429,0.57,0.03,-0.09,0.001,-0.005,9.79,-0.01,0.0,-0.01
1778774353.3024101,0.57,0.03,-0.09,0.0,0.0,9.793,-0.01,-0.01,-0.01
1778774353.3116355,0.57,0.03,-0.09,-0.004,-0.001,9.793,-0.01,0.0,-0.01
1778774353.3215935,0.57,0.03,-0.09,0.001,0.0,9.796,-0.01,-0.01,-0.01
1778774353.331593,0.57,0.03,-0.09,0.005,0.004,9.792,-0.01,-0.01,-0.01
1778774353.3415914,0.57,0.03,-0.09,0.002,0.001,9.796,-0.01,-0.01,-0.01
1778774353.3516252,0.57,0.03,-0.09,0.0,0.0,9.784,-0.01,-0.01,-0.01
1778774353.3615944,0.57,0.03,-0.09,0.006,0.001,9.786,-0.01,-0.01,-0.01
1778774353.3715968,0.57,0.04,-0.09,0.0,-0.002,9.79,-0.01,-0.01,-0.01
1778774353.3815923,0.57,0.04,-0.09,-0.001,-0.002,9.787,-0.01,-0.01,-0.01
1778774353.3915892,0.57,0.03,-0.09,-0.007,0.0,9.793,-0.01,-0.01,-0.01
1778774353.4015863,0.58,0.03,-0.09,-0.006,0.002,9.797,-0.01,-0.01,-0.01
1778774353.4115539,0.58,0.03,-0.09,-0.008,0.0,9.797,-0.01,-0.01,-0.01
1778774353.4215658,0.58,0.03,-0.09,-0.007,0.002,9.8,-0.01,0.0,-0.01
1778774353.431586,0.58,0.03,-0.09,-0.008,0.0,9.803,-0.01,0.0,-0.01
1778774353.4415617,0.58,0.03,-0.09,-0.007,0.005,9.804,-0.01,0.0,-0.01
1778774353.4515324,0.58,0.03,-0.09,-0.007,0.005,9.804,-0.01,-0.01,-0.01
1778774353.461551,0.58,0.03,-0.09,-0.008,0.007,9.799,-0.01,-0.01,-0.01
1778774353.4715683,0.58,0.03,-0.09,-0.004,0.007,9.798,-0.01,-0.01,-0.01
1778774353.4815733,0.59,0.03,-0.09,-0.002,0.006,9.8,-0.01,-0.01,-0.01
1778774353.4915662,0.59,0.03,-0.09,-0.004,0.004,9.8,-0.01,0.0,-0.01
1778774353.5015528,0.59,0.03,-0.09,-0.004,0.007,9.8,-0.01,-0.01,-0.01
1778774353.511536,0.59,0.03,-0.09,-0.006,0.005,9.802,-0.01,-0.01,-0.01
1778774353.5215228,0.59,0.03,-0.09,-0.011,0.0,9.802,-0.01,-0.01,-0.01
1778774353.5315292,0.59,0.03,-0.09,-0.011,-0.002,9.802,-0.01,-0.01,-0.01
1778774353.5415437,0.59,0.03,-0.09,-0.011,-0.004,9.802,-0.01,-0.01,-0.01
1778774353.551523,0.59,0.03,-0.1,-0.007,0.0,9.794,-0.01,-0.01,-0.01
1778774353.5615377,0.59,0.03,-0.1,-0.005,0.005,9.787,-0.01,-0.01,-0.01
1778774353.571522,0.59,0.03,-0.09,-0.005,0.005,9.781,-0.01,-0.01,-0.01
1778774353.5814931,0.59,0.02,-0.09,-0.002,0.0,9.78,-0.01,-0.01,-0.01
1778774353.5915365,0.6,0.02,-0.1,-0.004,0.002,9.779,-0.01,-0.01,-0.01
1778774353.6015284,0.6,0.02,-0.1,-0.002,0.001,9.785,-0.01,0.0,-0.01
1778774353.6116796,0.6,0.02,-0.1,-0.001,0.0,9.787,-0.01,-0.01,-0.01
1778774353.6216147,0.6,0.02,-0.1,0.001,0.001,9.78,-0.01,-0.01,-0.01
1778774353.6315322,0.6,0.02,-0.1,0.002,0.002,9.785,-0.01,-0.01,-0.01
1778774353.641519,0.6,0.02,-0.1,0.001,0.0,9.779,-0.01,-0.01,-0.01
1778774353.6515756,0.6,0.02,-0.1,0.0,0.004,9.786,-0.01,-0.01,-0.01
1778774353.6615064,0.61,0.02,-0.09,0.0,0.002,9.785,-0.01,-0.01,-0.01
1778774353.671522,0.61,0.02,-0.09,-0.004,0.002,9.781,-0.01,-0.01,-0.01
1778774353.6815329,0.61,0.02,-0.1,-0.002,-0.001,9.784,-0.01,-0.01,-0.01
1778774353.6915123,0.61,0.02,-0.1,-0.005,0.002,9.787,-0.01,-0.01,-0.01
1778774353.7015667,0.61,0.02,-0.1,0.0,0.007,9.787,-0.01,-0.01,-0.01
1778774353.7114959,0.61,0.02,-0.1,-0.001,0.013,9.792,-0.01,-0.01,-0.01
1778774353.7215064,0.61,0.02,-0.1,-0.004,0.012,9.796,-0.01,-0.01,-0.01
1778774353.7315207,0.62,0.02,-0.1,-0.001,0.008,9.796,-0.01,-0.01,-0.01
1778774353.74151,0.62,0.02,-0.1,0.005,0.008,9.797,-0.01,-0.01,-0.01
1778774353.7514806,0.62,0.02,-0.1,0.005,0.006,9.796,-0.01,0.0,-0.01
1778774353.7614996,0.62,0.02,-0.1,0.002,0.006,9.799,-0.01,-0.01,-0.01
1778774353.771509,0.62,0.02,-0.1,0.005,0.004,9.791,-0.01,-0.01,-0.01
1778774353.78151,0.62,0.02,-0.1,0.005,0.002,9.794,-0.01,-0.01,-0.01
1778774353.7915003,0.62,0.02,-0.1,0.004,0.004,9.791,-0.01,-0.01,-0.01
1778774353.801513,0.62,0.02,-0.1,-0.001,0.002,9.787,-0.01,-0.01,-0.01
1778774353.811482,0.62,0.02,-0.1,-0.005,0.005,9.786,-0.01,-0.01,-0.01
1778774353.8215134,0.62,0.02,-0.09,-0.002,0.005,9.786,-0.01,-0.01,-0.01
1778774353.8314505,0.62,0.02,-0.09,-0.002,0.0,9.788,-0.01,-0.01,-0.01
1778774353.8415818,0.62,0.02,-0.1,0.001,0.001,9.792,-0.01,-0.01,-0.01
1778774353.8514752,0.62,0.02,-0.1,0.002,-0.001,9.797,-0.01,0.0,-0.01
1778774353.861461,0.62,0.02,-0.1,0.001,0.001,9.798,-0.01,-0.01,-0.01
1778774353.8714502,0.63,0.02,-0.1,0.004,0.004,9.794,-0.01,-0.01,-0.01
1778774353.8826132,0.63,0.02,-0.1,0.005,0.002,9.793,-0.01,-0.01,-0.01
1778774353.8924785,0.63,0.02,-0.1,0.004,0.004,9.79,-0.01,-0.01,-0.01
1778774353.9019022,0.63,0.02,-0.1,0.001,0.006,9.787,-0.01,-0.01,-0.01
1778774353.91147,0.63,0.02,-0.1,0.0,0.006,9.788,-0.01,-0.01,-0.01
1778774353.9214587,0.63,0.02,-0.1,0.001,0.011,9.787,-0.01,-0.01,-0.01
1778774353.9319775,0.63,0.03,-0.09,0.001,0.011,9.792,-0.01,-0.01,-0.01
1778774353.941455,0.64,0.03,-0.09,0.007,0.008,9.793,-0.01,-0.01,-0.01
1778774353.9514778,0.64,0.03,-0.09,-0.001,0.007,9.793,-0.01,-0.01,-0.01
1778774353.9614298,0.64,0.03,-0.1,-0.008,0.0,9.796,-0.01,-0.01,-0.01
1778774353.9705198,0.64,0.02,-0.1,-0.011,-0.004,9.792,-0.01,-0.01,-0.01
1778774353.981454,0.64,0.02,-0.1,-0.01,0.002,9.79,-0.01,0.0,-0.01
1778774353.9914267,0.64,0.02,-0.1,-0.005,0.006,9.792,-0.01,-0.01,-0.01
1778774354.001424,0.64,0.02,-0.1,-0.006,0.004,9.79,-0.01,-0.01,-0.01
1778774354.011404,0.64,0.02,-0.1,-0.004,0.006,9.79,-0.01,-0.01,-0.01
1778774354.0205293,0.64,0.02,-0.09,-0.001,0.004,9.787,-0.01,-0.01,-0.01
1778774354.030545,0.64,0.02,-0.1,0.0,0.002,9.788,-0.01,-0.01,-0.01
1778774354.041439,0.64,0.02,-0.1,0.0,0.006,9.788,-0.01,-0.01,-0.01
1778774354.0514202,0.64,0.02,-0.09,-0.002,0.006,9.792,-0.01,-0.01,-0.01
1778774354.060541,0.64,0.02,-0.09,0.0,0.007,9.793,-0.01,-0.01,-0.01
1778774354.0705383,0.64,0.03,-0.09,0.001,0.004,9.793,-0.01,-0.01,-0.01
1778774354.0805397,0.64,0.03,-0.09,0.001,0.005,9.796,-0.01,-0.01,-0.01
1778774354.0905385,0.65,0.03,-0.09,-0.004,0.005,9.799,-0.01,-0.01,-0.01
1778774354.1005468,0.65,0.03,-0.09,0.001,0.002,9.796,-0.01,-0.01,-0.01
1778774354.110548,0.65,0.03,-0.09,0.0,0.007,9.797,-0.01,-0.01,-0.01
1778774354.1205475,0.65,0.03,-0.09,0.001,0.007,9.792,-0.01,-0.01,-0.01
1778774354.1305637,0.65,0.03,-0.09,0.002,0.01,9.794,-0.01,-0.01,-0.01
1778774354.1405437,0.65,0.03,-0.09,0.001,0.013,9.788,-0.01,-0.01,-0.01
1778774354.1505592,0.65,0.03,-0.09,-0.004,0.008,9.788,-0.01,-0.01,-0.01
1778774354.160543,0.65,0.03,-0.09,-0.006,0.01,9.784,-0.01,-0.01,-0.01
1778774354.170537,0.65,0.03,-0.09,-0.006,0.012,9.785,-0.01,-0.01,-0.01
1778774354.1805508,0.66,0.03,-0.09,-0.001,0.01,9.79,-0.01,-0.01,-0.01
1778774354.19052,0.66,0.03,-0.09,0.0,0.002,9.787,-0.01,-0.01,-0.01
1778774354.200516,0.66,0.03,-0.09,-0.004,0.004,9.787,-0.01,-0.01,-0.01
1778774354.2104914,0.66,0.03,-0.09,-0.005,0.001,9.77,-0.01,-0.01,-0.01
1778774354.220497,0.66,0.03,-0.09,-0.006,0.002,9.776,-0.01,-0.01,-0.01
1778774354.23049,0.66,0.03,-0.09,-0.004,0.001,9.773,-0.01,-0.01,-0.01
1778774354.2405298,0.66,0.03,-0.09,-0.006,0.002,9.773,-0.01,-0.01,-0.01
1778774354.2505088,0.66,0.03,-0.09,-0.006,0.005,9.773,-0.01,0.0,-0.01
1778774354.2605078,0.66,0.03,-0.09,-0.005,0.01,9.776,-0.01,-0.01,-0.01
1778774354.2704954,0.66,0.03,-0.09,-0.008,0.01,9.778,-0.01,-0.01,-0.01
1778774354.2805018,0.66,0.03,-0.09,-0.006,0.005,9.778,-0.01,-0.01,-0.01
1778774354.2904966,0.66,0.03,-0.09,-0.002,0.002,9.778,-0.01,-0.01,-0.01
1778774354.3004982,0.66,0.03,-0.09,-0.008,0.002,9.786,-0.01,-0.01,-0.01
1778774354.310503,0.66,0.03,-0.09,-0.007,0.005,9.791,-0.01,-0.01,-0.01
1778774354.3204792,0.66,0.02,-0.09,0.0,0.002,9.785,-0.01,-0.01,-0.01
1778774354.3304496,0.66,0.03,-0.09,0.0,0.004,9.791,-0.01,0.0,-0.01
1778774354.3405051,0.67,0.03,-0.09,-0.002,0.006,9.792,-0.01,-0.01,-0.01
1778774354.3504987,0.67,0.03,-0.09,-0.004,0.006,9.792,-0.01,-0.01,-0.01
1778774354.3604965,0.67,0.03,-0.09,0.001,0.01,9.791,-0.01,-0.01,-0.01
1778774354.3704908,0.67,0.03,-0.09,0.008,0.012,9.79,-0.01,-0.01,-0.01
1778774354.380484,0.67,0.03,-0.09,0.007,0.004,9.793,-0.01,-0.01,-0.01
1778774354.390462,0.67,0.03,-0.09,0.011,0.0,9.79,-0.01,-0.01,-0.01
1778774354.4004498,0.68,0.03,-0.09,0.011,-0.001,9.793,-0.01,-0.01,-0.01
1778774354.4104524,0.68,0.03,-0.09,0.011,0.001,9.796,-0.01,-0.01,-0.01
1778774354.4204597,0.68,0.03,-0.09,0.01,0.005,9.792,-0.01,-0.01,-0.01
1778774354.4304962,0.68,0.03,-0.09,0.01,0.008,9.792,-0.01,-0.01,-0.01
1778774354.4404936,0.68,0.03,-0.09,0.011,0.007,9.793,-0.01,-0.01,-0.01
1778774354.4505074,0.68,0.04,-0.09,0.005,0.013,9.791,-0.01,-0.01,-0.01
1778774354.4604995,0.68,0.04,-0.09,0.002,0.012,9.788,-0.01,-0.01,-0.01
1778774354.470451,0.69,0.03,-0.09,0.002,0.006,9.791,-0.01,-0.01,-0.01
1778774354.4804611,0.69,0.03,-0.09,0.0,0.005,9.786,-0.01,0.0,-0.01
1778774354.4904547,0.69,0.03,-0.09,-0.002,0.002,9.791,-0.01,-0.01,-0.01
1778774354.5004609,0.69,0.03,-0.09,0.0,0.002,9.786,-0.01,-0.01,-0.01
1778774354.5104568,0.69,0.03,-0.09,-0.001,0.004,9.782,-0.01,-0.01,-0.01
1778774354.5204346,0.69,0.03,-0.09,0.0,0.006,9.784,-0.01,-0.01,-0.01
1778774354.5304413,0.69,0.03,-0.09,-0.001,0.005,9.787,-0.01,-0.01,-0.01
1778774354.5404687,0.69,0.03,-0.09,-0.001,0.008,9.787,-0.01,-0.01,-0.01
1778774354.550467,0.69,0.03,-0.09,-0.002,0.006,9.793,-0.01,-0.01,0.0
1778774354.560908,0.69,0.03,-0.09,-0.002,0.007,9.793,-0.01,-0.01,-0.01
1778774354.5704718,0.69,0.03,-0.09,0.001,0.004,9.796,-0.01,-0.01,-0.01
1778774354.5804787,0.69,0.03,-0.09,0.002,0.002,9.787,-0.01,-0.01,-0.01
1778774354.5904343,0.69,0.03,-0.09,0.0,0.007,9.79,-0.01,0.0,-0.01
1778774354.6004257,0.69,0.04,-0.09,0.007,0.006,9.788,-0.01,-0.01,-0.01
1778774354.610477,0.7,0.04,-0.09,0.008,0.007,9.793,-0.01,-0.01,-0.01
1778774354.6204627,0.7,0.04,-0.09,0.007,0.011,9.793,-0.01,-0.01,-0.01
1778774354.630826,0.7,0.04,-0.09,0.005,0.014,9.788,-0.01,-0.01,-0.01
1778774354.6404343,0.7,0.04,-0.08,0.0,0.014,9.785,-0.01,-0.01,-0.01
1778774354.650437,0.7,0.04,-0.08,-0.001,0.01,9.787,-0.01,-0.01,-0.01
1778774354.6604226,0.7,0.04,-0.08,-0.004,0.008,9.787,-0.01,-0.01,-0.01
1778774354.6704204,0.71,0.04,-0.08,-0.006,0.004,9.791,-0.01,0.0,-0.01
1778774354.6801367,0.71,0.04,-0.08,0.0,0.0,9.796,-0.01,-0.01,-0.01
1778774354.6909983,0.71,0.04,-0.09,0.001,-0.001,9.798,-0.01,-0.01,-0.01
1778774354.7004478,0.71,0.04,-0.09,0.004,-0.004,9.802,-0.01,-0.01,-0.01
1778774354.7104466,0.71,0.04,-0.09,0.0,-0.001,9.802,-0.01,-0.01,-0.01
1778774354.7204342,0.71,0.04,-0.09,0.0,-0.004,9.803,-0.01,-0.01,-0.01
1778774354.7300591,0.71,0.04,-0.09,-0.006,0.0,9.802,-0.01,-0.01,-0.01
1778774354.7400022,0.71,0.04,-0.09,-0.008,0.005,9.8,-0.01,-0.01,-0.01
1778774354.7498572,0.71,0.04,-0.09,-0.001,0.006,9.788,-0.01,-0.01,-0.01
1778774354.7595603,0.71,0.04,-0.09,-0.002,0.013,9.787,-0.01,-0.01,-0.01
1778774354.769558,0.71,0.04,-0.08,-0.007,0.014,9.791,-0.01,-0.01,-0.01
1778774354.7795804,0.71,0.04,-0.08,-0.007,0.013,9.787,-0.01,-0.01,-0.01
1778774354.7898874,0.71,0.03,-0.08,-0.006,0.013,9.786,-0.01,-0.01,-0.01
1778774354.8000336,0.72,0.04,-0.08,-0.01,0.01,9.785,-0.01,-0.01,-0.01
1778774354.8095827,0.72,0.03,-0.08,-0.005,0.006,9.786,-0.01,-0.01,-0.01
1778774354.8195734,0.72,0.04,-0.08,-0.002,0.002,9.79,-0.01,-0.01,-0.01
1778774354.829644,0.72,0.03,-0.09,-0.004,0.002,9.791,-0.01,0.0,-0.01
1778774354.8399403,0.72,0.03,-0.09,-0.001,0.001,9.784,-0.01,0.0,-0.01
1778774354.8500314,0.72,0.03,-0.09,0.0,0.002,9.781,-0.01,-0.01,-0.01
1778774354.8596008,0.73,0.03,-0.09,-0.004,0.004,9.784,-0.01,-0.01,-0.01
1778774354.8704007,0.73,0.04,-0.09,0.0,0.001,9.786,-0.01,-0.01,-0.01
1778774354.8798974,0.73,0.04,-0.09,-0.001,-0.001,9.78,-0.01,-0.01,-0.01
1778774354.8895612,0.73,0.03,-0.09,-0.005,-0.005,9.785,-0.01,-0.01,-0.01
1778774354.8999038,0.73,0.03,-0.09,-0.006,-0.007,9.787,-0.01,-0.01,-0.01
1778774354.909545,0.73,0.03,-0.09,-0.007,-0.001,9.782,-0.01,-0.01,-0.01
1778774354.919674,0.73,0.03,-0.09,-0.006,0.0,9.784,-0.01,-0.01,-0.01
1778774354.9295669,0.73,0.03,-0.09,-0.006,0.004,9.788,-0.01,-0.01,-0.01
1778774354.939538,0.73,0.03,-0.09,-0.002,0.007,9.794,-0.01,-0.01,-0.01
1778774354.9495363,0.73,0.03,-0.09,-0.007,0.007,9.792,-0.01,-0.01,-0.01
1778774354.959677,0.73,0.03,-0.09,-0.007,0.007,9.791,-0.01,-0.01,-0.01
1778774354.9695215,0.73,0.03,-0.09,-0.007,0.007,9.793,-0.01,-0.01,-0.01
1778774354.9794943,0.73,0.03,-0.09,-0.006,0.007,9.791,-0.01,-0.01,-0.01
1778774354.9895139,0.73,0.03,-0.09,-0.008,0.008,9.784,-0.01,-0.01,-0.01
1778774354.9995859,0.73,0.03,-0.09,-0.008,0.011,9.785,-0.01,-0.01,-0.01
1778774355.0095036,0.73,0.03,-0.09,-0.011,0.013,9.791,-0.01,-0.01,-0.01
1778774355.0195127,0.74,0.03,-0.08,-0.008,0.01,9.792,-0.01,-0.01,-0.01
1778774355.0294995,0.74,0.03,-0.09,-0.006,0.008,9.794,-0.01,-0.01,0.0
1778774355.0394878,0.74,0.03,-0.09,-0.005,0.001,9.798,-0.01,-0.01,-0.01
1778774355.0495265,0.74,0.03,-0.09,-0.007,0.002,9.799,-0.01,-0.01,-0.01
1778774355.059507,0.74,0.03,-0.09,-0.008,0.002,9.798,-0.01,-0.01,-0.01
1778774355.0695224,0.74,0.03,-0.09,-0.005,0.007,9.797,-0.01,-0.01,-0.01
1778774355.0795436,0.74,0.03,-0.09,-0.005,0.002,9.794,-0.01,-0.01,-0.01
1778774355.0895088,0.74,0.03,-0.09,-0.006,0.0,9.793,-0.01,-0.01,-0.01
1778774355.0994961,0.74,0.03,-0.09,-0.006,-0.001,9.796,-0.01,-0.01,-0.01
1778774355.1095104,0.75,0.03,-0.09,-0.004,-0.002,9.793,-0.01,-0.01,-0.01
1778774355.119528,0.75,0.03,-0.09,-0.002,-0.004,9.784,-0.01,-0.01,-0.01
1778774355.1295443,0.75,0.03,-0.09,0.0,-0.008,9.79,-0.01,-0.01,-0.01
1778774355.1395307,0.75,0.03,-0.09,-0.001,-0.002,9.79,-0.01,-0.01,-0.01
1778774355.149556,0.75,0.03,-0.09,-0.008,0.001,9.79,-0.01,-0.01,-0.01
1778774355.1594453,0.75,0.03,-0.09,-0.005,0.002,9.792,-0.01,-0.01,-0.01
1778774355.1695037,0.76,0.03,-0.09,-0.004,0.004,9.796,-0.01,-0.01,-0.01
1778774355.1794803,0.76,0.03,-0.09,-0.005,0.006,9.799,-0.01,-0.01,-0.01
1778774355.1894946,0.76,0.03,-0.09,-0.007,0.0,9.796,-0.01,-0.01,-0.01
1778774355.199478,0.76,0.03,-0.09,-0.008,0.0,9.791,-0.01,-0.01,-0.01
1778774355.2102695,0.76,0.03,-0.09,-0.001,0.001,9.786,-0.01,-0.01,-0.01
1778774355.2195284,0.76,0.03,-0.09,0.0,0.001,9.781,-0.01,-0.01,-0.01
1778774355.2294745,0.76,0.03,-0.09,-0.004,0.004,9.784,-0.01,-0.01,-0.01
1778774355.2394347,0.76,0.03,-0.09,-0.004,0.002,9.785,-0.01,-0.01,-0.01
1778774355.2494373,0.76,0.03,-0.09,0.0,0.001,9.788,-0.01,-0.01,-0.01
1778774355.2594402,0.76,0.03,-0.09,-0.007,0.006,9.792,-0.01,-0.01,-0.01
1778774355.2694411,0.76,0.03,-0.09,-0.01,0.008,9.797,-0.01,-0.01,-0.01
1778774355.2794487,0.76,0.03,-0.09,-0.008,0.011,9.796,-0.01,-0.01,-0.01
1778774355.2894619,0.76,0.03,-0.09,-0.004,0.008,9.798,-0.01,-0.01,-0.01
1778774355.2994885,0.76,0.03,-0.09,-0.001,0.011,9.794,-0.01,-0.01,-0.01
1778774355.3095484,0.76,0.03,-0.09,-0.001,0.008,9.788,-0.01,-0.01,-0.01
1778774355.3194258,0.76,0.03,-0.09,-0.001,0.002,9.785,-0.01,-0.01,-0.01
1778774355.3294168,0.77,0.03,-0.09,0.0,-0.001,9.788,-0.01,-0.01,-0.01
1778774355.3394566,0.77,0.03,-0.09,0.0,0.0,9.793,-0.01,-0.01,-0.01
1778774355.3494449,0.77,0.03,-0.09,0.0,-0.002,9.798,-0.01,-0.01,-0.01
1778774355.3594625,0.77,0.03,-0.09,-0.002,-0.004,9.799,-0.01,-0.01,-0.01
1778774355.3694663,0.77,0.03,-0.09,0.002,0.0,9.8,-0.01,0.0,-0.01
1778774355.379427,0.77,0.03,-0.09,-0.001,0.005,9.799,-0.01,-0.01,-0.01
1778774355.3894572,0.78,0.03,-0.09,-0.001,0.006,9.796,-0.01,0.0,-0.01
1778774355.399428,0.78,0.03,-0.09,-0.002,0.0,9.796,-0.01,-0.01,-0.01
1778774355.4094548,0.78,0.03,-0.09,-0.011,0.005,9.793,-0.01,-0.01,-0.01
1778774355.419412,0.78,0.03,-0.09,-0.008,0.006,9.793,-0.01,-0.01,-0.01
1778774355.4294183,0.78,0.03,-0.09,-0.01,0.002,9.793,-0.01,0.0,-0.01
1778774355.4394155,0.78,0.03,-0.09,-0.011,0.002,9.787,-0.01,-0.01,-0.01
1778774355.4494162,0.78,0.03,-0.09,-0.008,0.002,9.793,-0.01,-0.01,-0.01
1778774355.459402,0.78,0.03,-0.09,-0.006,0.004,9.785,-0.01,-0.01,-0.01
1778774355.4694424,0.78,0.03,-0.09,-0.002,0.011,9.788,-0.01,-0.01,-0.01
1778774355.4794078,0.78,0.03,-0.09,-0.005,0.01,9.791,-0.01,-0.01,-0.01
1778774355.488566,0.78,0.03,-0.09,-0.004,0.01,9.791,-0.01,-0.01,-0.01
1778774355.4985476,0.78,0.03,-0.09,-0.006,0.008,9.788,-0.01,-0.01,-0.01
1778774355.5085294,0.79,0.03,-0.09,-0.007,0.006,9.791,-0.01,-0.01,-0.01
1778774355.5185282,0.79,0.03,-0.09,-0.01,0.007,9.791,-0.01,-0.01,-0.01
1778774355.5285246,0.79,0.03,-0.09,-0.011,0.002,9.79,-0.01,-0.01,-0.01
1778774355.5385284,0.79,0.02,-0.09,-0.006,0.004,9.79,-0.01,0.0,-0.01
1778774355.5494192,0.79,0.03,-0.09,-0.005,0.007,9.786,-0.01,-0.01,-0.01
1778774355.5585403,0.79,0.02,-0.09,-0.005,0.006,9.792,-0.01,-0.01,-0.01
1778774355.568529,0.79,0.02,-0.09,-0.002,0.002,9.793,-0.01,-0.01,-0.01
1778774355.5785353,0.8,0.02,-0.09,0.0,0.0,9.791,-0.01,0.0,-0.01
1778774355.588533,0.8,0.02,-0.09,-0.006,0.002,9.787,-0.01,0.0,-0.01
1778774355.598545,0.8,0.02,-0.09,-0.005,0.005,9.79,-0.01,-0.01,-0.01
1778774355.6085365,0.8,0.02,-0.09,-0.007,0.006,9.791,-0.01,-0.01,-0.01
1778774355.6185236,0.8,0.02,-0.09,-0.01,0.007,9.793,-0.01,-0.01,-0.01
1778774355.6287055,0.8,0.02,-0.09,-0.006,0.007,9.794,-0.01,0.0,-0.01
1778774355.6385357,0.8,0.02,-0.09,-0.002,0.008,9.798,-0.01,-0.01,-0.01
1778774355.648562,0.8,0.02,-0.09,-0.006,0.013,9.797,-0.01,-0.01,-0.01
1778774355.6585417,0.8,0.02,-0.09,-0.011,0.013,9.792,-0.01,-0.01,-0.01
1778774355.6685352,0.8,0.02,-0.09,-0.01,0.012,9.791,-0.01,0.0,-0.01
1778774355.6785634,0.8,0.02,-0.09,-0.004,0.007,9.792,-0.01,-0.01,-0.01
1778774355.688545,0.8,0.02,-0.09,0.001,0.005,9.797,-0.01,-0.01,-0.01
1778774355.6985354,0.8,0.02,-0.09,0.001,0.0,9.792,-0.01,-0.01,-0.01
1778774355.7084968,0.8,0.02,-0.09,0.0,0.002,9.791,-0.01,-0.01,-0.01
1778774355.718568,0.8,0.02,-0.09,-0.002,0.005,9.794,-0.01,-0.01,-0.01
1778774355.728553,0.81,0.02,-0.09,-0.007,0.002,9.793,-0.01,-0.01,-0.01
1778774355.7385554,0.81,0.02,-0.09,-0.004,0.0,9.79,-0.01,-0.01,-0.01
1778774355.7485127,0.81,0.02,-0.09,-0.001,0.002,9.788,-0.01,-0.01,-0.01
1778774355.758511,0.81,0.02,-0.09,0.004,0.004,9.78,-0.01,-0.01,-0.01
1778774355.7685225,0.81,0.02,-0.09,0.004,0.001,9.787,-0.01,0.0,-0.01
1778774355.7785242,0.81,0.03,-0.09,0.0,0.002,9.79,-0.01,-0.01,-0.01
1778774355.788508,0.82,0.03,-0.09,0.001,0.001,9.794,-0.01,-0.01,-0.01
1778774355.798527,0.82,0.02,-0.09,0.007,-0.002,9.798,-0.01,-0.01,-0.01
1778774355.8093941,0.82,0.03,-0.09,0.005,0.0,9.797,-0.01,-0.01,-0.01
1778774355.8185415,0.82,0.03,-0.09,0.004,0.001,9.796,-0.01,-0.01,-0.01
1778774355.8284962,0.82,0.03,-0.09,0.007,0.001,9.799,-0.01,-0.01,-0.01
1778774355.8384917,0.82,0.03,-0.09,0.001,0.0,9.802,-0.01,0.0,-0.01
1778774355.848514,0.82,0.03,-0.09,0.002,0.005,9.792,-0.01,-0.01,-0.01
1778774355.858478,0.83,0.03,-0.09,0.004,0.006,9.792,-0.01,-0.01,-0.01
1778774355.8684697,0.83,0.03,-0.09,0.004,0.005,9.792,-0.01,-0.01,-0.01
1778774355.8784688,0.83,0.03,-0.09,0.0,0.007,9.796,-0.01,-0.01,-0.01
1778774355.8885512,0.83,0.03,-0.09,0.0,0.007,9.794,-0.01,-0.01,-0.01
1778774355.898474,0.83,0.03,-0.09,0.004,0.004,9.792,-0.01,-0.01,-0.01
1778774355.9084866,0.83,0.03,-0.09,0.0,0.002,9.788,-0.01,-0.01,-0.01
1778774355.9184947,0.83,0.03,-0.09,0.001,0.002,9.791,-0.01,-0.01,-0.01
1778774355.9284837,0.83,0.03,-0.09,0.001,0.004,9.784,-0.01,-0.01,-0.01
1778774355.938471,0.83,0.03,-0.09,0.0,0.004,9.78,-0.01,-0.01,-0.01
1778774355.948476,0.83,0.03,-0.09,0.0,0.007,9.781,-0.01,-0.01,-0.01
1778774355.958478,0.83,0.03,-0.09,-0.002,0.001,9.785,-0.01,-0.01,-0.01
1778774355.9684608,0.83,0.03,-0.09,-0.007,-0.001,9.791,-0.01,-0.01,-0.01
1778774355.978472,0.83,0.03,-0.09,-0.005,-0.001,9.788,-0.01,-0.01,-0.01
1778774355.9884615,0.83,0.03,-0.09,-0.006,0.0,9.784,-0.01,-0.01,-0.01
1778774355.9984543,0.83,0.03,-0.09,-0.008,0.004,9.778,-0.01,-0.01,-0.01
1778774356.0084536,0.83,0.03,-0.09,-0.008,0.005,9.786,-0.01,-0.01,-0.01
1778774356.0184796,0.84,0.03,-0.09,-0.005,0.007,9.79,-0.01,-0.01,-0.01
1778774356.0284452,0.84,0.03,-0.09,-0.006,0.0,9.781,-0.01,-0.01,-0.01
1778774356.038442,0.84,0.03,-0.09,-0.012,0.0,9.785,-0.01,-0.01,-0.01
1778774356.0484838,0.84,0.03,-0.09,-0.006,0.007,9.792,-0.01,-0.01,-0.01
1778774356.058486,0.84,0.03,-0.09,-0.007,0.006,9.787,-0.01,-0.01,-0.01
1778774356.0684853,0.84,0.03,-0.09,-0.012,0.001,9.788,-0.01,-0.01,-0.01
1778774356.0784583,0.84,0.02,-0.09,-0.008,0.001,9.793,-0.01,-0.01,-0.01
1778774356.0884404,0.85,0.02,-0.09,-0.004,0.004,9.793,-0.01,-0.01,-0.01
1778774356.098446,0.85,0.03,-0.09,-0.004,0.002,9.793,-0.01,-0.01,-0.01
1778774356.1084356,0.85,0.03,-0.09,0.0,0.001,9.796,-0.01,-0.01,-0.01
1778774356.1184213,0.85,0.03,-0.09,0.004,0.004,9.798,-0.01,-0.01,-0.01
1778774356.1284697,0.85,0.03,-0.09,0.001,0.001,9.797,-0.01,-0.01,-0.01
1778774356.1384752,0.85,0.03,-0.09,-0.004,0.001,9.799,-0.01,-0.01,-0.01
1778774356.148463,0.85,0.03,-0.09,-0.011,-0.001,9.793,-0.01,-0.01,-0.01
1778774356.1584637,0.85,0.03,-0.09,-0.011,0.001,9.79,-0.01,-0.01,-0.01
1778774356.1684446,0.85,0.02,-0.09,-0.011,0.006,9.785,-0.01,-0.01,-0.01
1778774356.1784525,0.85,0.02,-0.09,-0.011,0.008,9.788,-0.01,-0.01,-0.01
1778774356.1884377,0.85,0.02,-0.09,-0.005,0.001,9.788,-0.01,-0.01,-0.01
1778774356.1984186,0.85,0.02,-0.09,-0.001,0.002,9.791,-0.01,-0.01,-0.01
1778774356.20842,0.86,0.03,-0.09,0.002,0.002,9.794,-0.01,-0.01,-0.01
1778774356.2175915,0.86,0.03,-0.09,0.002,0.001,9.794,-0.01,-0.01,-0.01
1778774356.2275932,0.86,0.03,-0.09,0.001,0.0,9.787,-0.01,-0.01,-0.01
1778774356.238444,0.86,0.03,-0.09,0.0,-0.004,9.788,-0.01,-0.01,-0.01
1778774356.2484195,0.86,0.03,-0.1,-0.001,-0.005,9.791,-0.01,-0.01,0.0
1778774356.2584224,0.86,0.03,-0.1,-0.007,0.005,9.796,-0.01,-0.01,-0.01
1778774356.2675917,0.86,0.03,-0.09,-0.007,0.01,9.799,-0.01,-0.01,-0.01
1778774356.2775824,0.87,0.03,-0.09,-0.005,0.012,9.798,-0.01,-0.01,-0.01
1778774356.287581,0.87,0.03,-0.09,-0.004,0.013,9.797,-0.01,-0.01,-0.01
1778774356.2975748,0.87,0.03,-0.09,0.0,0.013,9.792,-0.01,-0.01,-0.01
1778774356.307575,0.87,0.03,-0.09,0.0,0.01,9.791,-0.01,-0.01,-0.01
1778774356.3184264,0.87,0.03,-0.09,-0.002,0.007,9.788,-0.01,-0.01,-0.01
1778774356.3275893,0.87,0.03,-0.09,0.0,0.01,9.79,-0.01,-0.01,-0.01
1778774356.3375869,0.87,0.03,-0.09,0.002,0.01,9.786,-0.01,-0.01,-0.01
1778774356.3477814,0.87,0.03,-0.09,0.0,0.012,9.784,-0.01,-0.01,-0.01
1778774356.3575928,0.87,0.03,-0.09,0.007,0.006,9.784,-0.01,-0.01,-0.01
1778774356.3675923,0.87,0.03,-0.09,0.006,0.008,9.787,-0.01,-0.01,-0.01
1778774356.3775253,0.87,0.03,-0.09,0.005,0.007,9.786,-0.01,-0.01,-0.01
1778774356.3874922,0.87,0.03,-0.09,0.002,-0.001,9.792,-0.01,-0.01,-0.01
1778774356.3975296,0.87,0.03,-0.09,0.001,0.001,9.793,-0.01,-0.01,-0.01
1778774356.4075136,0.87,0.03,-0.09,0.002,0.005,9.797,-0.01,-0.01,-0.01
1778774356.4175332,0.88,0.03,-0.09,0.005,0.005,9.798,-0.01,-0.01,-0.01
1778774356.4275413,0.88,0.03,-0.09,0.006,0.005,9.8,-0.01,-0.01,-0.01
1778774356.4375107,0.88,0.04,-0.09,0.004,0.006,9.794,-0.01,-0.01,-0.01
1778774356.4474876,0.88,0.03,-0.09,0.005,0.006,9.796,-0.01,-0.01,0.0
1778774356.4575257,0.88,0.03,-0.09,0.002,0.004,9.793,-0.01,-0.01,-0.01
1778774356.4674952,0.88,0.03,-0.09,0.0,0.004,9.796,-0.01,-0.01,-0.01
1778774356.4774814,0.88,0.03,-0.09,0.005,0.004,9.799,-0.01,0.0,-0.01
1778774356.487531,0.89,0.03,-0.09,0.002,0.0,9.791,-0.01,-0.01,-0.01
1778774356.4974928,0.89,0.03,-0.09,0.0,0.0,9.779,-0.01,0.0,-0.01
1778774356.5074887,0.89,0.03,-0.09,-0.006,0.004,9.786,-0.01,-0.01,-0.01
1778774356.5174763,0.89,0.03,-0.09,-0.004,0.004,9.791,-0.01,-0.01,-0.01
1778774356.5275126,0.89,0.03,-0.09,-0.005,0.005,9.79,-0.01,0.0,-0.01
1778774356.5374925,0.89,0.03,-0.09,-0.004,0.007,9.791,-0.01,-0.01,-0.01
1778774356.5474768,0.89,0.03,-0.09,-0.006,0.006,9.793,-0.01,-0.01,-0.01
1778774356.5574832,0.89,0.03,-0.09,-0.004,0.007,9.792,-0.01,-0.01,-0.01
1778774356.5674798,0.9,0.03,-0.09,0.0,0.01,9.782,-0.01,-0.01,-0.01
1778774356.5774584,0.9,0.03,-0.09,0.0,0.008,9.782,-0.01,-0.01,-0.01
1778774356.5874493,0.9,0.03,-0.09,-0.001,0.013,9.786,-0.01,-0.01,-0.01
1778774356.5974624,0.9,0.03,-0.08,0.0,0.013,9.792,-0.01,-0.01,-0.01
1778774356.6075282,0.9,0.03,-0.08,0.001,0.012,9.793,-0.01,-0.01,-0.01
1778774356.6175148,0.9,0.03,-0.08,0.004,0.018,9.793,-0.01,-0.01,-0.01
1778774356.6274598,0.9,0.03,-0.08,0.0,0.016,9.797,-0.01,0.0,-0.01
1778774356.6374648,0.9,0.03,-0.08,0.001,0.008,9.797,-0.01,-0.01,-0.01
1778774356.6474595,0.9,0.03,-0.08,0.0,0.005,9.798,-0.01,-0.01,-0.01
1778774356.6574519,0.9,0.03,-0.08,0.0,0.0,9.799,-0.01,-0.01,-0.01
1778774356.6674707,0.9,0.03,-0.08,0.0,0.0,9.798,-0.01,-0.01,-0.01
1778774356.6774905,0.9,0.03,-0.08,0.0,-0.001,9.794,-0.01,-0.01,-0.01
1778774356.6874828,0.9,0.03,-0.08,0.002,0.0,9.788,-0.01,0.0,0.0
1778774356.6974723,0.9,0.03,-0.08,0.004,0.004,9.787,-0.01,0.0,-0.01
1778774356.7074666,0.9,0.03,-0.08,0.005,0.004,9.782,-0.01,-0.01,-0.01
1778774356.7174711,0.9,0.03,-0.08,0.004,0.002,9.786,-0.01,-0.01,-0.01
1778774356.7275763,0.91,0.03,-0.08,0.002,0.007,9.788,-0.01,-0.01,-0.01
1778774356.7374485,0.91,0.03,-0.08,0.001,0.006,9.782,-0.01,-0.01,-0.01
1778774356.7476203,0.91,0.03,-0.08,0.0,0.004,9.78,-0.01,-0.01,-0.01
1778774356.757488,0.91,0.03,-0.08,-0.001,0.0,9.782,-0.01,-0.01,-0.01
1778774356.7674818,0.91,0.03,-0.08,-0.002,0.002,9.78,-0.01,-0.01,-0.01
1778774356.7774854,0.92,0.03,-0.08,0.0,0.005,9.779,-0.01,-0.01,-0.01
1778774356.78761,0.92,0.03,-0.08,0.0,0.007,9.78,-0.01,0.0,-0.01
1778774356.7974436,0.92,0.03,-0.08,-0.007,0.005,9.781,-0.01,-0.01,-0.01
1778774356.8075607,0.92,0.03,-0.08,-0.005,0.0,9.782,-0.01,-0.01,-0.01
1778774356.817497,0.92,0.03,-0.08,0.0,0.0,9.785,-0.01,-0.01,-0.01
1778774356.8274596,0.92,0.03,-0.08,0.006,0.0,9.781,-0.01,-0.01,-0.01
1778774356.8375728,0.92,0.03,-0.08,0.007,0.002,9.787,-0.01,-0.01,-0.01
1778774356.8475635,0.92,0.03,-0.08,0.006,0.0,9.788,-0.01,-0.01,-0.01
1778774356.8574877,0.92,0.03,-0.08,0.006,0.005,9.791,-0.01,0.0,-0.01
1778774356.8674903,0.92,0.03,-0.08,0.008,0.005,9.792,-0.01,-0.01,-0.01
1778774356.8774738,0.92,0.04,-0.08,0.007,0.007,9.797,-0.01,-0.01,-0.01
1778774356.88744,0.92,0.04,-0.08,0.001,0.008,9.794,-0.01,-0.01,-0.01
1778774356.8982878,0.92,0.04,-0.08,0.002,0.008,9.798,-0.01,-0.01,-0.01
1778774356.9074361,0.92,0.04,-0.08,0.0,0.006,9.796,-0.01,-0.01,-0.01
1778774356.916738,0.92,0.04,-0.08,-0.001,0.0,9.796,-0.01,-0.01,-0.01
1778774356.9265683,0.92,0.04,-0.09,-0.004,0.004,9.798,-0.01,-0.01,-0.01
1778774356.937497,0.93,0.03,-0.09,-0.001,0.005,9.792,-0.01,-0.01,-0.01
1778774356.9474368,0.93,0.03,-0.09,-0.001,0.006,9.796,-0.01,-0.01,-0.01
1778774356.9574466,0.93,0.04,-0.08,0.002,0.005,9.787,-0.01,-0.01,-0.01
1778774356.9665885,0.93,0.04,-0.08,0.006,0.006,9.782,-0.01,-0.01,-0.01
1778774356.9765587,0.93,0.04,-0.08,0.002,0.006,9.787,-0.01,-0.01,-0.01
1778774356.9865472,0.93,0.04,-0.08,0.0,0.002,9.79,-0.01,-0.01,-0.01
1778774356.9974377,0.94,0.04,-0.08,-0.001,0.002,9.79,-0.01,-0.01,-0.01
1778774357.0074143,0.94,0.04,-0.08,0.002,0.005,9.786,-0.01,-0.01,-0.01
1778774357.0165932,0.94,0.04,-0.08,0.0,0.006,9.781,-0.01,-0.01,-0.01
1778774357.0265527,0.94,0.03,-0.08,-0.001,0.004,9.782,-0.01,-0.01,-0.01
1778774357.0365698,0.94,0.03,-0.09,0.0,0.005,9.79,-0.01,0.0,-0.01
1778774357.047422,0.94,0.03,-0.09,-0.002,0.007,9.794,-0.01,-0.01,-0.01
1778774357.056598,0.94,0.03,-0.08,0.002,0.005,9.792,-0.01,-0.01,-0.01
1778774357.0665472,0.94,0.04,-0.09,0.004,0.002,9.796,-0.01,-0.01,-0.01
1778774357.0765586,0.94,0.04,-0.08,0.002,0.002,9.794,-0.01,-0.01,-0.01
1778774357.0865552,0.94,0.04,-0.09,-0.001,0.001,9.798,-0.01,-0.01,0.0
1778774357.0965364,0.94,0.04,-0.09,-0.001,0.002,9.796,-0.01,-0.01,-0.01
1778774357.1065211,0.94,0.04,-0.09,-0.002,0.002,9.797,-0.01,-0.01,-0.01
1778774357.1165483,0.94,0.03,-0.09,-0.004,0.002,9.791,-0.01,-0.01,-0.01
1778774357.1265495,0.94,0.03,-0.09,-0.001,0.002,9.791,-0.01,0.0,-0.01
1778774357.1365469,0.95,0.03,-0.09,-0.004,0.004,9.796,-0.01,-0.01,-0.01
1778774357.1465473,0.95,0.03,-0.09,-0.004,0.002,9.799,-0.01,-0.01,-0.01
1778774357.1565208,0.95,0.03,-0.09,-0.005,0.0,9.791,-0.01,-0.01,-0.01
1778774357.166509,0.95,0.03,-0.09,-0.006,0.001,9.788,-0.01,-0.01,-0.01
1778774357.176919,0.95,0.03,-0.09,-0.008,0.001,9.787,-0.01,-0.01,-0.01
1778774357.1865242,0.95,0.03,-0.09,-0.005,-0.002,9.787,-0.01,-0.01,-0.01
1778774357.1965363,0.95,0.03,-0.09,-0.004,-0.002,9.786,-0.01,-0.01,-0.01
1778774357.2065182,0.95,0.03,-0.09,-0.007,0.004,9.781,-0.01,-0.01,-0.01
1778774357.2165627,0.95,0.03,-0.09,-0.004,0.008,9.779,-0.01,-0.01,-0.01
1778774357.22658,0.96,0.03,-0.09,-0.006,0.01,9.779,-0.01,-0.01,-0.01
1778774357.2367485,0.96,0.03,-0.09,-0.007,0.005,9.782,-0.01,-0.01,-0.01
1778774357.2466307,0.96,0.03,-0.09,-0.008,0.0,9.79,-0.01,-0.01,-0.01
1778774357.256526,0.96,0.03,-0.09,-0.006,0.0,9.782,-0.01,-0.01,-0.01
1778774357.2665095,0.96,0.03,-0.09,-0.005,0.002,9.784,-0.01,-0.01,-0.01
1778774357.276509,0.96,0.03,-0.09,-0.007,0.004,9.79,-0.01,-0.01,-0.01
1778774357.2865074,0.96,0.03,-0.09,-0.01,0.007,9.792,-0.01,-0.01,-0.01
1778774357.2965062,0.96,0.03,-0.09,-0.008,0.012,9.794,-0.01,-0.01,-0.01
1778774357.3065088,0.96,0.03,-0.09,-0.004,0.011,9.796,-0.01,-0.01,-0.01
1778774357.3164954,0.97,0.03,-0.09,-0.001,0.014,9.792,-0.01,-0.01,-0.01
1778774357.3264902,0.97,0.03,-0.08,-0.001,0.013,9.791,-0.01,-0.01,-0.01
1778774357.3364937,0.97,0.03,-0.08,-0.004,0.011,9.791,-0.01,-0.01,-0.01
1778774357.3464904,0.97,0.03,-0.08,-0.004,0.005,9.796,-0.01,-0.01,-0.01
1778774357.3569353,0.97,0.03,-0.08,-0.002,0.005,9.799,-0.01,-0.01,-0.01
1778774357.3664823,0.97,0.03,-0.08,-0.002,0.005,9.799,-0.01,-0.01,-0.01
1778774357.3764892,0.97,0.03,-0.08,-0.004,0.004,9.802,-0.01,-0.01,-0.01
1778774357.3868408,0.97,0.03,-0.08,-0.002,0.008,9.804,-0.01,0.0,-0.01
1778774357.3965194,0.97,0.03,-0.08,-0.004,0.012,9.798,-0.01,-0.01,-0.01
1778774357.4065373,0.97,0.03,-0.08,-0.012,0.012,9.8,-0.01,-0.01,-0.01
1778774357.4165044,0.97,0.03,-0.08,-0.011,0.008,9.8,-0.01,-0.01,0.0
1778774357.4264996,0.97,0.03,-0.08,-0.011,0.008,9.798,-0.01,-0.01,-0.01
1778774357.4364896,0.97,0.03,-0.08,-0.008,0.01,9.797,-0.01,-0.01,-0.01
1778774357.4465017,0.97,0.03,-0.08,-0.007,0.01,9.792,-0.01,-0.01,-0.01
1778774357.456551,0.97,0.03,-0.08,-0.001,0.01,9.79,-0.01,-0.01,-0.01
1778774357.4665127,0.98,0.03,-0.08,0.0,0.013,9.794,-0.01,-0.01,-0.01
1778774357.4765248,0.98,0.03,-0.08,-0.005,0.016,9.793,-0.01,-0.01,-0.01
1778774357.4868066,0.98,0.03,-0.08,-0.001,0.013,9.786,-0.01,-0.01,-0.01
1778774357.496521,0.98,0.03,-0.08,-0.002,0.007,9.787,-0.01,-0.01,-0.01
1778774357.5064983,0.98,0.03,-0.08,0.0,0.01,9.788,-0.01,-0.01,-0.01
1778774357.5165014,0.98,0.03,-0.08,-0.005,0.012,9.793,-0.01,-0.01,-0.01
1778774357.5265045,0.98,0.03,-0.08,-0.004,0.005,9.794,-0.01,-0.01,-0.01
1778774357.5364795,0.99,0.03,-0.08,0.0,0.0,9.797,-0.01,-0.01,-0.01
1778774357.5464346,0.99,0.03,-0.08,0.005,-0.001,9.797,-0.01,0.0,-0.01
1778774357.5565035,0.99,0.03,-0.08,0.004,-0.002,9.798,-0.01,-0.01,-0.01
1778774357.5665016,0.99,0.03,-0.08,0.004,0.006,9.799,-0.01,-0.01,-0.01
1778774357.5766737,0.99,0.03,-0.08,0.0,0.01,9.8,-0.01,-0.01,-0.01
1778774357.5864842,0.99,0.03,-0.08,-0.001,0.008,9.803,-0.01,-0.01,-0.01
1778774357.596461,0.99,0.03,-0.08,0.001,0.004,9.797,-0.01,-0.01,-0.01
1778774357.6064606,0.99,0.03,-0.08,0.0,0.002,9.798,-0.01,-0.01,-0.01
1778774357.6172893,0.99,0.03,-0.08,0.0,0.004,9.796,-0.01,-0.01,-0.01
1778774357.6265063,0.99,0.03,-0.08,0.001,0.006,9.796,-0.01,-0.01,-0.01
1778774357.6364284,0.99,0.03,-0.08,0.0,0.01,9.796,-0.01,-0.01,-0.01
1778774357.6472716,0.99,0.03,-0.08,-0.006,0.008,9.785,-0.01,-0.01,-0.01
1778774357.655635,0.99,0.03,-0.08,-0.005,0.002,9.787,-0.01,-0.01,-0.01
1778774357.6656501,0.99,0.03,-0.08,-0.007,0.005,9.792,-0.01,-0.01,-0.01
1778774357.6766686,0.99,0.03,-0.08,-0.01,0.01,9.794,-0.01,-0.01,-0.01
1778774357.6864543,0.99,0.03,-0.08,-0.004,0.01,9.787,-0.01,-0.01,-0.01
1778774357.6964715,1.0,0.03,-0.08,-0.001,0.007,9.787,-0.01,-0.01,-0.01
1778774357.7064376,1.0,0.03,-0.08,0.0,0.007,9.791,-0.01,-0.01,-0.01
1778774357.7164187,1.0,0.03,-0.08,-0.004,0.01,9.788,-0.01,-0.01,-0.01
1778774357.7255807,1.0,0.03,-0.08,-0.006,0.007,9.792,-0.01,0.0,-0.01
1778774357.7355971,1.0,0.03,-0.08,-0.007,0.01,9.794,-0.01,-0.01,-0.01
1778774357.7456012,1.0,0.03,-0.08,-0.007,0.01,9.797,-0.01,-0.01,-0.01
1778774357.7555976,1.0,0.03,-0.08,-0.005,0.01,9.799,-0.01,-0.01,-0.01
1778774357.7656033,1.01,0.03,-0.08,0.001,0.01,9.796,-0.01,-0.01,-0.01
1778774357.776439,1.01,0.03,-0.08,0.002,0.006,9.787,-0.01,-0.01,-0.01
1778774357.7861857,1.01,0.03,-0.08,0.004,0.007,9.785,-0.01,-0.01,-0.01
1778774357.7955997,1.01,0.03,-0.08,0.001,0.006,9.779,-0.01,0.0,-0.01
1778774357.8056056,1.01,0.03,-0.08,0.001,0.007,9.776,-0.01,-0.01,-0.01
1778774357.8156028,1.01,0.03,-0.08,-0.004,0.001,9.78,-0.01,-0.01,-0.01
1778774357.8256192,1.01,0.03,-0.08,-0.004,0.001,9.785,-0.01,-0.01,-0.01
1778774357.8356073,1.01,0.03,-0.08,-0.004,0.005,9.788,-0.01,-0.01,-0.01
1778774357.845672,1.01,0.03,-0.08,-0.004,0.0,9.787,-0.01,-0.01,-0.01
1778774357.855582,1.01,0.03,-0.08,-0.005,-0.002,9.792,-0.01,-0.01,-0.01
1778774357.8655949,1.01,0.03,-0.08,-0.005,0.004,9.796,-0.01,-0.01,-0.01
1778774357.8755646,1.01,0.03,-0.08,-0.002,0.001,9.792,-0.01,-0.01,-0.01
1778774357.885573,1.01,0.03,-0.08,0.0,0.001,9.792,-0.01,-0.01,-0.01
1778774357.8956318,1.01,0.03,-0.08,0.004,0.002,9.797,-0.01,0.0,-0.01
1778774357.9056225,1.02,0.03,-0.08,0.001,0.005,9.798,-0.01,-0.01,-0.01
1778774357.9155889,1.02,0.03,-0.08,0.002,0.006,9.799,-0.01,-0.01,-0.01
1778774357.9255946,1.02,0.03,-0.08,0.002,0.001,9.797,-0.01,-0.01,-0.01
1778774357.9355562,1.02,0.03,-0.08,-0.002,0.0,9.797,-0.01,-0.01,-0.01
1778774357.9455533,1.02,0.03,-0.08,-0.005,0.001,9.794,-0.01,-0.01,-0.01
1778774357.9555347,1.03,0.03,-0.08,-0.001,0.004,9.794,-0.01,-0.01,-0.01
1778774357.9655278,1.03,0.03,-0.08,0.001,0.002,9.792,-0.01,-0.01,-0.01
1778774357.975528,1.03,0.03,-0.08,0.004,0.002,9.786,-0.01,-0.01,-0.01
1778774357.9858444,1.03,0.03,-0.08,0.002,0.005,9.787,-0.01,-0.01,-0.01
1778774357.995547,1.03,0.03,-0.08,0.0,0.007,9.786,-0.01,-0.01,-0.01
1778774358.0055401,1.03,0.03,-0.08,-0.001,0.004,9.788,-0.01,-0.01,-0.01
1778774358.0155325,1.04,0.03,-0.08,0.0,0.005,9.793,-0.01,-0.01,-0.01
1778774358.0255258,1.04,0.03,-0.08,0.002,0.005,9.798,-0.01,-0.01,-0.01
1778774358.0355225,1.04,0.03,-0.08,0.002,0.001,9.794,-0.01,-0.01,-0.01
1778774358.045495,1.04,0.03,-0.08,0.0,0.0,9.792,-0.01,-0.01,-0.01
1778774358.055529,1.04,0.03,-0.08,-0.004,-0.002,9.79,-0.01,-0.01,0.0
1778774358.0655234,1.04,0.03,-0.08,0.001,-0.001,9.794,-0.01,-0.01,-0.01
1778774358.0755246,1.04,0.03,-0.08,0.006,-0.004,9.788,-0.01,-0.01,-0.01
1778774358.0854943,1.04,0.03,-0.09,0.008,0.002,9.792,-0.01,-0.01,-0.01
1778774358.095504,1.04,0.03,-0.09,0.01,0.007,9.793,-0.01,-0.01,-0.01
1778774358.1055107,1.04,0.03,-0.08,0.006,0.006,9.794,-0.01,-0.01,-0.01
1778774358.1155035,1.04,0.03,-0.08,0.002,0.006,9.792,-0.01,-0.01,-0.01
1778774358.1255074,1.04,0.03,-0.08,0.0,0.007,9.792,-0.01,-0.01,-0.01
1778774358.1354914,1.04,0.03,-0.08,0.002,0.01,9.79,-0.01,0.0,-0.01
1778774358.145511,1.04,0.03,-0.08,0.005,0.005,9.792,-0.01,0.0,-0.01
1778774358.155514,1.05,0.03,-0.09,0.011,0.002,9.797,-0.01,-0.01,-0.01
1778774358.1655083,1.05,0.04,-0.09,0.011,0.002,9.792,-0.01,-0.01,-0.01
1778774358.175502,1.05,0.04,-0.08,0.008,0.006,9.786,-0.01,-0.01,-0.01
1778774358.185491,1.05,0.04,-0.09,0.011,0.0,9.787,-0.01,-0.01,-0.01
1778774358.1954677,1.05,0.04,-0.08,0.007,0.005,9.787,-0.01,-0.01,-0.01
1778774358.2055075,1.05,0.04,-0.08,0.004,0.007,9.788,-0.01,-0.01,-0.01
1778774358.2155013,1.05,0.04,-0.08,0.002,0.0,9.787,-0.01,-0.01,-0.01
1778774358.2255075,1.05,0.04,-0.09,-0.001,0.0,9.79,-0.01,-0.01,-0.01
1778774358.2354875,1.05,0.04,-0.09,-0.005,0.0,9.786,-0.01,-0.01,-0.01
1778774358.2454743,1.06,0.03,-0.09,-0.002,0.0,9.786,-0.01,-0.01,-0.01
1778774358.255505,1.06,0.03,-0.09,-0.001,0.005,9.791,-0.01,0.0,-0.01
1778774358.265506,1.06,0.03,-0.09,0.0,0.001,9.796,-0.01,-0.01,-0.01
1778774358.2754705,1.06,0.03,-0.09,0.0,0.005,9.792,-0.01,-0.01,-0.01
1778774358.2854748,1.06,0.03,-0.08,0.005,0.008,9.785,-0.01,-0.01,-0.01
1778774358.2954538,1.06,0.04,-0.08,0.004,0.012,9.782,-0.01,-0.01,-0.01
1778774358.305458,1.06,0.04,-0.08,0.002,0.011,9.776,-0.01,-0.01,-0.01
1778774358.3154385,1.06,0.04,-0.08,0.01,0.011,9.778,-0.01,-0.01,-0.01
1778774358.3254404,1.06,0.04,-0.08,0.005,0.012,9.779,-0.01,-0.01,-0.01
1778774358.3354392,1.06,0.04,-0.08,0.006,0.013,9.784,-0.01,-0.01,-0.01
1778774358.345438,1.06,0.04,-0.08,0.008,0.014,9.788,-0.01,-0.01,-0.01
1778774358.3546178,1.06,0.04,-0.08,0.007,0.008,9.786,-0.01,-0.01,-0.01
1778774358.3654656,1.06,0.04,-0.08,0.007,0.007,9.786,-0.01,-0.01,0.0
1778774358.375444,1.07,0.04,-0.08,0.001,0.008,9.788,-0.01,-0.01,-0.01
1778774358.385427,1.07,0.04,-0.08,-0.002,0.007,9.788,-0.01,-0.01,-0.01
1778774358.3954573,1.07,0.04,-0.08,-0.007,0.004,9.786,-0.01,0.0,-0.01
1778774358.4054577,1.07,0.04,-0.08,-0.006,0.001,9.787,-0.01,-0.01,-0.01
1778774358.4154441,1.07,0.04,-0.08,-0.007,0.004,9.787,-0.01,-0.01,-0.01
1778774358.425442,1.07,0.04,-0.08,-0.012,0.005,9.793,-0.01,-0.01,-0.01
1778774358.435426,1.07,0.04,-0.08,-0.012,0.011,9.794,-0.01,-0.01,-0.01
1778774358.4454262,1.07,0.04,-0.08,-0.01,0.013,9.798,-0.01,-0.01,-0.01
1778774358.454602,1.07,0.04,-0.08,-0.001,0.012,9.796,-0.01,-0.01,0.0
1778774358.4646244,1.08,0.04,-0.08,0.0,0.01,9.799,-0.01,-0.01,-0.01
1778774358.4754481,1.08,0.04,-0.08,0.002,0.008,9.799,-0.01,-0.01,-0.01
1778774358.484621,1.08,0.04,-0.08,0.0,0.004,9.799,-0.01,-0.01,-0.01
1778774358.494619,1.08,0.04,-0.08,-0.002,0.004,9.797,-0.01,-0.01,-0.01
1778774358.5045984,1.08,0.04,-0.08,-0.002,0.001,9.79,-0.01,-0.01,-0.01
1778774358.5146015,1.08,0.04,-0.08,0.0,0.0,9.785,-0.01,-0.01,-0.01
1778774358.5245974,1.08,0.04,-0.08,-0.005,0.0,9.781,-0.01,-0.01,-0.01
1778774358.534617,1.08,0.04,-0.08,-0.001,0.0,9.784,-0.01,-0.01,-0.01
1778774358.544581,1.08,0.04,-0.08,0.0,0.0,9.787,-0.01,0.0,0.0
1778774358.5545676,1.08,0.04,-0.08,-0.005,0.0,9.788,-0.01,-0.01,-0.01
1778774358.5646238,1.08,0.04,-0.08,-0.002,-0.001,9.791,-0.01,-0.01,-0.01
1778774358.5745962,1.08,0.04,-0.08,-0.001,0.0,9.788,-0.01,-0.01,-0.01
1778774358.5845923,1.08,0.04,-0.08,-0.006,0.0,9.79,-0.01,-0.01,-0.01
1778774358.594607,1.08,0.04,-0.08,-0.006,0.004,9.793,-0.01,-0.01,-0.01
1778774358.604573,1.09,0.04,-0.08,0.0,0.005,9.797,-0.01,-0.01,-0.01
1778774358.6145442,1.09,0.04,-0.08,0.004,0.008,9.797,-0.01,-0.01,-0.01
1778774358.6245775,1.09,0.04,-0.08,0.007,0.012,9.784,-0.01,-0.01,-0.01
1778774358.6345973,1.09,0.04,-0.08,0.005,0.01,9.781,-0.01,-0.01,-0.01
1778774358.6445942,1.09,0.04,-0.08,0.001,0.01,9.784,-0.01,-0.01,-0.01
1778774358.6545472,1.09,0.04,-0.08,-0.002,0.008,9.79,-0.01,-0.01,-0.01
1778774358.6645408,1.1,0.04,-0.08,-0.002,0.006,9.792,-0.01,-0.01,-0.01
1778774358.6749337,1.1,0.04,-0.08,-0.001,0.006,9.794,-0.01,-0.01,-0.01
1778774358.6845067,1.1,0.04,-0.08,0.0,0.01,9.791,-0.01,-0.01,-0.01
1778774358.6945403,1.1,0.04,-0.08,-0.002,0.011,9.791,-0.01,-0.01,0.0
1778774358.7045355,1.1,0.04,-0.08,0.0,0.013,9.792,-0.01,-0.01,-0.01
1778774358.7145228,1.1,0.04,-0.08,0.0,0.011,9.794,-0.01,-0.01,-0.01
1778774358.7244911,1.1,0.04,-0.08,0.0,0.012,9.79,-0.01,-0.01,-0.01
1778774358.7345362,1.1,0.04,-0.08,0.002,0.008,9.791,-0.01,-0.01,-0.01
1778774358.7445354,1.11,0.04,-0.08,0.002,0.005,9.787,-0.01,-0.01,-0.01
1778774358.7545207,1.11,0.04,-0.08,0.001,0.001,9.785,-0.01,-0.01,-0.01
1778774358.7645204,1.11,0.04,-0.08,0.0,0.0,9.786,-0.01,-0.01,-0.01
1778774358.774496,1.11,0.04,-0.08,0.0,0.001,9.792,-0.01,-0.01,-0.01
1778774358.7844903,1.11,0.04,-0.08,-0.004,0.006,9.793,-0.01,-0.01,-0.01
1778774358.7944965,1.11,0.04,-0.08,-0.004,0.004,9.794,-0.01,-0.01,-0.01
1778774358.8045077,1.11,0.04,-0.08,0.0,0.001,9.793,-0.01,-0.01,-0.01
1778774358.814541,1.11,0.04,-0.08,0.0,0.002,9.79,-0.01,-0.01,-0.01
1778774358.8244913,1.11,0.04,-0.08,0.0,0.001,9.79,-0.01,-0.01,-0.01
1778774358.8345065,1.11,0.04,-0.08,-0.002,-0.001,9.794,-0.01,-0.01,-0.01
1778774358.844502,1.11,0.04,-0.08,0.0,-0.002,9.793,-0.01,-0.01,-0.01
1778774358.8545022,1.11,0.04,-0.08,0.001,-0.005,9.791,-0.01,-0.01,-0.01
1778774358.864601,1.11,0.04,-0.08,0.002,-0.004,9.786,-0.01,-0.01,-0.01
1778774358.8745046,1.12,0.04,-0.08,0.004,0.0,9.779,-0.01,-0.01,-0.01
1778774358.884544,1.12,0.04,-0.08,0.005,0.001,9.779,-0.01,-0.01,-0.01
1778774358.8944948,1.12,0.04,-0.08,0.005,0.005,9.784,-0.01,-0.01,-0.01
1778774358.9045238,1.12,0.04,-0.08,-0.001,0.0,9.782,-0.01,-0.01,-0.01
1778774358.9145064,1.12,0.04,-0.08,-0.005,0.002,9.782,-0.01,-0.01,-0.01
1778774358.9245045,1.12,0.04,-0.08,-0.005,0.0,9.776,-0.01,-0.01,-0.01
1778774358.934508,1.12,0.04,-0.08,-0.006,0.0,9.779,-0.01,-0.01,-0.01
1778774358.9444842,1.12,0.04,-0.08,-0.006,0.0,9.778,-0.01,0.0,-0.01
1778774358.954457,1.13,0.04,-0.08,0.0,0.0,9.778,-0.01,-0.01,-0.01
1778774358.9645104,1.13,0.04,-0.08,0.005,0.0,9.785,-0.01,-0.01,-0.01
1778774358.9745402,1.13,0.04,-0.09,0.002,-0.001,9.787,-0.01,-0.01,-0.01
1778774358.9844902,1.13,0.04,-0.09,0.001,-0.007,9.791,-0.01,-0.01,-0.01
1778774358.9944751,1.13,0.04,-0.09,0.002,-0.007,9.788,-0.01,-0.01,-0.01
1778774359.0044587,1.13,0.04,-0.09,0.004,-0.001,9.79,-0.01,-0.01,-0.01
1778774359.0144405,1.13,0.04,-0.09,0.006,0.0,9.792,-0.01,-0.01,-0.01
1778774359.0250957,1.13,0.04,-0.09,0.007,0.0,9.787,-0.01,-0.01,-0.01
1778774359.034792,1.13,0.04,-0.09,0.008,0.0,9.791,-0.01,-0.01,-0.01
1778774359.0444753,1.13,0.04,-0.09,0.007,-0.001,9.788,-0.01,-0.01,-0.01
1778774359.0544558,1.13,0.04,-0.09,0.001,0.0,9.79,-0.01,-0.01,-0.01
1778774359.0644424,1.13,0.04,-0.09,0.002,0.002,9.793,-0.01,-0.01,-0.01
1778774359.0744636,1.13,0.04,-0.09,0.0,0.002,9.797,-0.01,-0.01,-0.01
1778774359.0849023,1.14,0.04,-0.09,0.0,0.002,9.79,-0.01,-0.01,-0.01
1778774359.094493,1.14,0.04,-0.09,-0.006,0.004,9.791,-0.01,-0.01,-0.01
1778774359.1044412,1.14,0.04,-0.09,-0.01,0.013,9.793,-0.01,0.0,-0.01
1778774359.114441,1.14,0.04,-0.09,-0.013,0.01,9.796,-0.01,-0.01,-0.01
1778774359.124443,1.14,0.04,-0.09,-0.011,0.008,9.794,-0.01,-0.01,-0.01
1778774359.1352804,1.14,0.04,-0.09,-0.01,0.01,9.796,-0.01,-0.01,-0.01
1778774359.145304,1.15,0.04,-0.09,-0.01,0.012,9.796,-0.01,-0.01,-0.01
1778774359.154425,1.15,0.04,-0.09,-0.012,0.014,9.797,-0.01,-0.01,-0.01
1778774359.1644244,1.15,0.04,-0.09,-0.011,0.012,9.798,-0.01,-0.01,-0.01
1778774359.1744227,1.15,0.04,-0.09,-0.007,0.01,9.794,-0.01,-0.01,-0.01
1778774359.1840816,1.15,0.04,-0.09,-0.007,0.006,9.794,-0.01,-0.01,-0.01
1778774359.1936228,1.15,0.04,-0.09,-0.004,0.005,9.798,-0.01,-0.01,-0.01
1778774359.203647,1.15,0.04,-0.09,-0.005,0.004,9.798,-0.01,-0.01,-0.01
1778774359.2136045,1.15,0.04,-0.09,-0.005,0.011,9.799,-0.01,-0.01,-0.01
1778774359.223604,1.15,0.04,-0.08,-0.008,0.01,9.8,-0.01,-0.01,-0.01
1778774359.2344368,1.15,0.04,-0.09,-0.004,0.01,9.793,-0.01,-0.01,-0.01
1778774359.2449055,1.15,0.04,-0.09,-0.004,0.007,9.786,-0.01,0.0,-0.01
1778774359.2541244,1.15,0.04,-0.09,-0.002,0.007,9.782,-0.01,-0.01,-0.01
1778774359.2636063,1.15,0.04,-0.08,0.0,0.006,9.785,-0.01,-0.01,-0.01
1778774359.2736084,1.16,0.04,-0.08,0.004,0.006,9.786,-0.01,-0.01,-0.01
1778774359.2836032,1.16,0.04,-0.08,0.005,0.002,9.787,-0.01,-0.01,-0.01
1778774359.293717,1.16,0.04,-0.08,0.005,0.0,9.787,-0.01,-0.01,0.0
1778774359.3036067,1.16,0.04,-0.09,0.001,-0.004,9.791,-0.01,-0.01,-0.01
1778774359.313583,1.16,0.04,-0.09,-0.002,0.002,9.791,-0.01,-0.01,-0.01
1778774359.3236048,1.16,0.04,-0.09,-0.002,0.006,9.792,-0.01,-0.01,-0.01
1778774359.3335834,1.16,0.04,-0.08,-0.004,0.012,9.792,-0.01,-0.01,-0.01
1778774359.343607,1.16,0.04,-0.08,-0.006,0.013,9.79,-0.01,-0.01,-0.01
1778774359.354376,1.17,0.04,-0.08,-0.002,0.007,9.788,-0.01,-0.01,-0.01
1778774359.3641772,1.17,0.04,-0.08,-0.004,0.005,9.788,-0.01,-0.01,-0.01
1778774359.3735683,1.17,0.04,-0.08,-0.004,0.006,9.786,-0.01,-0.01,-0.01
1778774359.3835623,1.17,0.04,-0.08,-0.005,0.004,9.792,-0.01,-0.01,-0.01
1778774359.3935878,1.17,0.04,-0.08,-0.005,0.006,9.797,-0.01,-0.01,-0.01
1778774359.4040701,1.18,0.04,-0.08,-0.008,0.011,9.798,-0.01,-0.01,-0.01
1778774359.4140677,1.18,0.04,-0.08,-0.01,0.008,9.787,-0.01,-0.01,-0.01
1778774359.4235249,1.18,0.04,-0.08,-0.007,0.011,9.781,-0.01,-0.01,-0.01
1778774359.4335334,1.18,0.04,-0.08,-0.004,0.008,9.775,-0.01,-0.01,-0.01
1778774359.4435234,1.18,0.04,-0.08,-0.005,0.004,9.779,-0.01,-0.01,-0.01
1778774359.4535837,1.18,0.04,-0.08,-0.008,0.002,9.786,-0.01,-0.01,-0.01
1778774359.4636686,1.18,0.03,-0.08,-0.004,0.002,9.788,-0.01,-0.01,-0.01
1778774359.4747598,1.18,0.04,-0.08,-0.004,0.001,9.788,-0.01,-0.01,-0.01
1778774359.4835243,1.18,0.04,-0.08,-0.004,0.005,9.785,-0.01,-0.01,-0.01
1778774359.4935505,1.18,0.04,-0.08,-0.002,0.006,9.78,-0.01,-0.01,-0.01
1778774359.5035212,1.18,0.04,-0.08,-0.005,0.005,9.781,-0.01,-0.01,-0.01
1778774359.5135288,1.18,0.04,-0.08,0.0,0.001,9.788,-0.01,-0.01,-0.01
1778774359.523523,1.18,0.04,-0.08,-0.001,0.006,9.791,-0.01,-0.01,-0.01
1778774359.5335243,1.18,0.04,-0.08,-0.002,0.007,9.788,-0.01,-0.01,-0.01
1778774359.5435529,1.18,0.04,-0.08,-0.004,0.008,9.787,-0.01,0.0,-0.01
1778774359.5535405,1.19,0.04,-0.08,0.0,0.005,9.79,-0.01,-0.01,-0.01
1778774359.5635426,1.19,0.04,-0.08,-0.006,0.001,9.781,-0.01,-0.01,-0.01
1778774359.5735307,1.19,0.04,-0.08,-0.005,0.0,9.775,-0.01,-0.01,-0.01
1778774359.583487,1.19,0.04,-0.08,0.0,-0.002,9.781,-0.01,-0.01,-0.01
1778774359.593536,1.19,0.04,-0.09,0.006,-0.004,9.787,-0.01,-0.01,-0.01
1778774359.6035113,1.2,0.04,-0.09,0.007,0.002,9.788,-0.01,-0.01,-0.01
1778774359.613527,1.2,0.04,-0.09,0.002,0.001,9.788,-0.01,-0.01,-0.01
1778774359.6234987,1.2,0.04,-0.09,0.001,-0.001,9.791,-0.01,-0.01,-0.01
1778774359.6335092,1.2,0.04,-0.09,0.005,-0.001,9.794,-0.01,-0.01,-0.01
1778774359.643531,1.2,0.04,-0.09,0.002,0.001,9.793,-0.01,-0.01,-0.01
1778774359.6535327,1.2,0.04,-0.09,0.002,0.0,9.794,-0.01,-0.01,-0.01
1778774359.6635125,1.2,0.04,-0.09,0.001,0.0,9.798,-0.01,-0.01,-0.01
1778774359.673496,1.2,0.04,-0.09,-0.001,0.004,9.79,-0.01,-0.01,0.0
1778774359.6835184,1.2,0.04,-0.09,0.0,0.008,9.784,-0.01,-0.01,-0.01
1778774359.6935182,1.2,0.04,-0.09,-0.001,0.006,9.778,-0.01,-0.01,-0.01
1778774359.703513,1.2,0.04,-0.09,-0.008,0.0,9.784,-0.01,-0.01,-0.01
1778774359.7134798,1.2,0.04,-0.09,-0.01,0.0,9.782,-0.01,-0.01,-0.01
1778774359.7234776,1.2,0.04,-0.09,-0.006,-0.004,9.785,-0.01,-0.01,-0.01
1778774359.7334657,1.2,0.04,-0.09,-0.008,-0.007,9.79,-0.01,-0.01,-0.01
1778774359.7434757,1.2,0.04,-0.09,-0.013,-0.004,9.794,-0.01,-0.01,-0.01
1778774359.7534654,1.21,0.04,-0.09,-0.008,-0.002,9.791,-0.01,-0.01,-0.01
1778774359.76351,1.21,0.04,-0.09,-0.006,0.0,9.784,-0.01,-0.01,-0.01
1778774359.773495,1.21,0.04,-0.09,-0.01,0.0,9.781,-0.01,-0.01,-0.01
1778774359.7834957,1.21,0.04,-0.09,-0.011,-0.001,9.779,-0.01,-0.01,-0.01
1778774359.793497,1.21,0.04,-0.09,-0.008,0.0,9.778,-0.01,-0.01,-0.01
1778774359.8034606,1.21,0.04,-0.09,-0.006,0.002,9.786,-0.01,-0.01,-0.01
1778774359.8134644,1.22,0.04,-0.09,-0.008,0.005,9.788,-0.01,-0.01,-0.01
1778774359.8234699,1.22,0.04,-0.09,-0.01,0.007,9.786,-0.01,-0.01,-0.01
1778774359.8334734,1.22,0.03,-0.09,-0.006,0.01,9.788,-0.01,-0.01,-0.01
1778774359.8434472,1.22,0.03,-0.09,-0.002,0.013,9.791,-0.01,-0.01,-0.01
1778774359.8534453,1.22,0.04,-0.09,-0.001,0.011,9.791,-0.01,-0.01,-0.01
1778774359.8634295,1.22,0.04,-0.09,0.0,0.011,9.787,-0.01,-0.01,-0.01
1778774359.872642,1.22,0.04,-0.09,-0.001,0.006,9.792,-0.01,-0.01,-0.01
1778774359.8826082,1.22,0.04,-0.09,-0.002,0.007,9.788,-0.01,-0.01,-0.01
1778774359.8934643,1.22,0.04,-0.09,0.0,0.001,9.793,-0.01,-0.01,-0.01
1778774359.9034631,1.22,0.04,-0.09,-0.001,0.001,9.785,-0.01,-0.01,-0.01
1778774359.9134498,1.22,0.04,-0.09,-0.001,0.005,9.781,-0.01,-0.01,-0.01
1778774359.9234447,1.22,0.04,-0.09,-0.001,0.005,9.782,-0.01,-0.01,-0.01
1778774359.933432,1.22,0.04,-0.09,-0.002,0.007,9.788,-0.01,-0.01,-0.01
1778774359.942623,1.22,0.04,-0.09,-0.001,0.005,9.781,-0.01,-0.01,-0.01
1778774359.9526083,1.22,0.04,-0.09,-0.004,0.001,9.785,-0.01,-0.01,-0.01
1778774359.962607,1.22,0.04,-0.09,-0.005,0.002,9.785,-0.01,-0.01,-0.01
1778774359.9726086,1.22,0.04,-0.09,-0.006,0.002,9.79,-0.01,-0.01,-0.01
1778774359.982616,1.22,0.04,-0.09,-0.006,0.005,9.793,-0.01,-0.01,-0.01
1778774359.9926097,1.23,0.03,-0.09,-0.005,0.004,9.788,-0.01,-0.01,-0.01
1778774360.003602,1.23,0.03,-0.09,-0.007,0.002,9.793,-0.01,-0.01,-0.01
1778774360.013432,1.23,0.03,-0.09,-0.008,0.006,9.792,-0.01,-0.01,-0.01
1778774360.0226076,1.23,0.03,-0.09,-0.011,0.005,9.797,-0.01,-0.01,0.0
1778774360.0326107,1.23,0.03,-0.09,-0.007,0.001,9.794,-0.01,-0.01,-0.01
1778774360.0426104,1.23,0.03,-0.09,-0.002,0.006,9.798,-0.01,-0.01,-0.01
1778774360.0526137,1.23,0.03,-0.09,-0.004,0.01,9.802,-0.01,-0.01,-0.01
1778774360.0626056,1.23,0.03,-0.09,-0.004,0.012,9.803,-0.01,-0.01,-0.01
1778774360.0725763,1.24,0.03,-0.09,0.0,0.016,9.8,-0.01,-0.01,-0.01
1778774360.082543,1.24,0.03,-0.09,0.0,0.012,9.799,-0.01,-0.01,-0.01
1778774360.0935957,1.24,0.03,-0.09,-0.002,0.008,9.8,-0.01,-0.01,-0.01
1778774360.1034474,1.24,0.04,-0.09,-0.001,0.01,9.8,-0.01,-0.01,-0.01
1778774360.1125572,1.24,0.04,-0.09,-0.005,0.012,9.8,-0.01,-0.01,-0.01
1778774360.1225731,1.24,0.03,-0.09,-0.004,0.012,9.802,-0.01,-0.01,-0.01
1778774360.1325576,1.24,0.03,-0.09,-0.005,0.008,9.799,-0.01,-0.01,-0.01
1778774360.1425622,1.25,0.03,-0.09,-0.005,0.01,9.797,-0.01,-0.01,-0.01
1778774360.1525428,1.25,0.03,-0.09,-0.002,0.011,9.791,-0.01,-0.01,-0.01
1778774360.1625605,1.25,0.04,-0.08,-0.005,0.012,9.781,-0.01,-0.01,-0.01
1778774360.1725404,1.25,0.04,-0.08,-0.004,0.013,9.784,-0.01,-0.01,-0.01
1778774360.1825407,1.25,0.03,-0.08,-0.006,0.013,9.785,-0.01,-0.01,-0.01
1778774360.1928244,1.25,0.03,-0.08,-0.004,0.013,9.787,-0.01,-0.01,-0.01
1778774360.2030482,1.25,0.03,-0.08,-0.004,0.014,9.791,-0.01,0.0,-0.01
1778774360.2125735,1.25,0.03,-0.08,-0.001,0.011,9.796,-0.01,-0.01,-0.01
1778774360.2225552,1.25,0.03,-0.08,-0.002,0.007,9.798,-0.01,-0.01,-0.01
1778774360.2325382,1.25,0.03,-0.08,-0.001,0.008,9.799,-0.01,-0.01,-0.01
1778774360.2425578,1.25,0.03,-0.08,-0.004,0.008,9.798,-0.01,-0.01,-0.01
1778774360.252542,1.25,0.03,-0.08,0.0,0.005,9.8,-0.01,-0.01,-0.01
1778774360.2625406,1.25,0.03,-0.08,0.0,0.002,9.796,-0.01,-0.01,-0.01
1778774360.272513,1.25,0.04,-0.08,-0.001,0.002,9.786,-0.01,-0.01,-0.01
1778774360.2825084,1.25,0.03,-0.08,-0.002,0.004,9.784,-0.01,-0.01,-0.01
1778774360.292539,1.25,0.03,-0.08,-0.008,0.001,9.786,-0.01,-0.01,-0.01
1778774360.3029385,1.26,0.03,-0.09,-0.011,0.005,9.79,-0.01,-0.01,-0.01
1778774360.3131628,1.26,0.03,-0.09,-0.008,0.007,9.787,-0.01,-0.01,-0.01
1778774360.3230808,1.26,0.03,-0.09,-0.004,0.007,9.79,-0.01,-0.01,-0.01
1778774360.3325114,1.26,0.03,-0.09,-0.001,0.01,9.793,-0.01,-0.01,-0.01
1778774360.3425872,1.26,0.03,-0.09,-0.004,0.01,9.788,-0.01,-0.01,-0.01
1778774360.3525584,1.26,0.04,-0.09,-0.005,0.011,9.793,-0.01,-0.01,-0.01
1778774360.3625069,1.27,0.04,-0.09,0.0,0.005,9.796,-0.01,-0.01,-0.01
1778774360.3725245,1.27,0.04,-0.09,-0.002,0.004,9.799,-0.01,-0.01,-0.01
1778774360.3825154,1.27,0.04,-0.09,-0.001,0.002,9.798,-0.01,-0.01,-0.01
1778774360.3924947,1.27,0.04,-0.09,0.0,0.004,9.793,-0.01,-0.01,-0.01
1778774360.402507,1.27,0.04,-0.09,-0.004,0.006,9.797,-0.01,-0.01,-0.01
1778774360.4125013,1.27,0.04,-0.09,-0.005,0.008,9.792,-0.01,-0.01,-0.01
1778774360.4226723,1.27,0.04,-0.09,-0.005,0.01,9.796,-0.01,-0.01,-0.01
1778774360.4330678,1.27,0.04,-0.09,-0.005,0.006,9.798,-0.01,-0.01,-0.01
1778774360.4429984,1.27,0.04,-0.09,-0.005,0.005,9.797,-0.01,-0.01,-0.01
1778774360.4525414,1.27,0.04,-0.09,-0.004,0.006,9.799,-0.01,-0.01,-0.01
1778774360.4625142,1.27,0.04,-0.09,-0.004,0.005,9.8,-0.01,-0.01,-0.01
1778774360.4725142,1.27,0.04,-0.09,-0.004,0.005,9.798,-0.01,-0.01,-0.01
1778774360.482493,1.27,0.04,-0.09,-0.001,0.01,9.8,-0.01,-0.01,-0.01
1778774360.4924924,1.27,0.04,-0.09,-0.008,0.011,9.8,-0.01,-0.01,-0.01
1778774360.5024765,1.28,0.04,-0.09,-0.007,0.01,9.787,-0.01,-0.01,-0.01
1778774360.512478,1.28,0.04,-0.09,-0.006,0.011,9.784,-0.01,-0.01,-0.01
1778774360.5224793,1.28,0.04,-0.08,-0.007,0.01,9.79,-0.01,-0.01,-0.01
1778774360.5324616,1.28,0.04,-0.09,-0.002,0.006,9.794,-0.01,-0.01,-0.01
1778774360.542442,1.28,0.04,-0.09,-0.002,0.004,9.796,-0.01,-0.01,-0.01
1778774360.552471,1.28,0.04,-0.09,0.0,0.006,9.794,-0.01,0.0,-0.01
1778774360.5624785,1.29,0.04,-0.09,-0.002,0.008,9.798,-0.01,-0.01,-0.01
1778774360.5724585,1.29,0.04,-0.09,-0.002,0.012,9.794,-0.01,-0.01,-0.01
1778774360.5824606,1.29,0.04,-0.09,-0.001,0.012,9.797,-0.01,-0.01,-0.01
1778774360.5924423,1.29,0.04,-0.09,0.0,0.006,9.793,-0.01,0.0,-0.01
1778774360.602445,1.29,0.04,-0.09,-0.001,0.006,9.785,-0.01,-0.01,-0.01
1778774360.6116316,1.29,0.04,-0.09,-0.004,0.006,9.782,-0.01,-0.01,-0.01
1778774360.6220224,1.29,0.04,-0.08,-0.007,0.006,9.79,-0.01,-0.01,-0.01
1778774360.632461,1.29,0.04,-0.09,-0.008,0.006,9.785,-0.01,-0.01,-0.01
1778774360.6424608,1.29,0.04,-0.09,-0.006,0.007,9.787,-0.01,-0.01,-0.01
1778774360.6524446,1.29,0.04,-0.09,-0.006,0.0,9.791,-0.01,-0.01,-0.01
1778774360.6624305,1.29,0.04,-0.09,-0.006,0.0,9.79,-0.01,-0.01,-0.01
1778774360.6724284,1.29,0.04,-0.09,-0.007,0.001,9.794,-0.01,-0.01,-0.01
1778774360.6816256,1.29,0.04,-0.09,-0.005,0.004,9.791,-0.01,-0.01,-0.01
1778774360.6916065,1.29,0.04,-0.09,0.0,0.0,9.791,-0.01,-0.01,-0.01
1778774360.7016094,1.3,0.04,-0.09,-0.002,-0.001,9.793,-0.01,-0.01,-0.01
1778774360.7116048,1.3,0.04,-0.09,0.002,0.0,9.797,-0.01,-0.01,-0.01
1778774360.722431,1.3,0.04,-0.09,0.0,0.001,9.8,-0.01,-0.01,-0.01
1778774360.731608,1.3,0.04,-0.09,0.0,0.0,9.8,-0.01,-0.01,-0.01
1778774360.7416148,1.3,0.04,-0.09,-0.002,0.0,9.798,-0.01,0.0,0.0
1778774360.7515988,1.3,0.04,-0.09,-0.004,0.0,9.799,-0.01,-0.01,-0.01
1778774360.7615855,1.3,0.04,-0.09,-0.005,0.0,9.796,-0.01,-0.01,-0.01
1778774360.7716048,1.3,0.04,-0.09,-0.011,0.005,9.786,-0.01,-0.01,-0.01
1778774360.781584,1.3,0.04,-0.09,-0.01,0.002,9.786,-0.01,-0.01,-0.01
1778774360.7916028,1.3,0.04,-0.09,-0.011,0.002,9.788,-0.01,-0.01,-0.01
1778774360.8016102,1.31,0.04,-0.09,-0.011,0.002,9.79,-0.01,-0.01,-0.01
1778774360.8116016,1.31,0.04,-0.09,-0.008,0.01,9.794,-0.01,-0.01,-0.01
1778774360.821605,1.31,0.04,-0.09,-0.01,0.007,9.791,-0.01,-0.01,-0.01
1778774360.8316,1.31,0.04,-0.09,-0.007,0.006,9.785,-0.01,-0.01,-0.01
1778774360.8415883,1.31,0.04,-0.09,-0.007,0.012,9.787,-0.01,-0.01,-0.01
1778774360.8516057,1.31,0.03,-0.09,-0.002,0.012,9.792,-0.01,-0.01,-0.01
1778774360.8615904,1.32,0.04,-0.09,-0.002,0.01,9.785,-0.01,-0.01,-0.01
1778774360.8715687,1.32,0.03,-0.09,-0.005,0.001,9.792,-0.01,-0.01,-0.01
1778774360.88156,1.32,0.03,-0.09,-0.004,0.0,9.793,-0.01,0.0,-0.01
1778774360.8915548,1.32,0.03,-0.09,0.0,0.0,9.792,-0.01,-0.01,-0.01
1778774360.9015594,1.32,0.03,-0.09,-0.005,0.0,9.793,-0.01,-0.01,-0.01
1778774360.911543,1.32,0.03,-0.09,0.0,0.004,9.792,-0.01,-0.01,-0.01
1778774360.9215772,1.32,0.03,-0.09,0.004,0.008,9.792,-0.01,-0.01,-0.01
1778774360.931971,1.32,0.03,-0.09,0.001,0.007,9.794,-0.01,0.0,-0.01
1778774360.942309,1.32,0.03,-0.09,0.0,0.007,9.798,-0.01,-0.01,-0.01
1778774360.9515252,1.32,0.03,-0.09,-0.002,0.01,9.797,-0.01,-0.01,-0.01
1778774360.9615772,1.32,0.03,-0.09,-0.001,0.007,9.799,-0.01,-0.01,-0.01
1778774360.971563,1.32,0.03,-0.09,0.0,0.005,9.794,-0.01,-0.01,-0.01
1778774360.9815333,1.32,0.03,-0.09,0.002,0.006,9.794,-0.01,-0.01,-0.01
1778774360.9915235,1.32,0.03,-0.09,0.0,0.01,9.787,-0.01,0.0,-0.01
1778774361.0015023,1.32,0.03,-0.09,0.001,0.008,9.785,-0.01,-0.01,-0.01
1778774361.011555,1.33,0.03,-0.09,0.004,0.005,9.78,-0.01,-0.01,-0.01
1778774361.021542,1.33,0.04,-0.09,0.007,0.001,9.775,-0.01,-0.01,-0.01
1778774361.0316038,1.33,0.04,-0.09,0.005,0.0,9.779,-0.01,-0.01,-0.01
1778774361.0415514,1.33,0.04,-0.09,0.001,0.0,9.787,-0.01,-0.01,-0.01
1778774361.0519845,1.33,0.04,-0.09,0.0,0.0,9.791,-0.01,-0.01,-0.01
1778774361.0619009,1.33,0.04,-0.09,0.0,0.0,9.796,-0.01,-0.01,-0.01
1778774361.0716183,1.34,0.04,-0.09,-0.001,-0.002,9.799,-0.01,-0.01,-0.01
1778774361.0815203,1.34,0.04,-0.09,-0.005,-0.001,9.8,-0.01,-0.01,-0.01
1778774361.0915127,1.34,0.04,-0.09,-0.001,0.004,9.791,-0.01,-0.01,-0.01
1778774361.1020663,1.34,0.04,-0.09,-0.004,0.001,9.788,-0.01,-0.01,-0.01
1778774361.1119819,1.34,0.04,-0.09,-0.002,-0.001,9.791,-0.01,-0.01,-0.01
1778774361.121518,1.34,0.03,-0.09,-0.007,0.0,9.796,-0.01,-0.01,-0.01
1778774361.1315098,1.34,0.03,-0.09,-0.006,-0.001,9.797,-0.01,-0.01,-0.01
1778774361.1415136,1.34,0.03,-0.09,-0.005,0.002,9.798,-0.01,-0.01,-0.01
1778774361.1520007,1.34,0.03,-0.09,-0.007,0.007,9.798,-0.01,-0.01,-0.01
1778774361.1615202,1.34,0.03,-0.09,-0.007,0.01,9.794,-0.01,-0.01,-0.01
1778774361.1721504,1.34,0.03,-0.09,-0.01,0.011,9.793,-0.01,-0.01,-0.01
1778774361.1815295,1.34,0.03,-0.09,-0.005,0.006,9.787,-0.01,-0.01,-0.01
1778774361.1915123,1.34,0.03,-0.09,-0.008,0.008,9.784,-0.01,-0.01,-0.01
1778774361.2015142,1.35,0.03,-0.09,-0.008,0.011,9.79,-0.01,-0.01,-0.01
1778774361.2115169,1.35,0.03,-0.09,-0.007,0.012,9.794,-0.01,-0.01,-0.01
1778774361.221503,1.35,0.03,-0.09,-0.002,0.008,9.798,-0.01,-0.01,-0.01
1778774361.2314665,1.35,0.03,-0.09,-0.001,0.01,9.794,-0.01,0.0,-0.01
1778774361.2414691,1.35,0.03,-0.09,-0.006,0.001,9.797,-0.01,-0.01,-0.01
1778774361.2514784,1.35,0.03,-0.09,-0.002,-0.002,9.799,-0.01,-0.01,-0.01
1778774361.261481,1.35,0.03,-0.09,-0.001,0.0,9.798,-0.01,-0.01,-0.01
1778774361.271442,1.35,0.03,-0.09,-0.008,-0.002,9.798,-0.01,-0.01,-0.01
1778774361.281448,1.36,0.03,-0.09,-0.008,-0.001,9.798,-0.01,-0.01,-0.01
1778774361.2914612,1.36,0.03,-0.09,-0.002,0.0,9.798,-0.01,-0.01,-0.01
1778774361.3014548,1.36,0.03,-0.09,-0.007,0.002,9.791,-0.01,-0.01,-0.01
1778774361.311446,1.36,0.03,-0.09,-0.006,0.004,9.792,-0.01,-0.01,-0.01
1778774361.3214529,1.36,0.03,-0.09,-0.004,0.007,9.792,-0.01,-0.01,0.0
1778774361.331471,1.36,0.03,-0.09,-0.002,0.002,9.788,-0.01,-0.01,-0.01
1778774361.3406315,1.36,0.03,-0.09,0.001,0.001,9.788,-0.01,-0.01,-0.01
1778774361.350629,1.36,0.03,-0.09,0.004,0.0,9.786,-0.01,-0.01,-0.01
1778774361.3615005,1.36,0.03,-0.09,0.006,0.001,9.792,-0.01,-0.01,-0.01
1778774361.3714602,1.36,0.03,-0.09,0.005,0.0,9.791,-0.01,-0.01,-0.01
1778774361.3814483,1.36,0.03,-0.09,0.005,0.002,9.79,-0.01,0.0,-0.01
1778774361.3914263,1.36,0.03,-0.09,0.001,0.005,9.793,-0.01,-0.01,-0.01
1778774361.4006426,1.36,0.03,-0.09,0.0,0.006,9.791,-0.01,-0.01,-0.01
1778774361.4106069,1.36,0.03,-0.09,0.0,0.002,9.793,-0.01,-0.01,-0.01
1778774361.420605,1.36,0.03,-0.1,0.001,0.001,9.797,-0.01,-0.01,-0.01
1778774361.430607,1.36,0.03,-0.1,0.004,0.002,9.788,-0.01,-0.01,-0.01
1778774361.4406106,1.36,0.03,-0.1,0.005,0.005,9.784,-0.01,-0.01,-0.01
1778774361.4519053,1.37,0.04,-0.1,0.001,0.008,9.787,-0.01,-0.01,-0.01
1778774361.4614456,1.37,0.04,-0.1,0.0,0.006,9.788,-0.01,-0.01,-0.01
1778774361.4714444,1.37,0.03,-0.1,-0.002,0.006,9.784,-0.01,-0.01,-0.01
1778774361.4814353,1.37,0.03,-0.1,0.004,0.008,9.776,-0.01,-0.01,-0.01
1778774361.4906156,1.37,0.04,-0.09,0.006,0.008,9.778,-0.01,-0.01,-0.01
1778774361.5006113,1.37,0.04,-0.09,0.006,0.01,9.776,-0.01,-0.01,-0.01
1778774361.5106149,1.38,0.04,-0.09,0.004,0.006,9.778,-0.01,-0.01,-0.01
1778774361.5205905,1.38,0.04,-0.09,0.0,0.01,9.784,-0.01,-0.01,-0.01
1778774361.5305614,1.38,0.04,-0.09,0.001,0.011,9.787,-0.01,-0.01,-0.01
1778774361.540585,1.38,0.04,-0.09,0.0,0.006,9.792,-0.01,-0.01,-0.01
1778774361.5505867,1.38,0.04,-0.09,0.002,0.011,9.79,-0.01,-0.01,-0.01
1778774361.5606081,1.38,0.04,-0.09,0.004,0.012,9.794,-0.01,-0.01,-0.01
1778774361.5705867,1.39,0.04,-0.09,0.006,0.012,9.79,-0.01,-0.01,-0.01
1778774361.5805764,1.39,0.04,-0.09,0.001,0.012,9.792,-0.01,-0.01,-0.01
1778774361.5905795,1.39,0.04,-0.09,-0.001,0.011,9.786,-0.01,-0.01,-0.01
1778774361.6005633,1.39,0.04,-0.09,0.0,0.01,9.788,-0.01,-0.01,-0.01
1778774361.6105986,1.39,0.04,-0.09,0.0,0.007,9.793,-0.01,0.0,-0.01
1778774361.6205683,1.39,0.04,-0.09,-0.001,0.006,9.791,-0.01,-0.01,-0.01
1778774361.630543,1.39,0.04,-0.09,-0.01,0.006,9.791,-0.01,-0.01,-0.01
1778774361.6405568,1.39,0.04,-0.09,-0.008,0.005,9.786,-0.01,-0.01,-0.01
1778774361.6505451,1.39,0.04,-0.09,-0.005,0.004,9.79,-0.01,-0.01,-0.01
1778774361.6605577,1.39,0.04,-0.09,-0.005,0.008,9.793,-0.01,-0.01,-0.01
1778774361.671028,1.39,0.04,-0.09,-0.004,0.006,9.792,-0.01,-0.01,-0.01
1778774361.6805449,1.39,0.04,-0.09,-0.005,0.011,9.786,-0.01,-0.01,-0.01
1778774361.690523,1.39,0.04,-0.09,-0.004,0.011,9.788,-0.01,-0.01,-0.01
1778774361.700524,1.39,0.04,-0.09,0.0,0.012,9.791,-0.01,-0.01,-0.01
1778774361.7104976,1.4,0.04,-0.09,0.001,0.008,9.791,-0.01,-0.01,-0.01
1778774361.720532,1.4,0.04,-0.09,0.0,0.002,9.787,-0.01,-0.01,-0.01
1778774361.730533,1.4,0.04,-0.09,-0.001,0.004,9.784,-0.01,-0.01,-0.01
1778774361.7406585,1.4,0.04,-0.09,-0.005,0.007,9.779,-0.01,-0.01,-0.01
1778774361.7505283,1.4,0.04,-0.09,-0.001,0.007,9.785,-0.01,-0.01,-0.01
1778774361.7605298,1.4,0.04,-0.09,0.0,0.006,9.788,-0.01,-0.01,-0.01
1778774361.7705207,1.4,0.04,-0.09,0.0,0.01,9.794,-0.01,-0.01,-0.01
1778774361.7805233,1.41,0.04,-0.09,0.0,0.01,9.797,-0.01,-0.01,-0.01
1778774361.790503,1.41,0.04,-0.09,-0.002,0.008,9.785,-0.01,-0.01,-0.01
1778774361.800552,1.41,0.04,-0.09,-0.006,0.006,9.78,-0.01,-0.01,-0.01
1778774361.8105462,1.41,0.04,-0.09,-0.005,0.007,9.785,-0.01,-0.01,-0.01
1778774361.8205154,1.41,0.04,-0.09,-0.006,0.01,9.781,-0.01,0.0,-0.01
1778774361.8305097,1.41,0.04,-0.09,0.0,0.006,9.781,-0.01,-0.01,-0.01
1778774361.8410254,1.41,0.04,-0.09,0.002,0.004,9.781,-0.01,0.0,-0.01
1778774361.8510168,1.41,0.04,-0.09,0.002,0.002,9.782,0.0,-0.01,-0.01
1778774361.8605103,1.41,0.04,-0.09,0.004,0.004,9.78,-0.01,0.0,-0.01
1778774361.8704865,1.41,0.04,-0.09,0.002,0.0,9.774,-0.01,-0.01,-0.01
1778774361.880547,1.41,0.04,-0.09,0.004,0.002,9.779,-0.01,-0.01,0.0
1778774361.8909936,1.41,0.04,-0.09,0.002,0.0,9.778,-0.01,0.0,0.0
1778774361.9006114,1.41,0.04,-0.09,0.0,0.001,9.784,-0.01,0.0,0.0
1778774361.9112933,1.41,0.04,-0.09,0.0,-0.004,9.788,-0.01,0.0,-0.01
1778774361.9205232,1.41,0.04,-0.09,0.006,0.0,9.785,-0.01,0.0,-0.01
1778774361.9305024,1.41,0.04,-0.09,0.002,0.001,9.787,-0.01,-0.01,0.0
1778774361.9409378,1.41,0.04,-0.09,0.001,-0.001,9.785,-0.01,-0.01,-0.01
1778774361.9514453,1.41,0.04,-0.09,0.004,0.0,9.791,-0.01,0.0,0.0
1778774361.9609377,1.41,0.04,-0.09,0.002,0.0,9.779,-0.01,0.0,0.0
1778774361.9705155,1.41,0.04,-0.09,0.004,0.005,9.784,-0.01,0.0,-0.01
1778774361.980481,1.41,0.04,-0.09,0.006,0.007,9.787,-0.01,0.0,-0.01
1778774361.9904647,1.41,0.03,-0.09,0.006,0.007,9.79,-0.01,0.0,-0.01
1778774362.000581,1.41,0.03,-0.09,0.001,0.005,9.794,-0.01,0.0,-0.01
1778774362.0105362,1.41,0.03,-0.09,0.0,0.002,9.799,-0.01,0.0,-0.01
1778774362.0204554,1.41,0.03,-0.09,0.001,0.001,9.797,-0.01,-0.01,0.0
1778774362.0305114,1.41,0.03,-0.09,-0.002,-0.001,9.798,-0.01,0.0,0.0
1778774362.0404887,1.41,0.03,-0.09,-0.001,-0.005,9.794,-0.01,-0.01,-0.01
1778774362.0504892,1.41,0.03,-0.09,0.005,-0.001,9.799,-0.01,-0.01,-0.01
1778774362.060462,1.41,0.03,-0.09,0.001,-0.001,9.797,-0.01,-0.01,-0.01
1778774362.0704448,1.41,0.03,-0.09,0.0,0.0,9.794,-0.01,0.0,-0.01
1778774362.080433,1.41,0.03,-0.09,-0.008,0.004,9.79,-0.01,-0.01,-0.01
1778774362.090435,1.41,0.03,-0.08,-0.013,0.005,9.786,-0.01,-0.01,-0.01
1778774362.1004658,1.41,0.03,-0.08,-0.01,0.005,9.79,-0.01,0.0,0.0
1778774362.110451,1.41,0.03,-0.08,-0.012,0.004,9.786,-0.01,0.0,0.0
1778774362.1196444,1.41,0.03,-0.08,-0.011,0.004,9.792,-0.01,0.0,-0.01
1778774362.1296234,1.41,0.03,-0.08,-0.008,0.001,9.794,-0.01,-0.01,-0.01
1778774362.1404774,1.41,0.03,-0.08,-0.004,-0.002,9.794,0.0,-0.01,0.0
1778774362.149645,1.41,0.03,-0.09,-0.001,-0.002,9.787,-0.01,0.0,0.0
1778774362.1596353,1.41,0.03,-0.08,0.0,-0.001,9.787,-0.01,0.0,-0.01
1778774362.1704679,1.41,0.03,-0.08,-0.001,0.001,9.791,-0.01,0.0,0.0
1778774362.1804335,1.41,0.03,-0.08,0.0,0.001,9.788,-0.01,-0.01,-0.01
1778774362.18962,1.41,0.03,-0.08,-0.005,0.001,9.793,-0.01,-0.01,0.0
1778774362.199617,1.42,0.02,-0.08,-0.006,0.004,9.794,-0.01,0.0,-0.01
1778774362.2096238,1.42,0.02,-0.08,-0.005,0.006,9.792,-0.01,-0.01,-0.01
1778774362.2204459,1.42,0.02,-0.08,-0.001,0.007,9.79,-0.01,-0.01,0.0
1778774362.2295997,1.42,0.02,-0.08,0.0,0.012,9.787,-0.01,-0.01,-0.01
1778774362.2395942,1.42,0.02,-0.08,-0.001,0.012,9.784,-0.01,0.0,0.0
1778774362.2495968,1.42,0.02,-0.08,0.0,0.01,9.78,-0.01,0.0,0.0
1778774362.2600186,1.42,0.02,-0.08,0.0,0.006,9.784,-0.01,0.0,-0.01
1778774362.269589,1.42,0.02,-0.08,-0.002,0.004,9.79,-0.01,-0.01,-0.01
1778774362.279571,1.42,0.02,-0.08,-0.004,0.002,9.79,-0.01,-0.01,-0.01
1778774362.2895982,1.42,0.02,-0.08,-0.005,0.001,9.794,-0.01,-0.01,-0.01
1778774362.299579,1.42,0.02,-0.08,-0.006,0.001,9.794,-0.01,0.0,0.0
1778774362.3095832,1.42,0.02,-0.08,-0.006,0.004,9.79,-0.01,-0.01,0.0
1778774362.3195972,1.42,0.02,-0.08,-0.002,0.001,9.794,-0.01,0.0,-0.01
1778774362.3295584,1.42,0.02,-0.08,0.0,0.0,9.792,-0.01,0.0,-0.01
1778774362.3397489,1.42,0.02,-0.08,0.0,0.002,9.791,-0.01,0.0,0.0
1778774362.3495421,1.42,0.02,-0.08,0.0,0.004,9.794,-0.01,0.0,-0.01
1778774362.3595684,1.42,0.02,-0.08,0.0,0.006,9.793,-0.01,0.0,0.0
1778774362.369559,1.42,0.02,-0.08,0.002,0.006,9.791,-0.01,0.0,0.0
1778774362.379747,1.42,0.02,-0.08,0.0,0.006,9.796,-0.01,-0.01,0.0
1778774362.3895404,1.42,0.02,-0.08,0.0,0.006,9.793,-0.01,0.0,0.0
1778774362.399706,1.42,0.02,-0.08,0.004,0.011,9.79,-0.01,0.0,-0.01
1778774362.4096947,1.42,0.02,-0.08,0.0,0.01,9.793,-0.01,0.0,-0.01
1778774362.4197283,1.42,0.01,-0.08,0.0,0.002,9.792,-0.01,0.0,-0.01
1778774362.4296753,1.42,0.01,-0.08,0.0,0.0,9.791,0.0,0.0,-0.01
1778774362.4397166,1.42,0.01,-0.08,0.001,-0.001,9.793,-0.01,0.0,0.0
1778774362.4495416,1.42,0.01,-0.08,0.0,0.0,9.794,-0.01,-0.01,0.0
1778774362.4595497,1.42,0.01,-0.08,0.001,0.005,9.793,-0.01,-0.01,-0.01
1778774362.4697218,1.42,0.01,-0.08,0.0,0.0,9.794,-0.01,0.0,-0.01
1778774362.4795043,1.42,0.01,-0.08,0.002,-0.005,9.797,-0.01,0.0,-0.01
1778774362.4895391,1.42,0.01,-0.08,0.004,-0.011,9.798,0.0,0.0,-0.01
1778774362.499517,1.42,0.01,-0.08,0.0,-0.017,9.796,0.0,0.0,-0.01
1778774362.5095205,1.42,0.02,-0.08,0.0,-0.013,9.792,-0.01,0.0,0.0
1778774362.5195205,1.42,0.02,-0.08,0.0,-0.012,9.793,-0.01,0.0,-0.01
1778774362.529551,1.42,0.02,-0.08,0.0,-0.01,9.798,-0.01,0.0,-0.01
1778774362.539554,1.42,0.02,-0.08,0.0,-0.008,9.797,-0.01,0.0,-0.01
1778774362.5495105,1.42,0.02,-0.08,0.004,-0.007,9.792,-0.01,0.0,-0.01
1778774362.55988,1.42,0.02,-0.08,0.005,0.0,9.79,-0.01,-0.01,-0.01
1778774362.5696473,1.42,0.02,-0.08,0.007,0.002,9.784,-0.01,0.0,0.0
1778774362.5804117,1.42,0.02,-0.08,0.011,0.005,9.788,-0.01,0.0,0.0
1778774362.5896497,1.42,0.02,-0.08,0.01,-0.001,9.786,-0.01,0.0,0.0
1778774362.5995307,1.42,0.02,-0.08,0.01,-0.006,9.775,-0.01,-0.01,0.0
1778774362.609517,1.42,0.02,-0.08,0.007,-0.005,9.785,-0.01,0.0,0.0
1778774362.6195035,1.42,0.02,-0.08,0.007,-0.002,9.785,-0.01,0.0,-0.01
1778774362.6296077,1.42,0.02,-0.08,0.001,0.0,9.785,-0.01,0.0,-0.01
1778774362.6395679,1.42,0.02,-0.08,-0.001,-0.007,9.79,-0.01,0.0,-0.01
1778774362.6495152,1.42,0.02,-0.08,-0.005,-0.006,9.793,-0.01,0.0,-0.01
1778774362.6595104,1.42,0.02,-0.08,-0.001,-0.006,9.794,-0.01,0.0,0.0
1778774362.6695232,1.42,0.02,-0.08,-0.002,-0.006,9.794,-0.01,0.0,0.0
1778774362.6806598,1.42,0.02,-0.08,-0.005,-0.005,9.794,-0.01,0.0,0.0
1778774362.6894896,1.42,0.01,-0.08,-0.011,-0.001,9.791,-0.01,-0.01,0.0
1778774362.6995113,1.42,0.01,-0.08,-0.004,0.0,9.787,-0.01,-0.01,0.0
1778774362.7095025,1.42,0.01,-0.08,-0.004,0.001,9.79,-0.01,0.0,0.0
1778774362.7194624,1.42,0.01,-0.08,-0.006,0.0,9.792,-0.01,0.0,0.0
1778774362.7294874,1.42,0.01,-0.08,-0.007,0.0,9.79,-0.01,0.0,0.0
1778774362.7395701,1.42,0.01,-0.08,-0.008,0.001,9.785,-0.01,0.0,0.0
1778774362.7495203,1.42,0.01,-0.08,-0.01,0.001,9.787,-0.01,-0.01,-0.01
1778774362.759705,1.42,0.01,-0.08,-0.006,0.001,9.787,-0.01,0.0,-0.01
1778774362.769464,1.42,0.01,-0.08,-0.001,0.0,9.791,-0.01,0.0,0.0
1778774362.7797606,1.42,0.01,-0.08,0.0,0.002,9.796,-0.01,-0.01,0.0
1778774362.7894638,1.42,0.01,-0.08,0.0,0.007,9.799,-0.01,-0.01,0.0
1778774362.7994356,1.42,0.01,-0.08,0.005,0.008,9.802,-0.01,-0.01,0.0
1778774362.809495,1.42,0.01,-0.08,0.004,0.006,9.796,-0.01,0.0,-0.01
1778774362.8195732,1.42,0.01,-0.08,0.001,0.002,9.796,0.0,-0.01,0.0
1778774362.829488,1.42,0.01,-0.08,0.0,0.007,9.796,-0.01,0.0,-0.01
1778774362.8394563,1.42,0.01,-0.08,0.0,0.012,9.791,-0.01,0.0,0.0
1778774362.8494906,1.42,0.01,-0.08,-0.002,0.013,9.791,-0.01,0.0,0.0
1778774362.8594673,1.42,0.01,-0.08,-0.002,0.016,9.79,-0.01,0.0,-0.01
1778774362.8694475,1.42,0.01,-0.08,-0.006,0.011,9.78,-0.01,-0.01,0.0
1778774362.878538,1.42,0.01,-0.08,0.0,0.01,9.784,-0.01,0.0,-0.01
1778774362.8886356,1.42,0.01,-0.08,0.0,0.011,9.785,-0.01,0.0,0.0
1778774362.8985703,1.42,0.01,-0.08,0.002,0.008,9.788,-0.01,-0.01,0.0
1778774362.9094634,1.42,0.01,-0.08,0.002,0.005,9.787,-0.01,0.0,0.0
1778774362.9185748,1.42,0.01,-0.08,-0.001,0.001,9.787,-0.01,-0.01,-0.01
1778774362.9285588,1.42,0.01,-0.08,0.004,0.001,9.786,-0.01,0.0,0.0
1778774362.9385626,1.42,0.01,-0.08,0.002,0.005,9.786,-0.01,0.0,0.0
1778774362.9485333,1.42,0.01,-0.08,0.002,-0.001,9.785,-0.01,0.0,0.0
1778774362.9585323,1.42,0.01,-0.08,0.0,0.0,9.788,-0.01,0.0,-0.01
1778774362.9685426,1.42,0.01,-0.08,-0.006,0.005,9.793,-0.01,-0.01,0.0
1778774362.9785385,1.42,0.01,-0.08,-0.005,0.004,9.797,-0.01,-0.01,-0.01
1778774362.9885461,1.42,0.01,-0.08,-0.012,0.004,9.791,-0.01,0.0,-0.01
1778774362.9986722,1.42,0.0,-0.08,-0.011,-0.001,9.793,-0.01,0.0,0.0
1778774363.0085666,1.42,0.0,-0.08,-0.011,0.0,9.796,-0.01,0.0,-0.01
1778774363.0185843,1.42,0.0,-0.08,-0.007,0.004,9.796,-0.01,0.0,-0.01
1778774363.0285585,1.42,0.0,-0.08,-0.007,0.001,9.793,-0.01,-0.01,-0.01
1778774363.0385542,1.42,0.0,-0.08,-0.006,0.006,9.79,-0.01,0.0,0.0
1778774363.048516,1.42,0.0,-0.08,-0.002,0.008,9.787,-0.01,-0.01,0.0
1778774363.058552,1.42,0.0,-0.07,0.002,0.006,9.788,-0.01,0.0,-0.01
1778774363.068508,1.42,0.01,-0.08,0.0,0.006,9.785,-0.01,-0.01,0.0
1778774363.078682,1.42,0.0,-0.08,0.0,0.007,9.784,-0.01,-0.01,0.0
1778774363.0885136,1.42,0.0,-0.08,0.001,0.007,9.786,-0.01,0.0,0.0
1778774363.0986023,1.42,0.0,-0.07,0.0,0.01,9.776,-0.01,0.0,0.0
1778774363.1085052,1.42,0.0,-0.07,0.0,0.008,9.779,-0.01,0.0,-0.01
1778774363.1184998,1.42,0.0,-0.07,0.006,0.01,9.787,-0.01,0.0,0.0
1778774363.1284988,1.42,0.0,-0.07,0.006,0.005,9.784,-0.01,0.0,0.0
1778774363.1385255,1.42,0.0,-0.07,0.006,0.002,9.784,-0.01,0.0,-0.01
1778774363.1485167,1.42,0.0,-0.07,0.012,0.001,9.79,-0.01,0.0,-0.01
1778774363.1585262,1.42,0.01,-0.07,0.01,-0.001,9.796,-0.01,-0.01,0.0
1778774363.1685135,1.42,0.0,-0.07,0.01,0.004,9.793,-0.01,0.0,-0.01
1778774363.1785173,1.42,0.0,-0.07,0.01,0.006,9.793,-0.01,0.0,-0.01
1778774363.1885145,1.43,0.01,-0.07,0.007,0.005,9.797,-0.01,-0.01,-0.01
1778774363.1986463,1.43,0.0,-0.07,0.005,0.004,9.794,-0.01,0.0,-0.01
1778774363.2084851,1.43,0.0,-0.07,0.005,0.004,9.787,-0.01,0.0,0.0
1778774363.2185156,1.43,0.0,-0.07,0.002,0.005,9.785,-0.01,0.0,-0.01
1778774363.2284975,1.43,0.0,-0.07,0.0,0.004,9.782,-0.01,-0.01,-0.01
1778774363.2386658,1.43,0.0,-0.07,0.0,0.002,9.785,-0.01,0.0,-0.01
1778774363.2490466,1.43,0.0,-0.07,0.004,0.007,9.788,-0.01,0.0,0.0
1778774363.258513,1.43,0.01,-0.07,0.006,0.007,9.794,-0.01,0.0,0.0
1778774363.2685285,1.43,0.01,-0.07,0.01,0.008,9.793,-0.01,0.0,-0.01
1778774363.2785382,1.43,0.01,-0.07,0.01,0.007,9.792,-0.01,-0.01,-0.01
1778774363.2884943,1.43,0.01,-0.07,0.008,0.006,9.788,-0.01,0.0,-0.01
1778774363.2985027,1.43,0.01,-0.07,0.008,0.011,9.793,-0.01,-0.01,0.0
1778774363.3089926,1.43,0.01,-0.07,0.007,0.014,9.797,0.0,0.0,-0.01
1778774363.318507,1.43,0.01,-0.07,0.006,0.013,9.796,-0.01,0.0,-0.01
1778774363.328538,1.43,0.01,-0.07,0.011,0.006,9.793,-0.01,0.0,0.0
1778774363.3385062,1.43,0.01,-0.07,0.01,0.0,9.787,-0.01,0.0,0.0
1778774363.3485236,1.43,0.01,-0.07,0.011,-0.002,9.793,-0.01,0.0,-0.01
1778774363.3585355,1.43,0.01,-0.07,0.007,-0.001,9.786,-0.01,0.0,0.0
1778774363.3685162,1.43,0.01,-0.07,0.004,0.001,9.792,-0.01,-0.01,-0.01
1778774363.378529,1.43,0.01,-0.07,0.0,0.0,9.792,-0.01,-0.01,0.0
1778774363.3885174,1.43,0.01,-0.07,0.004,0.005,9.786,-0.01,-0.01,-0.01
1778774363.3984902,1.43,0.01,-0.07,0.002,0.002,9.786,-0.01,-0.01,-0.01
1778774363.4085197,1.43,0.01,-0.07,0.004,0.0,9.786,-0.01,0.0,0.0
1778774363.418486,1.43,0.01,-0.07,0.0,0.001,9.785,-0.01,0.0,-0.01
1778774363.428482,1.43,0.01,-0.07,-0.001,0.0,9.782,-0.01,-0.01,-0.01
1778774363.43847,1.43,0.01,-0.07,-0.002,0.005,9.776,-0.01,0.0,-0.01
1778774363.448531,1.43,0.01,-0.07,-0.005,0.008,9.779,-0.01,-0.01,0.0
1778774363.4584906,1.43,0.01,-0.07,0.001,0.01,9.787,-0.01,0.0,0.0
1778774363.4685864,1.43,0.01,-0.07,0.004,0.011,9.79,-0.01,0.0,0.0
1778774363.4785278,1.43,0.01,-0.07,0.002,0.007,9.793,-0.01,-0.01,0.0
1778774363.4884787,1.43,0.01,-0.07,0.001,0.006,9.788,-0.01,-0.01,0.0
1778774363.4984553,1.43,0.01,-0.07,0.0,0.006,9.788,-0.01,-0.01,-0.01
1778774363.5084813,1.43,0.01,-0.07,0.004,0.004,9.787,-0.01,0.0,-0.01
1778774363.5184724,1.43,0.01,-0.07,0.007,0.007,9.79,-0.01,-0.01,-0.01
1778774363.528499,1.43,0.01,-0.07,0.008,0.005,9.791,-0.01,0.0,0.0
1778774363.5384684,1.43,0.01,-0.07,0.002,0.007,9.796,-0.01,0.0,0.0
1778774363.5484543,1.43,0.01,-0.07,-0.002,0.008,9.797,-0.01,-0.01,0.0
1778774363.5584922,1.43,0.01,-0.07,0.0,0.007,9.799,-0.01,0.0,0.0
1778774363.568473,1.43,0.01,-0.07,0.0,0.008,9.794,-0.01,-0.01,-0.01
1778774363.5784404,1.43,0.01,-0.07,-0.004,0.01,9.798,0.0,0.0,-0.01
1778774363.5876148,1.43,0.01,-0.06,-0.005,0.006,9.798,-0.01,-0.01,0.0
1778774363.598467,1.43,0.01,-0.07,-0.002,0.008,9.793,-0.01,-0.01,0.0
1778774363.6076121,1.43,0.01,-0.06,0.0,0.008,9.794,-0.01,0.0,0.0
1778774363.618453,1.43,0.01,-0.06,0.001,0.01,9.79,-0.01,0.0,-0.01
1778774363.628574,1.43,0.01,-0.06,0.001,0.007,9.794,-0.01,0.0,-0.01
1778774363.6378171,1.43,0.01,-0.06,0.001,0.0,9.791,-0.01,-0.01,-0.01
1778774363.647616,1.43,0.01,-0.06,0.004,0.004,9.793,-0.01,-0.01,0.0
1778774363.6584344,1.43,0.01,-0.06,0.004,0.002,9.79,0.0,-0.01,-0.01
1778774363.667618,1.43,0.01,-0.06,0.006,0.001,9.791,-0.01,0.0,0.0
1778774363.6784697,1.43,0.01,-0.06,0.007,-0.001,9.796,-0.01,0.0,0.0
1778774363.6875954,1.43,0.01,-0.06,0.006,-0.002,9.794,-0.01,0.0,0.0
1778774363.6984355,1.43,0.01,-0.06,0.007,-0.004,9.796,-0.01,0.0,0.0
1778774363.7076192,1.43,0.01,-0.06,0.005,-0.004,9.799,-0.01,-0.01,-0.01
1778774363.7175918,1.43,0.01,-0.06,0.005,0.0,9.8,-0.01,0.0,-0.01
1778774363.7284317,1.43,0.01,-0.07,0.011,-0.001,9.793,-0.01,0.0,0.0
1778774363.7376049,1.43,0.01,-0.07,0.007,-0.001,9.794,-0.01,0.0,-0.01
1778774363.7476175,1.43,0.01,-0.07,0.01,-0.004,9.792,0.0,0.0,0.0
1778774363.757597,1.43,0.01,-0.07,0.007,0.001,9.792,-0.01,0.0,0.0
1778774363.7675967,1.43,0.01,-0.06,0.007,0.005,9.791,-0.01,0.0,-0.01
1778774363.777584,1.43,0.01,-0.06,0.006,-0.002,9.791,-0.01,-0.01,0.0
1778774363.787596,1.43,0.01,-0.07,0.005,0.0,9.793,-0.01,0.0,0.0
1778774363.7975545,1.43,0.01,-0.06,0.004,0.001,9.798,-0.01,0.0,0.0
1778774363.8075945,1.43,0.01,-0.07,0.001,0.005,9.798,-0.01,0.0,-0.01
1778774363.8175526,1.43,0.01,-0.06,0.0,0.007,9.798,-0.01,0.0,0.0
1778774363.8275702,1.43,0.01,-0.06,-0.005,0.004,9.792,-0.01,0.0,0.0
1778774363.8375754,1.43,0.01,-0.06,-0.007,0.001,9.794,-0.01,-0.01,-0.01
1778774363.847533,1.43,0.01,-0.06,-0.004,0.0,9.787,-0.01,0.0,0.0
1778774363.8575687,1.43,0.01,-0.06,0.0,0.005,9.782,0.0,0.0,0.0
1778774363.8675277,1.43,0.01,-0.06,0.0,0.008,9.787,-0.01,-0.01,0.0
1778774363.8775654,1.43,0.01,-0.06,0.0,0.01,9.785,-0.01,0.0,0.0
1778774363.8875291,1.43,0.01,-0.06,-0.002,0.014,9.786,-0.01,0.0,0.0
1778774363.8975642,1.43,0.01,-0.06,-0.005,0.012,9.785,-0.01,-0.01,0.0
1778774363.9075325,1.43,0.01,-0.06,-0.005,0.012,9.787,-0.01,0.0,-0.01
1778774363.9175334,1.43,0.01,-0.06,0.001,0.007,9.792,-0.01,-0.01,0.0
1778774363.9275417,1.43,0.01,-0.06,0.001,0.005,9.794,-0.01,0.0,-0.01
1778774363.937535,1.43,0.01,-0.06,0.0,0.004,9.791,-0.01,-0.01,0.0
1778774363.9475024,1.43,0.01,-0.06,-0.001,0.0,9.787,-0.01,0.0,-0.01
1778774363.9575586,1.43,0.01,-0.06,0.001,0.002,9.782,-0.01,0.0,-0.01
1778774363.9675202,1.43,0.01,-0.06,0.005,0.008,9.79,-0.01,-0.01,-0.01
1778774363.9775336,1.43,0.01,-0.06,0.002,0.012,9.792,-0.01,0.0,-0.01
1778774363.9874933,1.43,0.01,-0.06,0.007,0.011,9.791,-0.01,-0.01,0.0
1778774363.9975522,1.43,0.01,-0.06,0.01,0.008,9.792,-0.01,0.0,-0.01
1778774364.007534,1.43,0.01,-0.06,0.008,0.004,9.788,-0.01,0.0,-0.01
1778774364.0175202,1.43,0.01,-0.06,0.01,0.002,9.781,-0.01,-0.01,-0.01
1778774364.0275033,1.43,0.01,-0.06,0.005,0.005,9.788,-0.01,0.0,-0.01
1778774364.0375414,1.43,0.01,-0.06,0.0,0.004,9.792,-0.01,0.0,-0.01
1778774364.047502,1.43,0.01,-0.06,-0.002,0.006,9.794,-0.01,0.0,0.0
1778774364.0575192,1.43,0.01,-0.06,-0.002,0.005,9.796,-0.01,0.0,-0.01
1778774364.0675044,1.43,0.01,-0.06,0.001,0.002,9.787,-0.01,0.0,0.0
1778774364.0774937,1.43,0.01,-0.06,0.0,0.005,9.786,-0.01,0.0,0.0
1778774364.0875223,1.43,0.01,-0.06,0.004,0.002,9.784,-0.01,0.0,-0.01
1778774364.0975294,1.43,0.01,-0.06,0.005,0.004,9.781,-0.01,-0.01,0.0
1778774364.1075227,1.43,0.01,-0.06,0.005,0.002,9.782,0.0,0.0,-0.01
1778774364.1175106,1.43,0.01,-0.06,0.004,0.002,9.782,-0.01,0.0,-0.01
1778774364.1274784,1.43,0.01,-0.06,0.004,0.002,9.79,-0.01,0.0,-0.01
1778774364.137501,1.43,0.01,-0.06,0.0,0.004,9.785,-0.01,-0.01,-0.01
1778774364.147667,1.43,0.01,-0.06,-0.004,0.001,9.787,-0.01,-0.01,0.0
1778774364.1575024,1.43,0.01,-0.06,-0.002,0.002,9.79,-0.01,0.0,0.0
1778774364.167513,1.43,0.01,-0.06,0.001,0.004,9.78,-0.01,0.0,0.0
1778774364.1775393,1.43,0.01,-0.06,0.0,0.002,9.785,-0.01,0.0,0.0
1778774364.1875093,1.43,0.01,-0.06,0.0,0.0,9.788,-0.01,0.0,0.0
1778774364.1974974,1.43,0.01,-0.06,-0.001,0.002,9.788,-0.01,-0.01,0.0
1778774364.2074676,1.43,0.01,-0.06,0.005,0.004,9.785,-0.01,0.0,-0.01
1778774364.2174978,1.43,0.01,-0.06,0.006,0.0,9.785,-0.01,0.0,-0.01
1778774364.2276587,1.43,0.01,-0.06,0.001,0.002,9.784,-0.01,-0.01,-0.01
1778774364.2374651,1.43,0.01,-0.06,0.0,0.007,9.778,-0.01,0.0,-0.01
1778774364.2476227,1.43,0.01,-0.06,-0.001,0.008,9.781,-0.01,-0.01,-0.01
1778774364.2575142,1.43,0.01,-0.06,0.001,0.012,9.782,-0.01,0.0,0.0
1778774364.2681823,1.43,0.01,-0.06,0.0,0.014,9.786,-0.01,-0.01,0.0
1778774364.2775695,1.43,0.01,-0.06,-0.004,0.011,9.786,-0.01,-0.01,0.0
1778774364.2874844,1.43,0.01,-0.06,0.002,0.01,9.788,-0.01,0.0,0.0
1778774364.2966135,1.43,0.01,-0.06,0.0,0.008,9.793,-0.01,0.0,0.0
1778774364.3075116,1.43,0.01,-0.06,0.0,0.001,9.791,-0.01,-0.01,-0.01
1778774364.3174503,1.43,0.01,-0.06,0.004,0.001,9.787,-0.01,0.0,0.0
1778774364.3274732,1.43,0.01,-0.06,0.006,0.001,9.785,0.0,-0.01,0.0
1778774364.337458,1.43,0.01,-0.06,0.006,0.002,9.79,-0.01,-0.01,-0.01
1778774364.347441,1.43,0.01,-0.06,0.008,-0.004,9.79,-0.01,0.0,-0.01
1778774364.3574743,1.43,0.01,-0.06,0.011,-0.011,9.793,0.0,-0.01,0.0
1778774364.367491,1.43,0.01,-0.06,0.01,-0.007,9.792,-0.01,0.0,-0.01
1778774364.3779,1.43,0.01,-0.06,0.012,-0.002,9.791,-0.01,0.0,-0.01
1778774364.3866231,1.43,0.01,-0.06,0.016,0.0,9.796,-0.01,-0.01,0.0
1778774364.396647,1.43,0.01,-0.06,0.013,-0.001,9.799,-0.01,0.0,0.0
1778774364.406594,1.43,0.01,-0.06,0.01,0.001,9.802,-0.01,-0.01,0.0
1778774364.416596,1.43,0.01,-0.06,0.007,0.002,9.804,-0.01,-0.01,-0.01
1778774364.4276206,1.43,0.01,-0.06,-0.002,0.006,9.803,-0.01,0.0,0.0
1778774364.4375563,1.43,0.01,-0.06,-0.002,0.01,9.799,-0.01,-0.01,0.0
1778774364.447977,1.43,0.01,-0.06,0.0,0.011,9.796,-0.01,0.0,0.0
1778774364.4566169,1.43,0.01,-0.06,-0.004,0.006,9.788,-0.01,-0.01,-0.01
1778774364.4666083,1.43,0.01,-0.06,0.0,0.002,9.784,-0.01,0.0,0.0
1778774364.476659,1.43,0.01,-0.06,-0.002,0.0,9.782,-0.01,-0.01,0.0
1778774364.4866025,1.43,0.01,-0.06,0.0,0.0,9.786,-0.01,-0.01,0.0
1778774364.4965808,1.43,0.01,-0.06,0.0,-0.004,9.792,-0.01,-0.01,0.0
1778774364.5065954,1.43,0.01,-0.06,0.004,-0.002,9.791,-0.01,0.0,-0.01
1778774364.516597,1.43,0.01,-0.06,0.004,-0.005,9.788,-0.01,-0.01,-0.01
1778774364.526974,1.43,0.01,-0.06,0.001,-0.002,9.792,-0.01,0.0,-0.01
1778774364.5369906,1.43,0.01,-0.06,0.004,-0.005,9.794,-0.01,-0.01,-0.01
1778774364.5466154,1.43,0.01,-0.06,0.002,-0.002,9.798,-0.01,-0.01,0.0
1778774364.5571065,1.43,0.01,-0.06,0.0,-0.002,9.8,-0.01,0.0,-0.01
1778774364.5665805,1.43,0.01,-0.07,0.006,-0.002,9.794,-0.01,0.0,0.0
1778774364.576588,1.43,0.01,-0.07,0.004,-0.005,9.79,-0.01,0.0,0.0
1778774364.5865614,1.43,0.01,-0.07,0.0,-0.005,9.785,-0.01,0.0,0.0
1778774364.5965672,1.43,0.01,-0.07,-0.005,0.0,9.79,-0.01,0.0,0.0
1778774364.6065524,1.43,0.01,-0.07,0.0,0.004,9.794,-0.01,-0.01,-0.01
1778774364.616596,1.43,0.01,-0.06,0.001,0.0,9.793,-0.01,-0.01,0.0
1778774364.6265519,1.43,0.01,-0.07,-0.001,0.001,9.79,-0.01,-0.01,0.0
1778774364.636525,1.43,0.01,-0.07,-0.004,0.001,9.786,-0.01,0.0,-0.01
1778774364.6465497,1.43,0.01,-0.07,-0.001,0.001,9.785,-0.01,-0.01,-0.01
1778774364.6565032,1.43,0.01,-0.07,0.002,0.001,9.787,-0.01,-0.01,-0.01
1778774364.6665485,1.43,0.01,-0.07,0.007,0.0,9.788,-0.01,0.0,0.0
1778774364.6765108,1.43,0.01,-0.07,0.004,0.005,9.79,-0.01,0.0,0.0
1778774364.6865678,1.43,0.01,-0.07,-0.001,0.002,9.786,-0.01,-0.01,-0.01
1778774364.6965508,1.43,0.01,-0.07,0.001,0.006,9.787,-0.01,0.0,-0.01
1778774364.7065198,1.43,0.01,-0.06,0.002,0.005,9.786,-0.01,0.0,0.0
1778774364.71655,1.43,0.01,-0.06,0.007,0.006,9.787,-0.01,-0.01,0.0
1778774364.7265313,1.43,0.01,-0.06,0.01,0.006,9.787,-0.01,0.0,0.0
1778774364.736542,1.43,0.01,-0.06,0.006,0.007,9.792,0.0,-0.01,0.0
1778774364.7465305,1.43,0.01,-0.06,0.006,0.005,9.796,-0.01,0.0,-0.01
1778774364.7565048,1.43,0.01,-0.06,0.006,0.001,9.792,-0.01,0.0,-0.01
1778774364.7665312,1.43,0.01,-0.07,0.007,0.0,9.79,-0.01,0.0,0.0
