timestamp,yaw,pitch,roll,accel_x,accel_y,accel_z,gyro_x,gyro_y,gyro_z
1778774810.2570667,-68.18,-0.24,0.03,-0.043,0.004,9.809,-0.01,-0.01,0.0
1778774810.2679727,-68.18,-0.24,0.03,-0.04,0.002,9.809,-0.01,0.0,0.0
1778774810.2770607,-68.18,-0.24,0.03,-0.04,0.0,9.809,0.0,0.0,0.0
1778774810.2870815,-68.18,-0.24,0.03,-0.036,-0.001,9.809,0.0,0.0,0.0
1778774810.2970753,-68.18,-0.24,0.03,-0.038,-0.004,9.809,-0.01,-0.01,0.0
1778774810.307063,-68.18,-0.24,0.03,-0.041,0.0,9.809,-0.01,-0.01,0.0
1778774810.3170564,-68.18,-0.24,0.03,-0.042,0.0,9.809,-0.01,0.0,0.0
1778774810.3270524,-68.18,-0.24,0.03,-0.044,0.0,9.809,-0.01,0.0,0.0
1778774810.3370643,-68.18,-0.24,0.03,-0.041,0.0,9.809,0.0,0.0,0.0
1778774810.347051,-68.18,-0.24,0.03,-0.047,-0.002,9.809,0.0,0.0,0.0
1778774810.3570366,-68.18,-0.24,0.03,-0.044,0.0,9.809,0.0,0.0,-0.01
1778774810.3670537,-68.18,-0.24,0.03,-0.042,0.002,9.809,-0.01,-0.01,0.0
1778774810.3770535,-68.18,-0.24,0.03,-0.043,0.005,9.809,0.0,-0.01,0.0
1778774810.387019,-68.18,-0.24,0.03,-0.046,0.007,9.809,-0.01,0.0,0.0
1778774810.397051,-68.19,-0.24,0.03,-0.044,0.01,9.81,-0.01,-0.01,0.0
1778774810.407036,-68.19,-0.24,0.03,-0.044,0.007,9.81,0.0,-0.01,0.0
1778774810.4170306,-68.19,-0.24,0.03,-0.038,0.004,9.81,0.0,-0.01,0.0
1778774810.4270616,-68.2,-0.24,0.03,-0.037,0.008,9.809,0.0,0.0,0.0
1778774810.437029,-68.2,-0.24,0.03,-0.04,0.01,9.809,-0.01,-0.01,0.0
1778774810.4470294,-68.2,-0.24,0.03,-0.041,0.008,9.809,-0.01,0.0,0.0
1778774810.4570608,-68.2,-0.24,0.03,-0.04,0.011,9.809,-0.01,0.0,0.0
1778774810.467038,-68.2,-0.24,0.03,-0.041,0.006,9.809,0.0,0.0,0.0
1778774810.4770577,-68.2,-0.24,0.03,-0.042,0.008,9.809,0.0,0.0,0.0
1778774810.4870346,-68.2,-0.24,0.03,-0.038,0.008,9.809,0.0,0.0,0.0
1778774810.4970627,-68.2,-0.24,0.03,-0.036,0.006,9.809,-0.01,0.0,0.0
1778774810.5070333,-68.2,-0.24,0.03,-0.036,0.005,9.809,-0.01,0.0,-0.01
1778774810.517028,-68.2,-0.24,0.03,-0.037,0.011,9.809,0.0,0.0,0.0
1778774810.5270371,-68.2,-0.24,0.03,-0.04,0.013,9.809,-0.01,0.0,0.0
1778774810.5370367,-68.2,-0.24,0.03,-0.041,0.007,9.809,-0.01,-0.01,0.0
1778774810.547035,-68.2,-0.24,0.03,-0.041,0.013,9.809,-0.01,0.0,0.0
1778774810.5570645,-68.2,-0.24,0.03,-0.038,0.013,9.809,-0.01,0.0,0.0
1778774810.5670357,-68.2,-0.24,0.03,-0.038,0.006,9.809,-0.01,0.0,-0.01
1778774810.5770383,-68.2,-0.24,0.03,-0.036,0.01,9.809,-0.01,-0.01,0.0
1778774810.5870214,-68.2,-0.24,0.03,-0.046,0.011,9.809,-0.01,0.0,0.0
1778774810.597047,-68.2,-0.24,0.03,-0.042,0.005,9.809,-0.01,0.0,0.0
1778774810.6070096,-68.2,-0.24,0.03,-0.04,0.0,9.809,0.0,0.0,0.0
1778774810.6170514,-68.2,-0.24,0.03,-0.041,0.002,9.809,-0.01,-0.01,0.0
1778774810.6270347,-68.2,-0.24,0.03,-0.037,-0.001,9.809,-0.01,0.0,0.0
1778774810.6370149,-68.2,-0.24,0.02,-0.035,-0.004,9.809,-0.01,0.0,0.0
1778774810.6470153,-68.2,-0.24,0.03,-0.04,0.0,9.809,-0.01,-0.01,0.0
1778774810.657042,-68.19,-0.24,0.03,-0.034,0.004,9.81,-0.01,0.0,0.0
1778774810.6670222,-68.19,-0.24,0.03,-0.036,0.005,9.81,0.0,0.0,-0.01
1778774810.6770222,-68.19,-0.24,0.03,-0.038,0.002,9.81,-0.01,0.0,-0.01
1778774810.6870196,-68.19,-0.24,0.03,-0.04,0.007,9.81,0.0,0.0,0.0
1778774810.6970317,-68.19,-0.24,0.03,-0.041,0.001,9.81,-0.01,0.0,0.0
1778774810.707058,-68.19,-0.24,0.03,-0.04,0.005,9.81,-0.01,-0.01,0.0
1778774810.7170243,-68.19,-0.24,0.03,-0.038,0.004,9.81,-0.01,0.0,0.0
1778774810.7270184,-68.19,-0.24,0.03,-0.034,0.002,9.81,-0.01,0.0,-0.01
1778774810.7370293,-68.19,-0.24,0.03,-0.03,0.002,9.81,0.0,0.0,0.0
1778774810.7470312,-68.19,-0.24,0.03,-0.032,0.002,9.81,0.0,-0.01,0.0
1778774810.7570345,-68.19,-0.24,0.03,-0.03,0.006,9.81,-0.01,0.0,0.0
1778774810.7670217,-68.19,-0.24,0.03,-0.031,0.007,9.81,-0.01,0.0,-0.01
1778774810.7770255,-68.19,-0.24,0.03,-0.036,0.008,9.81,-0.01,0.0,0.0
1778774810.7870324,-68.19,-0.24,0.03,-0.036,0.008,9.81,-0.01,0.0,0.0
1778774810.7970293,-68.19,-0.24,0.03,-0.04,0.01,9.81,0.0,0.0,0.0
1778774810.8070369,-68.19,-0.24,0.03,-0.04,0.008,9.81,0.0,0.0,-0.01
1778774810.8170462,-68.19,-0.24,0.03,-0.038,0.006,9.81,-0.01,0.0,0.0
1778774810.8270147,-68.19,-0.24,0.03,-0.05,0.012,9.81,-0.01,-0.01,0.0
1778774810.8370075,-68.18,-0.24,0.03,-0.048,0.004,9.809,-0.01,-0.01,0.0
1778774810.847037,-68.18,-0.24,0.03,-0.05,0.005,9.809,0.0,0.0,-0.01
1778774810.8570282,-68.18,-0.24,0.03,-0.05,0.007,9.809,-0.01,-0.01,0.0
1778774810.8669977,-68.18,-0.24,0.03,-0.048,0.005,9.809,-0.01,0.0,0.0
1778774810.8770409,-68.18,-0.24,0.03,-0.046,0.002,9.809,-0.01,0.0,-0.01
1778774810.887007,-68.18,-0.24,0.03,-0.05,0.005,9.809,-0.01,0.0,0.0
1778774810.8969805,-68.18,-0.24,0.03,-0.055,0.008,9.809,-0.01,0.0,0.0
1778774810.9070103,-68.18,-0.25,0.03,-0.05,0.011,9.809,0.0,0.0,0.0
1778774810.9169981,-68.18,-0.24,0.04,-0.048,0.013,9.809,-0.01,0.0,0.0
1778774810.9270148,-68.18,-0.24,0.04,-0.05,0.012,9.809,0.0,0.0,0.0
1778774810.936982,-68.18,-0.24,0.04,-0.053,0.008,9.809,-0.01,0.0,0.0
1778774810.9469798,-68.18,-0.25,0.03,-0.048,0.005,9.809,-0.01,-0.01,0.0
1778774810.9570014,-68.18,-0.25,0.03,-0.048,0.0,9.809,0.0,0.0,0.0
1778774810.9669876,-68.18,-0.25,0.03,-0.046,0.0,9.809,-0.01,-0.01,0.0
1778774810.976148,-68.18,-0.25,0.03,-0.046,0.0,9.809,-0.01,0.0,0.0
1778774810.9880846,-68.18,-0.25,0.03,-0.044,0.004,9.809,-0.01,0.0,0.0
1778774810.9967544,-68.18,-0.25,0.03,-0.042,0.0,9.809,-0.01,0.0,0.0
1778774811.007709,-68.19,-0.25,0.03,-0.046,0.0,9.81,0.0,0.0,0.0
1778774811.0161119,-68.19,-0.25,0.03,-0.049,-0.001,9.81,-0.01,0.0,0.0
1778774811.0269506,-68.18,-0.25,0.03,-0.048,0.0,9.809,0.0,0.0,0.0
1778774811.036102,-68.18,-0.25,0.03,-0.043,0.0,9.809,-0.01,0.0,0.0
1778774811.0469475,-68.18,-0.25,0.03,-0.043,0.005,9.809,-0.01,0.0,0.0
1778774811.05612,-68.19,-0.25,0.03,-0.044,0.008,9.81,-0.01,-0.01,0.0
1778774811.0661118,-68.19,-0.25,0.03,-0.049,0.013,9.81,-0.01,0.0,0.0
1778774811.0761378,-68.19,-0.25,0.03,-0.05,0.011,9.81,0.0,0.0,0.0
1778774811.0869622,-68.19,-0.25,0.03,-0.046,0.012,9.81,0.0,0.0,0.0
1778774811.0960977,-68.19,-0.25,0.03,-0.044,0.008,9.81,-0.01,-0.01,-0.01
1778774811.1069515,-68.19,-0.25,0.03,-0.05,0.002,9.81,-0.01,-0.01,0.0
1778774811.1161087,-68.18,-0.25,0.03,-0.051,0.006,9.809,-0.01,-0.01,0.0
1778774811.1260934,-68.18,-0.25,0.03,-0.047,0.008,9.809,-0.01,0.0,-0.01
1778774811.1361096,-68.18,-0.25,0.03,-0.043,0.006,9.809,-0.01,0.0,0.0
1778774811.1461158,-68.18,-0.25,0.03,-0.043,0.004,9.809,0.0,0.0,-0.01
1778774811.1561093,-68.18,-0.25,0.03,-0.044,0.006,9.809,0.0,-0.01,0.0
1778774811.1660907,-68.18,-0.25,0.03,-0.046,0.004,9.809,-0.01,0.0,0.0
1778774811.1761086,-68.18,-0.25,0.03,-0.047,0.0,9.809,-0.01,0.0,0.0
1778774811.1861112,-68.18,-0.25,0.03,-0.047,0.004,9.809,0.0,0.0,0.0
1778774811.1961093,-68.18,-0.25,0.03,-0.047,0.001,9.809,0.0,-0.01,0.0
1778774811.2060902,-68.18,-0.25,0.03,-0.042,0.0,9.809,-0.01,0.0,0.0
1778774811.2160764,-68.18,-0.25,0.03,-0.041,0.001,9.809,-0.01,0.0,0.0
1778774811.2260885,-68.18,-0.25,0.03,-0.04,0.005,9.809,-0.01,0.0,0.0
1778774811.2360625,-68.18,-0.25,0.03,-0.041,0.004,9.809,0.0,0.0,-0.01
1778774811.2460325,-68.18,-0.25,0.03,-0.04,0.005,9.809,-0.01,0.0,0.0
1778774811.256094,-68.18,-0.25,0.03,-0.038,0.006,9.809,-0.01,-0.01,0.0
1778774811.2660787,-68.18,-0.25,0.03,-0.038,0.004,9.809,0.0,0.0,0.0
1778774811.2760658,-68.18,-0.25,0.03,-0.037,0.001,9.809,0.0,-0.01,0.0
1778774811.2860649,-68.18,-0.25,0.03,-0.034,0.005,9.809,-0.01,0.0,0.0
1778774811.296195,-68.19,-0.25,0.03,-0.036,0.007,9.81,-0.01,-0.01,0.0
1778774811.3061092,-68.19,-0.25,0.03,-0.04,0.005,9.81,-0.01,0.0,0.0
1778774811.3160937,-68.18,-0.25,0.03,-0.04,0.005,9.809,-0.01,0.0,0.0
1778774811.3260546,-68.19,-0.25,0.03,-0.04,0.004,9.81,0.0,0.0,0.0
1778774811.336079,-68.19,-0.25,0.03,-0.042,0.0,9.81,-0.01,0.0,0.0
1778774811.3460631,-68.19,-0.25,0.03,-0.042,-0.004,9.81,0.0,0.0,0.0
1778774811.3562143,-68.2,-0.25,0.03,-0.044,-0.002,9.809,-0.01,0.0,0.0
1778774811.3660533,-68.19,-0.25,0.03,-0.044,-0.001,9.81,-0.01,0.0,0.0
1778774811.376041,-68.19,-0.25,0.03,-0.043,-0.002,9.81,-0.01,0.0,0.0
1778774811.386067,-68.18,-0.25,0.03,-0.038,0.0,9.809,0.0,-0.01,-0.01
1778774811.3960648,-68.19,-0.25,0.03,-0.037,-0.004,9.81,0.0,-0.01,-0.01
1778774811.4060533,-68.19,-0.25,0.03,-0.042,-0.001,9.81,-0.01,0.0,0.0
1778774811.4160655,-68.19,-0.25,0.03,-0.042,0.002,9.81,0.0,0.0,0.0
1778774811.4260457,-68.19,-0.25,0.03,-0.046,0.004,9.81,-0.01,0.0,0.0
1778774811.4360366,-68.19,-0.25,0.03,-0.042,0.001,9.81,-0.01,0.0,0.0
1778774811.446081,-68.19,-0.25,0.03,-0.042,0.004,9.81,0.0,0.0,0.0
1778774811.456051,-68.19,-0.25,0.03,-0.04,0.011,9.81,-0.01,-0.01,0.0
1778774811.4660213,-68.19,-0.25,0.03,-0.038,0.01,9.81,-0.01,0.0,0.0
1778774811.4760766,-68.19,-0.25,0.03,-0.042,0.005,9.81,-0.01,0.0,0.0
1778774811.4860535,-68.19,-0.25,0.03,-0.041,0.004,9.81,-0.01,0.0,0.0
1778774811.49602,-68.19,-0.24,0.03,-0.04,0.006,9.81,-0.01,0.0,0.0
1778774811.5060222,-68.19,-0.24,0.03,-0.042,0.012,9.81,-0.01,-0.01,0.0
1778774811.516053,-68.19,-0.24,0.03,-0.037,0.012,9.81,-0.01,0.0,0.0
1778774811.5260334,-68.19,-0.24,0.03,-0.04,0.01,9.81,-0.01,0.0,0.0
1778774811.5360448,-68.19,-0.24,0.03,-0.042,0.011,9.81,-0.01,-0.01,0.0
1778774811.5460365,-68.19,-0.24,0.03,-0.042,0.01,9.81,-0.01,-0.01,0.0
1778774811.5560675,-68.19,-0.24,0.03,-0.041,0.012,9.81,0.0,-0.01,0.0
1778774811.566167,-68.2,-0.24,0.03,-0.046,0.013,9.809,-0.01,-0.01,0.0
1778774811.576044,-68.2,-0.24,0.03,-0.044,0.011,9.809,-0.01,-0.01,0.0
1778774811.5860488,-68.2,-0.24,0.03,-0.044,0.01,9.809,-0.01,-0.01,0.0
1778774811.596034,-68.19,-0.24,0.03,-0.042,0.002,9.81,-0.01,0.0,0.0
1778774811.6060562,-68.19,-0.24,0.03,-0.041,0.0,9.81,-0.01,-0.01,0.0
1778774811.6160383,-68.2,-0.24,0.03,-0.044,0.004,9.809,-0.01,-0.01,0.0
1778774811.6260378,-68.2,-0.24,0.03,-0.049,0.005,9.809,-0.01,0.0,0.0
1778774811.6360216,-68.2,-0.24,0.03,-0.051,0.008,9.809,-0.01,0.0,0.0
1778774811.646003,-68.2,-0.24,0.03,-0.055,0.005,9.809,-0.01,-0.01,0.0
1778774811.6560404,-68.2,-0.24,0.03,-0.05,0.005,9.809,0.0,0.0,0.0
1778774811.666042,-68.2,-0.24,0.03,-0.049,0.008,9.809,-0.01,0.0,-0.01
1778774811.6760273,-68.2,-0.24,0.03,-0.055,0.004,9.809,-0.01,0.0,0.0
1778774811.6860442,-68.2,-0.24,0.03,-0.051,0.004,9.809,-0.01,-0.01,0.0
1778774811.6960382,-68.2,-0.24,0.03,-0.046,0.004,9.809,-0.01,0.0,0.0
1778774811.7060087,-68.2,-0.24,0.03,-0.044,0.007,9.809,-0.01,0.0,0.0
1778774811.7159917,-68.2,-0.24,0.03,-0.042,0.006,9.809,-0.01,0.0,0.0
1778774811.726024,-68.2,-0.24,0.03,-0.04,0.004,9.809,-0.01,0.0,0.0
1778774811.7359886,-68.2,-0.24,0.03,-0.035,0.0,9.809,-0.01,0.0,0.0
1778774811.745994,-68.19,-0.24,0.03,-0.036,0.005,9.81,-0.01,0.0,-0.01
1778774811.7560382,-68.19,-0.24,0.03,-0.038,0.011,9.81,0.0,0.0,-0.01
1778774811.766023,-68.19,-0.24,0.03,-0.041,0.01,9.81,-0.01,-0.01,0.0
1778774811.775991,-68.2,-0.24,0.03,-0.035,0.011,9.809,-0.01,0.0,0.0
1778774811.7860448,-68.19,-0.24,0.03,-0.034,0.01,9.81,0.0,0.0,0.0
1778774811.7959917,-68.19,-0.24,0.03,-0.035,0.01,9.81,-0.01,0.0,0.0
1778774811.8059776,-68.2,-0.24,0.03,-0.031,0.005,9.809,-0.01,0.0,0.0
1778774811.8159914,-68.2,-0.24,0.03,-0.031,0.0,9.809,0.0,0.0,0.0
1778774811.8259795,-68.2,-0.24,0.03,-0.034,0.0,9.809,-0.01,0.0,0.0
1778774811.836027,-68.2,-0.24,0.03,-0.037,-0.001,9.809,-0.01,0.0,0.0
1778774811.8459916,-68.2,-0.24,0.03,-0.042,0.0,9.809,-0.01,0.0,0.0
1778774811.8559737,-68.2,-0.24,0.03,-0.048,0.004,9.809,-0.01,0.0,0.0
1778774811.8651557,-68.2,-0.24,0.03,-0.04,0.001,9.809,-0.01,0.0,0.0
1778774811.8759909,-68.2,-0.24,0.03,-0.041,-0.007,9.809,0.0,-0.01,0.0
1778774811.885975,-68.2,-0.24,0.03,-0.042,-0.002,9.809,-0.01,0.0,0.0
1778774811.8951838,-68.2,-0.24,0.03,-0.042,-0.002,9.809,0.0,-0.01,0.0
1778774811.9051564,-68.2,-0.24,0.03,-0.042,-0.004,9.809,0.0,-0.01,0.0
1778774811.9159946,-68.2,-0.24,0.03,-0.042,-0.001,9.809,0.0,0.0,0.0
1778774811.9251306,-68.2,-0.24,0.03,-0.041,0.007,9.809,0.0,-0.01,0.0
1778774811.9351416,-68.2,-0.24,0.03,-0.048,0.004,9.809,-0.01,0.0,0.0
1778774811.9451458,-68.2,-0.24,0.03,-0.047,0.002,9.809,-0.01,0.0,0.0
1778774811.9551406,-68.2,-0.24,0.03,-0.047,0.004,9.809,-0.01,0.0,0.0
1778774811.9659874,-68.2,-0.24,0.03,-0.048,0.01,9.809,-0.01,0.0,0.0
1778774811.9751863,-68.2,-0.24,0.03,-0.05,0.01,9.809,-0.01,0.0,0.0
1778774811.9851432,-68.2,-0.24,0.03,-0.046,0.005,9.809,0.0,-0.01,-0.01
1778774811.9951425,-68.2,-0.24,0.03,-0.043,0.011,9.809,-0.01,0.0,0.0
1778774812.0051577,-68.2,-0.24,0.03,-0.04,0.01,9.809,0.0,-0.01,0.0
1778774812.015136,-68.2,-0.24,0.03,-0.041,0.004,9.809,-0.01,0.0,0.0
1778774812.025158,-68.2,-0.24,0.03,-0.043,0.0,9.809,-0.01,0.0,0.0
1778774812.0351338,-68.2,-0.24,0.03,-0.047,0.0,9.809,0.0,0.0,-0.01
1778774812.045202,-68.2,-0.24,0.03,-0.044,-0.001,9.809,-0.01,0.0,0.0
1778774812.0551157,-68.2,-0.24,0.03,-0.041,0.004,9.809,-0.01,0.0,-0.01
1778774812.065142,-68.2,-0.24,0.03,-0.041,0.005,9.809,-0.01,0.0,0.0
1778774812.0751145,-68.2,-0.24,0.03,-0.043,0.005,9.809,-0.01,0.0,0.0
1778774812.0850978,-68.2,-0.24,0.03,-0.041,0.004,9.809,0.0,-0.01,0.0
1778774812.0951316,-68.2,-0.24,0.03,-0.043,0.002,9.809,-0.01,0.0,0.0
1778774812.1050751,-68.2,-0.24,0.03,-0.042,0.002,9.809,-0.01,0.0,0.0
1778774812.1151147,-68.2,-0.24,0.03,-0.043,-0.001,9.809,-0.01,0.0,-0.01
1778774812.1250997,-68.2,-0.24,0.03,-0.044,-0.004,9.809,-0.01,0.0,0.0
1778774812.1350696,-68.2,-0.24,0.03,-0.041,-0.001,9.809,-0.01,0.0,0.0
1778774812.1450734,-68.2,-0.24,0.03,-0.04,-0.005,9.809,-0.01,-0.01,0.0
1778774812.1551101,-68.2,-0.24,0.03,-0.044,-0.007,9.809,-0.01,0.0,0.0
1778774812.1650999,-68.2,-0.24,0.03,-0.048,-0.005,9.809,-0.01,0.0,-0.01
1778774812.1750798,-68.2,-0.24,0.03,-0.041,0.0,9.809,-0.01,0.0,0.0
1778774812.1855927,-68.2,-0.24,0.03,-0.04,0.0,9.809,-0.01,-0.01,0.0
1778774812.1950998,-68.2,-0.24,0.03,-0.036,0.0,9.809,0.0,0.0,0.0
1778774812.2051325,-68.2,-0.24,0.03,-0.037,0.004,9.809,-0.01,0.0,-0.01
1778774812.2150838,-68.2,-0.24,0.03,-0.038,0.006,9.809,-0.01,0.0,0.0
1778774812.2251492,-68.2,-0.24,0.03,-0.038,0.007,9.809,-0.01,0.0,-0.01
1778774812.2350867,-68.2,-0.24,0.03,-0.04,0.005,9.809,-0.01,0.0,0.0
1778774812.2458944,-68.2,-0.24,0.03,-0.043,0.004,9.809,0.0,0.0,0.0
1778774812.2555387,-68.2,-0.24,0.03,-0.042,0.0,9.809,-0.01,0.0,0.0
1778774812.265081,-68.2,-0.24,0.03,-0.032,0.001,9.809,0.0,0.0,0.0
1778774812.2751024,-68.2,-0.24,0.02,-0.038,0.001,9.809,-0.01,-0.01,0.0
1778774812.2850592,-68.2,-0.24,0.03,-0.043,0.0,9.809,0.0,-0.01,0.0
1778774812.295023,-68.2,-0.24,0.03,-0.046,-0.005,9.809,-0.01,0.0,0.0
1778774812.305092,-68.2,-0.24,0.03,-0.041,-0.004,9.809,-0.01,0.0,0.0
1778774812.3150668,-68.2,-0.24,0.02,-0.037,0.0,9.809,-0.01,0.0,0.0
1778774812.3250434,-68.2,-0.24,0.02,-0.04,-0.004,9.809,-0.01,0.0,0.0
1778774812.3350894,-68.2,-0.24,0.02,-0.04,-0.004,9.809,0.0,0.0,-0.01
1778774812.3450756,-68.2,-0.24,0.03,-0.044,0.0,9.809,-0.01,0.0,-0.01
1778774812.3550396,-68.2,-0.24,0.03,-0.053,-0.001,9.809,0.0,0.0,0.0
1778774812.365961,-68.2,-0.25,0.02,-0.051,0.004,9.809,0.0,0.0,0.0
1778774812.3750987,-68.2,-0.25,0.02,-0.046,0.001,9.809,-0.01,0.0,0.0
1778774812.385083,-68.2,-0.25,0.02,-0.043,0.001,9.809,-0.01,0.0,0.0
1778774812.395043,-68.2,-0.25,0.02,-0.043,0.006,9.809,-0.01,0.0,0.0
1778774812.4050467,-68.2,-0.25,0.02,-0.038,0.005,9.809,-0.01,0.0,0.0
1778774812.4150708,-68.2,-0.24,0.03,-0.037,0.006,9.809,-0.01,0.0,-0.01
1778774812.4250448,-68.2,-0.24,0.03,-0.038,0.005,9.809,-0.01,0.0,0.0
1778774812.4350412,-68.2,-0.25,0.02,-0.037,0.007,9.809,-0.01,0.0,0.0
1778774812.4450765,-68.2,-0.24,0.03,-0.038,0.001,9.809,-0.01,0.0,-0.01
1778774812.4550447,-68.2,-0.25,0.02,-0.034,-0.001,9.809,0.0,0.0,0.0
1778774812.4650602,-68.2,-0.24,0.03,-0.037,-0.001,9.809,0.0,0.0,0.0
1778774812.475039,-68.2,-0.24,0.03,-0.034,-0.005,9.809,0.0,0.0,0.0
1778774812.4850266,-68.2,-0.25,0.02,-0.034,-0.004,9.809,-0.01,0.0,0.0
1778774812.495009,-68.2,-0.25,0.02,-0.036,-0.002,9.809,-0.01,0.0,-0.01
1778774812.5050457,-68.2,-0.24,0.02,-0.04,0.001,9.809,-0.01,0.0,0.0
1778774812.5150445,-68.2,-0.24,0.02,-0.038,0.004,9.809,-0.01,0.0,0.0
1778774812.5250137,-68.2,-0.24,0.02,-0.036,0.002,9.809,-0.01,-0.01,0.0
1778774812.5350409,-68.2,-0.24,0.02,-0.04,0.0,9.809,-0.01,0.0,0.0
1778774812.5450425,-68.2,-0.24,0.02,-0.043,0.0,9.809,-0.01,-0.01,-0.01
1778774812.5550106,-68.2,-0.24,0.02,-0.043,0.0,9.809,-0.01,0.0,-0.01
1778774812.5649962,-68.2,-0.24,0.02,-0.047,0.0,9.809,-0.01,0.0,-0.01
1778774812.5749888,-68.2,-0.24,0.02,-0.048,0.002,9.809,-0.01,-0.01,0.0
1778774812.5853472,-68.2,-0.24,0.02,-0.044,0.001,9.809,-0.01,0.0,0.0
1778774812.595006,-68.2,-0.24,0.02,-0.042,0.002,9.809,-0.01,0.0,0.0
1778774812.6050487,-68.2,-0.24,0.02,-0.038,0.002,9.809,-0.01,0.0,0.0
1778774812.6150937,-68.2,-0.24,0.02,-0.038,0.005,9.809,-0.01,0.0,-0.01
1778774812.625005,-68.2,-0.24,0.02,-0.041,0.002,9.809,0.0,0.0,-0.01
1778774812.6350281,-68.2,-0.24,0.02,-0.04,0.001,9.809,-0.01,0.0,0.0
1778774812.6449974,-68.2,-0.24,0.02,-0.044,0.005,9.809,0.0,0.0,0.0
1778774812.6555195,-68.2,-0.24,0.02,-0.046,0.006,9.809,-0.01,0.0,0.0
1778774812.6658397,-68.2,-0.24,0.02,-0.041,0.007,9.809,-0.01,-0.01,0.0
1778774812.6757903,-68.2,-0.24,0.02,-0.041,0.005,9.809,0.0,-0.01,0.0
1778774812.684167,-68.2,-0.24,0.02,-0.04,0.007,9.809,-0.01,-0.01,0.0
1778774812.6949944,-68.2,-0.24,0.02,-0.038,0.001,9.809,-0.01,0.0,0.0
1778774812.704983,-68.2,-0.24,0.02,-0.042,0.007,9.809,-0.01,0.0,-0.01
1778774812.7141426,-68.2,-0.24,0.02,-0.041,0.008,9.809,-0.01,0.0,0.0
1778774812.7249966,-68.2,-0.24,0.02,-0.041,0.005,9.809,-0.01,0.0,0.0
1778774812.734974,-68.2,-0.24,0.02,-0.041,0.002,9.809,-0.01,0.0,0.0
1778774812.7441373,-68.2,-0.24,0.02,-0.04,0.002,9.809,-0.01,0.0,0.0
1778774812.7549577,-68.2,-0.24,0.02,-0.038,0.002,9.809,-0.01,0.0,0.0
1778774812.7649806,-68.2,-0.24,0.02,-0.038,0.0,9.809,0.0,0.0,0.0
1778774812.7758274,-68.2,-0.24,0.02,-0.04,0.001,9.809,-0.01,0.0,-0.01
1778774812.785817,-68.2,-0.24,0.02,-0.049,0.0,9.809,-0.01,-0.01,-0.01
1778774812.7943795,-68.2,-0.24,0.02,-0.05,0.0,9.809,-0.01,0.0,0.0
1778774812.804158,-68.2,-0.24,0.02,-0.049,0.005,9.809,0.0,0.0,0.0
1778774812.8141158,-68.2,-0.24,0.02,-0.051,0.008,9.809,-0.01,-0.01,0.0
1778774812.8249798,-68.2,-0.25,0.02,-0.049,0.01,9.809,0.0,0.0,0.0
1778774812.8341448,-68.2,-0.25,0.02,-0.05,0.01,9.809,-0.01,-0.01,0.0
1778774812.8441377,-68.2,-0.25,0.02,-0.047,0.006,9.809,-0.01,0.0,0.0
1778774812.8541398,-68.2,-0.25,0.02,-0.047,0.005,9.809,-0.01,0.0,0.0
1778774812.8642898,-68.2,-0.25,0.02,-0.049,0.002,9.809,-0.01,0.0,0.0
1778774812.8741252,-68.2,-0.25,0.02,-0.047,0.004,9.809,-0.01,0.0,0.0
1778774812.8841357,-68.2,-0.25,0.02,-0.047,0.005,9.809,-0.01,0.0,0.0
1778774812.8941114,-68.2,-0.25,0.02,-0.047,0.004,9.809,-0.01,0.0,0.0
1778774812.904132,-68.2,-0.25,0.02,-0.047,0.001,9.809,-0.01,0.0,0.0
1778774812.9141386,-68.2,-0.25,0.02,-0.046,0.002,9.809,-0.01,0.0,0.0
1778774812.924096,-68.2,-0.25,0.02,-0.048,0.005,9.809,-0.01,-0.01,0.0
1778774812.9340715,-68.2,-0.25,0.02,-0.049,0.002,9.809,-0.01,0.0,0.0
1778774812.9441178,-68.2,-0.25,0.02,-0.046,0.004,9.809,0.0,0.0,0.0
1778774812.9541085,-68.2,-0.25,0.02,-0.041,0.01,9.809,-0.01,0.0,0.0
1778774812.9641364,-68.2,-0.25,0.02,-0.04,0.005,9.809,-0.01,0.0,-0.01
1778774812.974383,-68.2,-0.25,0.02,-0.046,0.0,9.809,-0.01,-0.01,0.0
1778774812.9842224,-68.2,-0.25,0.02,-0.043,0.0,9.809,0.0,0.0,0.0
1778774812.9945824,-68.2,-0.25,0.02,-0.04,-0.002,9.809,-0.01,0.0,0.0
1778774813.0041053,-68.2,-0.25,0.02,-0.044,0.001,9.809,0.0,0.0,0.0
1778774813.0140715,-68.2,-0.25,0.02,-0.044,0.004,9.809,-0.01,0.0,0.0
1778774813.024115,-68.2,-0.25,0.02,-0.046,0.004,9.809,-0.01,-0.01,0.0
1778774813.034202,-68.2,-0.25,0.02,-0.044,0.007,9.809,0.0,-0.01,0.0
1778774813.044104,-68.2,-0.25,0.02,-0.046,0.011,9.809,0.0,0.0,0.0
1778774813.0540886,-68.2,-0.25,0.02,-0.042,0.01,9.809,-0.01,0.0,0.0
1778774813.0640779,-68.2,-0.25,0.02,-0.035,0.006,9.809,0.0,0.0,-0.01
1778774813.0740783,-68.2,-0.25,0.02,-0.038,0.004,9.809,-0.01,-0.01,-0.01
1778774813.0841033,-68.2,-0.25,0.02,-0.042,0.002,9.809,-0.01,0.0,0.0
1778774813.0940738,-68.2,-0.25,0.02,-0.037,-0.001,9.809,-0.01,-0.01,0.0
1778774813.1040788,-68.2,-0.25,0.02,-0.038,0.0,9.809,-0.01,0.0,0.0
1778774813.1140633,-68.2,-0.25,0.02,-0.043,0.004,9.809,-0.01,-0.01,-0.01
1778774813.1240866,-68.2,-0.25,0.02,-0.047,0.004,9.809,-0.01,0.0,0.0
1778774813.1340551,-68.2,-0.25,0.02,-0.05,0.006,9.809,0.0,0.0,0.0
1778774813.144025,-68.2,-0.25,0.02,-0.054,-0.002,9.809,-0.01,0.0,0.0
1778774813.154069,-68.2,-0.25,0.02,-0.057,-0.001,9.809,-0.01,-0.01,0.0
1778774813.164073,-68.2,-0.25,0.02,-0.049,-0.001,9.809,-0.01,0.0,0.0
1778774813.1740406,-68.2,-0.25,0.02,-0.048,0.0,9.809,-0.01,0.0,0.0
1778774813.184072,-68.2,-0.25,0.02,-0.044,0.0,9.809,-0.01,0.0,0.0
1778774813.1940398,-68.2,-0.25,0.02,-0.044,0.005,9.809,0.0,0.0,-0.01
1778774813.2040846,-68.2,-0.25,0.02,-0.044,0.004,9.809,-0.01,0.0,0.0
1778774813.214054,-68.2,-0.25,0.02,-0.037,0.008,9.809,-0.01,0.0,0.0
1778774813.2240405,-68.2,-0.25,0.02,-0.034,0.011,9.809,-0.01,0.0,0.0
1778774813.2340739,-68.2,-0.25,0.02,-0.034,0.007,9.809,-0.01,0.0,0.0
1778774813.2440486,-68.2,-0.25,0.02,-0.037,0.011,9.809,-0.01,0.0,0.0
1778774813.254062,-68.2,-0.25,0.02,-0.044,0.011,9.809,0.0,0.0,-0.01
1778774813.2640731,-68.2,-0.25,0.02,-0.043,0.01,9.809,-0.01,0.0,-0.01
1778774813.274037,-68.2,-0.25,0.02,-0.043,0.007,9.809,-0.01,0.0,0.0
1778774813.2840412,-68.2,-0.25,0.02,-0.04,0.005,9.809,0.0,0.0,0.0
1778774813.2940679,-68.2,-0.25,0.02,-0.044,0.007,9.809,-0.01,-0.01,0.0
1778774813.3040407,-68.2,-0.25,0.02,-0.051,0.008,9.809,0.0,0.0,0.0
1778774813.3140707,-68.2,-0.25,0.03,-0.053,0.011,9.809,-0.01,0.0,0.0
1778774813.3240454,-68.2,-0.25,0.03,-0.05,0.008,9.809,0.0,0.0,0.0
1778774813.3340516,-68.2,-0.25,0.03,-0.053,0.01,9.809,-0.01,0.0,0.0
1778774813.3440428,-68.2,-0.25,0.03,-0.049,0.007,9.809,-0.01,-0.01,0.0
1778774813.3540494,-68.2,-0.25,0.03,-0.048,0.004,9.809,-0.01,0.0,0.0
1778774813.3640347,-68.2,-0.25,0.03,-0.047,0.001,9.809,-0.01,-0.01,0.0
1778774813.3740523,-68.2,-0.25,0.03,-0.041,0.004,9.809,-0.01,0.0,0.0
1778774813.3840592,-68.2,-0.25,0.03,-0.04,0.005,9.809,-0.01,0.0,-0.01
1778774813.3940496,-68.2,-0.25,0.03,-0.038,0.002,9.809,-0.01,-0.01,0.0
1778774813.4040184,-68.2,-0.25,0.03,-0.041,0.0,9.809,-0.01,0.0,0.0
1778774813.4140625,-68.2,-0.25,0.02,-0.038,0.001,9.809,-0.01,0.0,0.0
1778774813.4240465,-68.2,-0.25,0.02,-0.042,0.007,9.809,-0.01,-0.01,0.0
1778774813.4340205,-68.2,-0.25,0.02,-0.041,0.006,9.809,0.0,-0.01,-0.01
1778774813.444009,-68.2,-0.25,0.02,-0.042,0.002,9.809,-0.01,0.0,-0.01
1778774813.4540596,-68.2,-0.25,0.02,-0.044,0.002,9.809,-0.01,0.0,0.0
1778774813.4640262,-68.2,-0.25,0.02,-0.044,0.005,9.809,-0.01,-0.01,-0.01
1778774813.4740024,-68.2,-0.25,0.02,-0.04,0.006,9.809,-0.01,0.0,0.0
1778774813.4840517,-68.2,-0.25,0.02,-0.04,0.002,9.809,-0.01,0.0,0.0
1778774813.493995,-68.2,-0.25,0.02,-0.042,0.004,9.809,-0.01,0.0,0.0
1778774813.504036,-68.2,-0.25,0.02,-0.042,0.005,9.809,0.0,0.0,0.0
1778774813.514656,-68.2,-0.25,0.02,-0.047,0.007,9.809,-0.01,0.0,0.0
1778774813.5246696,-68.2,-0.25,0.03,-0.038,0.007,9.809,-0.01,0.0,0.0
1778774813.5340118,-68.2,-0.25,0.02,-0.037,0.004,9.809,-0.01,0.0,-0.01
1778774813.5439923,-68.2,-0.25,0.02,-0.034,0.006,9.809,-0.01,0.0,0.0
1778774813.553962,-68.2,-0.25,0.02,-0.031,0.008,9.809,-0.01,0.0,0.0
1778774813.5639913,-68.2,-0.25,0.02,-0.035,0.01,9.809,0.0,0.0,0.0
1778774813.5739722,-68.2,-0.25,0.02,-0.036,0.004,9.809,-0.01,0.0,-0.01
1778774813.5831618,-68.2,-0.25,0.02,-0.036,0.005,9.809,-0.01,-0.01,0.0
1778774813.5931702,-68.2,-0.25,0.02,-0.035,0.01,9.809,-0.01,-0.01,-0.01
1778774813.6039906,-68.2,-0.25,0.02,-0.034,0.011,9.809,-0.01,0.0,0.0
1778774813.6142204,-68.2,-0.25,0.02,-0.032,0.007,9.809,-0.01,0.0,0.0
1778774813.6231678,-68.2,-0.25,0.02,-0.035,0.005,9.809,-0.01,-0.01,0.0
1778774813.634188,-68.2,-0.25,0.02,-0.036,0.007,9.809,0.0,0.0,-0.01
1778774813.6439807,-68.2,-0.24,0.03,-0.041,0.005,9.809,0.0,0.0,0.0
1778774813.6533072,-68.2,-0.24,0.03,-0.041,0.005,9.809,0.0,0.0,0.0
1778774813.665014,-68.2,-0.24,0.03,-0.043,0.002,9.809,-0.01,0.0,0.0
1778774813.6733937,-68.2,-0.24,0.03,-0.041,0.002,9.809,0.0,0.0,0.0
1778774813.6832862,-68.2,-0.24,0.03,-0.035,0.0,9.809,-0.01,0.0,0.0
1778774813.6931303,-68.2,-0.24,0.03,-0.034,0.002,9.809,0.0,0.0,0.0
1778774813.7031171,-68.2,-0.24,0.03,-0.035,0.006,9.809,-0.01,0.0,0.0
1778774813.7131674,-68.2,-0.24,0.03,-0.037,0.002,9.809,-0.01,0.0,0.0
1778774813.7231145,-68.2,-0.24,0.03,-0.038,0.001,9.809,0.0,-0.01,0.0
1778774813.7331603,-68.2,-0.24,0.03,-0.034,-0.004,9.809,0.0,0.0,0.0
1778774813.7431388,-68.2,-0.24,0.03,-0.034,-0.002,9.809,-0.01,0.0,0.0
1778774813.7531202,-68.2,-0.24,0.03,-0.035,0.0,9.809,-0.01,0.0,-0.01
1778774813.7631183,-68.2,-0.24,0.03,-0.029,0.002,9.809,-0.01,0.0,0.0
1778774813.7731376,-68.2,-0.24,0.03,-0.034,0.0,9.809,-0.01,-0.01,0.0
1778774813.7830987,-68.2,-0.24,0.02,-0.037,-0.002,9.809,0.0,0.0,0.0
1778774813.7930713,-68.2,-0.24,0.02,-0.038,-0.001,9.809,-0.01,-0.01,0.0
1778774813.8030686,-68.2,-0.24,0.02,-0.04,0.0,9.809,-0.01,-0.01,-0.01
1778774813.813085,-68.2,-0.24,0.02,-0.038,0.001,9.809,0.0,0.0,0.0
1778774813.8230808,-68.2,-0.24,0.02,-0.037,0.005,9.809,-0.01,0.0,0.0
1778774813.8330824,-68.2,-0.24,0.02,-0.041,0.007,9.809,-0.01,0.0,0.0
1778774813.843096,-68.2,-0.24,0.02,-0.042,0.006,9.809,0.0,0.0,-0.01
1778774813.853085,-68.2,-0.24,0.02,-0.04,0.007,9.809,-0.01,-0.01,-0.01
1778774813.8630543,-68.2,-0.24,0.02,-0.041,0.002,9.809,-0.01,0.0,0.0
1778774813.8730838,-68.2,-0.24,0.02,-0.04,0.0,9.809,-0.01,0.0,0.0
1778774813.8830783,-68.2,-0.24,0.02,-0.042,-0.002,9.809,-0.01,0.0,-0.01
1778774813.8930585,-68.2,-0.24,0.02,-0.046,0.0,9.809,-0.01,0.0,0.0
1778774813.9030797,-68.2,-0.24,0.02,-0.046,-0.002,9.809,-0.01,0.0,0.0
1778774813.9130752,-68.2,-0.24,0.02,-0.048,0.0,9.809,-0.01,0.0,0.0
1778774813.9230928,-68.2,-0.24,0.02,-0.042,0.0,9.809,-0.01,0.0,0.0
1778774813.9330575,-68.2,-0.24,0.02,-0.037,0.0,9.809,-0.01,0.0,-0.01
1778774813.9430552,-68.2,-0.24,0.02,-0.038,0.0,9.809,-0.01,-0.01,0.0
1778774813.9530573,-68.2,-0.24,0.02,-0.042,-0.004,9.809,-0.01,0.0,0.0
1778774813.9630547,-68.2,-0.24,0.01,-0.042,0.0,9.809,-0.01,0.0,-0.01
1778774813.9730742,-68.2,-0.24,0.01,-0.043,0.001,9.809,-0.01,0.0,0.0
1778774813.9830685,-68.2,-0.24,0.01,-0.046,0.006,9.809,-0.01,0.0,-0.01
1778774813.993036,-68.2,-0.24,0.02,-0.038,0.005,9.809,-0.01,0.0,0.0
1778774814.003072,-68.2,-0.24,0.02,-0.03,0.001,9.809,-0.01,0.0,0.0
1778774814.0130591,-68.2,-0.24,0.02,-0.029,0.004,9.809,-0.01,0.0,0.0
1778774814.0230856,-68.2,-0.24,0.02,-0.032,0.004,9.809,0.0,0.0,0.0
1778774814.0330763,-68.2,-0.24,0.02,-0.037,0.004,9.809,0.0,-0.01,0.0
1778774814.043029,-68.2,-0.24,0.02,-0.038,0.006,9.809,0.0,0.0,0.0
1778774814.0530915,-68.2,-0.24,0.02,-0.038,0.01,9.809,-0.01,0.0,0.0
1778774814.06304,-68.2,-0.24,0.02,-0.042,0.008,9.809,-0.01,0.0,0.0
1778774814.0730426,-68.2,-0.24,0.02,-0.037,0.006,9.809,-0.01,0.0,0.0
1778774814.0830712,-68.2,-0.24,0.02,-0.038,0.005,9.809,-0.01,-0.01,0.0
1778774814.0930443,-68.2,-0.24,0.02,-0.041,0.008,9.809,-0.01,0.0,0.0
1778774814.1030421,-68.2,-0.24,0.02,-0.042,0.011,9.809,-0.01,-0.01,0.0
1778774814.113076,-68.2,-0.24,0.02,-0.044,0.011,9.809,-0.01,0.0,0.0
1778774814.1230373,-68.2,-0.24,0.02,-0.043,0.007,9.809,-0.01,0.0,0.0
1778774814.1330445,-68.2,-0.24,0.02,-0.04,0.001,9.809,0.0,0.0,0.0
1778774814.1430645,-68.2,-0.24,0.02,-0.04,-0.001,9.809,-0.01,0.0,0.0
1778774814.1530433,-68.2,-0.24,0.02,-0.043,0.004,9.809,-0.01,0.0,0.0
1778774814.1630414,-68.2,-0.24,0.02,-0.043,0.008,9.809,-0.01,0.0,0.0
1778774814.1730444,-68.2,-0.24,0.02,-0.043,0.006,9.809,-0.01,0.0,0.0
1778774814.1830418,-68.2,-0.24,0.02,-0.049,0.01,9.809,-0.01,0.0,0.0
1778774814.1930594,-68.2,-0.24,0.02,-0.051,0.006,9.809,-0.01,0.0,0.0
1778774814.2030413,-68.2,-0.24,0.02,-0.053,0.012,9.809,-0.01,0.0,0.0
1778774814.2130444,-68.2,-0.24,0.02,-0.049,0.012,9.809,0.0,0.0,0.0
1778774814.22301,-68.2,-0.24,0.02,-0.048,0.007,9.809,0.0,-0.01,-0.01
1778774814.233046,-68.2,-0.24,0.02,-0.044,0.008,9.809,-0.01,0.0,0.0
1778774814.2430458,-68.2,-0.24,0.02,-0.042,0.004,9.809,-0.01,0.0,0.0
1778774814.253049,-68.2,-0.24,0.02,-0.042,0.006,9.809,0.0,0.0,0.0
1778774814.2630484,-68.2,-0.24,0.02,-0.041,0.006,9.809,0.0,0.0,-0.01
1778774814.2730129,-68.2,-0.24,0.02,-0.042,0.001,9.809,-0.01,0.0,0.0
1778774814.282993,-68.2,-0.24,0.02,-0.041,-0.004,9.809,-0.01,0.0,0.0
1778774814.2930467,-68.2,-0.24,0.02,-0.037,-0.002,9.809,-0.01,0.0,0.0
1778774814.3030114,-68.2,-0.24,0.02,-0.044,0.0,9.809,-0.01,0.0,0.0
1778774814.3130448,-68.2,-0.24,0.02,-0.046,0.002,9.809,-0.01,0.0,0.0
1778774814.3229945,-68.2,-0.24,0.02,-0.049,0.006,9.809,0.0,0.0,0.0
1778774814.3330476,-68.2,-0.24,0.02,-0.05,0.008,9.809,-0.01,0.0,0.0
1778774814.3430097,-68.2,-0.24,0.02,-0.046,0.007,9.809,-0.01,-0.01,0.0
1778774814.3529963,-68.2,-0.24,0.02,-0.046,0.007,9.809,0.0,-0.01,0.0
1778774814.3630424,-68.2,-0.24,0.02,-0.048,0.004,9.809,-0.01,0.0,0.0
1778774814.3729975,-68.2,-0.24,0.02,-0.046,0.0,9.809,-0.01,0.0,0.0
1778774814.382993,-68.2,-0.24,0.02,-0.048,0.004,9.809,-0.01,0.0,0.0
1778774814.3930132,-68.2,-0.24,0.02,-0.049,0.001,9.809,0.0,0.0,0.0
1778774814.402994,-68.2,-0.25,0.02,-0.046,0.001,9.809,-0.01,0.0,-0.01
1778774814.4129772,-68.2,-0.25,0.02,-0.046,0.007,9.809,0.0,0.0,0.0
1778774814.4229944,-68.2,-0.25,0.02,-0.043,0.013,9.809,0.0,0.0,0.0
1778774814.4329965,-68.2,-0.25,0.02,-0.044,0.014,9.809,-0.01,0.0,-0.01
1778774814.4429607,-68.2,-0.25,0.02,-0.043,0.01,9.809,-0.01,0.0,0.0
1778774814.452151,-68.2,-0.25,0.02,-0.037,0.005,9.809,-0.01,0.0,0.0
1778774814.4629726,-68.2,-0.25,0.02,-0.038,0.008,9.809,-0.01,0.0,0.0
1778774814.472168,-68.2,-0.25,0.02,-0.044,0.011,9.809,-0.01,0.0,-0.01
1778774814.4829752,-68.2,-0.25,0.02,-0.044,0.01,9.809,0.0,0.0,0.0
1778774814.492145,-68.2,-0.25,0.02,-0.042,0.008,9.809,-0.01,0.0,0.0
1778774814.5029747,-68.2,-0.25,0.02,-0.046,0.008,9.809,0.0,0.0,0.0
1778774814.5121288,-68.2,-0.25,0.02,-0.048,0.002,9.809,-0.01,0.0,0.0
1778774814.5221136,-68.2,-0.25,0.02,-0.048,0.001,9.809,-0.01,-0.01,0.0
1778774814.532979,-68.2,-0.25,0.02,-0.048,0.001,9.809,-0.01,0.0,0.0
1778774814.542131,-68.2,-0.25,0.02,-0.044,0.001,9.809,-0.01,0.0,0.0
1778774814.552115,-68.2,-0.25,0.02,-0.044,0.0,9.809,-0.01,0.0,0.0
1778774814.5621145,-68.2,-0.25,0.02,-0.04,0.0,9.809,-0.01,-0.01,-0.01
1778774814.5721517,-68.2,-0.25,0.02,-0.038,0.004,9.809,-0.01,0.0,0.0
1778774814.5821161,-68.2,-0.25,0.02,-0.036,-0.001,9.809,-0.01,0.0,0.0
1778774814.5921357,-68.2,-0.25,0.02,-0.04,0.0,9.809,-0.01,-0.01,0.0
1778774814.6021178,-68.2,-0.25,0.02,-0.041,0.008,9.809,0.0,0.0,0.0
1778774814.6121352,-68.2,-0.25,0.02,-0.042,0.007,9.809,-0.01,0.0,0.0
1778774814.6223528,-68.2,-0.25,0.02,-0.041,0.007,9.809,-0.01,-0.01,0.0
1778774814.6321435,-68.2,-0.25,0.02,-0.044,0.002,9.809,-0.01,0.0,0.0
1778774814.6420906,-68.2,-0.25,0.02,-0.042,0.0,9.809,-0.01,0.0,0.0
1778774814.6521337,-68.2,-0.25,0.02,-0.042,-0.002,9.809,-0.01,0.0,0.0
1778774814.6625013,-68.2,-0.25,0.02,-0.046,-0.001,9.809,-0.01,0.0,-0.01
1778774814.6720965,-68.2,-0.25,0.02,-0.044,0.001,9.809,-0.01,0.0,0.0
1778774814.6820958,-68.2,-0.25,0.02,-0.046,0.007,9.809,0.0,0.0,0.0
1778774814.6920745,-68.2,-0.25,0.02,-0.044,0.005,9.809,0.0,0.0,0.0
1778774814.7020986,-68.2,-0.25,0.02,-0.042,0.006,9.809,-0.01,0.0,0.0
1778774814.7120683,-68.2,-0.25,0.02,-0.048,0.008,9.809,0.0,0.0,-0.01
1778774814.7221143,-68.2,-0.25,0.02,-0.051,0.01,9.809,0.0,0.0,-0.01
1778774814.7321064,-68.2,-0.25,0.03,-0.042,0.006,9.809,-0.01,0.0,0.0
1778774814.7420707,-68.2,-0.25,0.02,-0.042,0.002,9.809,-0.01,0.0,0.0
1778774814.7521112,-68.2,-0.25,0.02,-0.037,0.002,9.809,-0.01,0.0,0.0
1778774814.7620852,-68.2,-0.25,0.02,-0.042,0.004,9.809,-0.01,0.0,0.0
1778774814.7720706,-68.2,-0.25,0.02,-0.041,0.004,9.809,-0.01,-0.01,0.0
1778774814.782113,-68.2,-0.25,0.02,-0.038,0.008,9.809,-0.01,0.0,0.0
1778774814.792069,-68.2,-0.25,0.02,-0.041,0.011,9.809,0.0,0.0,0.0
1778774814.8020992,-68.2,-0.25,0.02,-0.044,0.007,9.809,-0.01,0.0,0.0
1778774814.8120704,-68.2,-0.25,0.03,-0.041,0.004,9.809,0.0,-0.01,-0.01
1778774814.8220537,-68.2,-0.25,0.03,-0.047,0.004,9.809,0.0,0.0,0.0
1778774814.8320851,-68.2,-0.25,0.03,-0.047,-0.002,9.809,0.0,0.0,0.0
1778774814.8420572,-68.21,-0.25,0.03,-0.046,0.0,9.81,-0.01,0.0,0.0
1778774814.8520892,-68.2,-0.25,0.03,-0.047,-0.004,9.809,0.0,0.0,0.0
1778774814.8620625,-68.2,-0.25,0.03,-0.047,0.0,9.809,-0.01,0.0,-0.01
1778774814.8720565,-68.2,-0.25,0.03,-0.047,0.001,9.809,-0.01,0.0,-0.01
1778774814.8820577,-68.2,-0.25,0.03,-0.046,0.005,9.809,-0.01,-0.01,0.0
1778774814.8920882,-68.2,-0.25,0.03,-0.043,0.005,9.809,0.0,0.0,0.0
1778774814.9029317,-68.2,-0.25,0.03,-0.034,0.006,9.809,-0.01,0.0,0.0
1778774814.9120963,-68.2,-0.25,0.03,-0.037,0.008,9.809,-0.01,0.0,0.0
1778774814.922075,-68.2,-0.25,0.03,-0.042,0.012,9.809,-0.01,0.0,0.0
1778774814.9320433,-68.2,-0.25,0.03,-0.04,0.011,9.809,-0.01,0.0,0.0
1778774814.9421043,-68.21,-0.25,0.03,-0.037,0.006,9.81,-0.01,0.0,0.0
1778774814.9520717,-68.21,-0.25,0.03,-0.036,0.011,9.81,-0.01,0.0,0.0
1778774814.9620507,-68.21,-0.25,0.03,-0.035,0.012,9.81,0.0,0.0,0.0
1778774814.9720733,-68.21,-0.25,0.03,-0.031,0.008,9.81,-0.01,0.0,0.0
1778774814.9820564,-68.21,-0.25,0.02,-0.032,0.008,9.81,-0.01,0.0,-0.01
1778774814.9920404,-68.21,-0.25,0.02,-0.031,0.007,9.81,-0.01,0.0,0.0
1778774815.002075,-68.21,-0.25,0.02,-0.031,0.005,9.81,-0.01,0.0,0.0
1778774815.0120423,-68.21,-0.25,0.02,-0.03,0.01,9.81,-0.01,-0.01,0.0
1778774815.0220413,-68.21,-0.25,0.02,-0.029,0.007,9.81,-0.01,0.0,0.0
1778774815.0320418,-68.21,-0.25,0.02,-0.035,0.012,9.81,-0.01,-0.01,0.0
1778774815.0420399,-68.21,-0.25,0.02,-0.037,0.01,9.81,-0.01,-0.01,0.0
1778774815.0520422,-68.21,-0.25,0.02,-0.04,0.01,9.81,-0.01,0.0,0.0
1778774815.062042,-68.21,-0.24,0.03,-0.041,0.011,9.81,-0.01,-0.01,0.0
1778774815.0720394,-68.21,-0.24,0.03,-0.036,0.01,9.81,-0.01,0.0,0.0
1778774815.082051,-68.21,-0.24,0.03,-0.037,0.01,9.81,-0.01,0.0,0.0
1778774815.0920358,-68.21,-0.24,0.03,-0.038,0.008,9.81,-0.01,0.0,0.0
1778774815.1020322,-68.21,-0.24,0.03,-0.038,0.012,9.81,-0.01,0.0,0.0
1778774815.112007,-68.21,-0.24,0.03,-0.043,0.012,9.81,-0.01,0.0,0.0
1778774815.1220405,-68.21,-0.24,0.03,-0.043,0.016,9.81,-0.01,0.0,-0.01
1778774815.1320379,-68.21,-0.24,0.03,-0.047,0.013,9.81,0.0,-0.01,0.0
1778774815.1420243,-68.21,-0.24,0.03,-0.05,0.004,9.81,-0.01,-0.01,0.0
1778774815.1519902,-68.21,-0.24,0.03,-0.047,0.002,9.81,-0.01,0.0,0.0
1778774815.1620412,-68.21,-0.24,0.03,-0.046,-0.001,9.81,-0.01,0.0,0.0
1778774815.172022,-68.21,-0.25,0.02,-0.047,-0.002,9.81,-0.01,0.0,0.0
1778774815.1820107,-68.21,-0.25,0.02,-0.049,-0.004,9.81,-0.01,0.0,-0.01
1778774815.191991,-68.21,-0.25,0.02,-0.048,0.0,9.81,-0.01,0.0,0.0
1778774815.2020428,-68.21,-0.25,0.02,-0.043,0.001,9.81,-0.01,0.0,0.0
1778774815.212008,-68.21,-0.25,0.02,-0.042,0.0,9.81,-0.01,0.0,0.0
1778774815.221992,-68.21,-0.25,0.02,-0.041,0.006,9.81,-0.01,0.0,0.0
1778774815.2319746,-68.21,-0.25,0.02,-0.038,0.005,9.81,-0.01,-0.01,0.0
1778774815.2420094,-68.21,-0.25,0.02,-0.042,0.007,9.81,0.0,0.0,0.0
1778774815.2519732,-68.21,-0.24,0.03,-0.041,0.008,9.81,0.0,0.0,0.0
1778774815.2619793,-68.21,-0.24,0.03,-0.047,0.004,9.81,-0.01,-0.01,0.0
1778774815.2720091,-68.21,-0.25,0.02,-0.049,0.008,9.81,-0.01,0.0,0.0
1778774815.2819943,-68.21,-0.25,0.03,-0.051,0.007,9.81,-0.01,0.0,0.0
1778774815.291977,-68.21,-0.25,0.03,-0.053,0.01,9.81,-0.01,0.0,-0.01
1778774815.3019805,-68.21,-0.25,0.03,-0.053,0.01,9.81,-0.01,-0.01,0.0
1778774815.311993,-68.21,-0.25,0.03,-0.05,0.01,9.81,0.0,0.0,0.0
1778774815.3219783,-68.21,-0.25,0.03,-0.048,0.011,9.81,0.0,0.0,0.0
1778774815.3319774,-68.21,-0.25,0.03,-0.044,0.008,9.81,-0.01,-0.01,0.0
1778774815.3411715,-68.21,-0.25,0.03,-0.047,0.007,9.81,-0.01,0.0,-0.01
1778774815.3511386,-68.21,-0.25,0.03,-0.048,0.004,9.81,-0.01,0.0,-0.01
1778774815.3619785,-68.21,-0.25,0.03,-0.044,0.0,9.81,-0.01,0.0,0.0
1778774815.3711715,-68.21,-0.25,0.03,-0.046,0.0,9.81,-0.01,0.0,0.0
1778774815.3811424,-68.21,-0.25,0.03,-0.043,0.0,9.81,-0.01,0.0,0.0
1778774815.391977,-68.21,-0.25,0.03,-0.043,0.0,9.81,-0.01,-0.01,-0.01
1778774815.4019618,-68.21,-0.25,0.03,-0.042,0.002,9.81,-0.01,0.0,-0.01
1778774815.4111557,-68.21,-0.25,0.03,-0.041,0.0,9.81,-0.01,0.0,0.0
1778774815.421144,-68.21,-0.25,0.03,-0.041,0.004,9.81,-0.01,0.0,0.0
1778774815.4311209,-68.21,-0.25,0.03,-0.041,0.005,9.81,-0.01,-0.01,0.0
1778774815.4411335,-68.21,-0.25,0.03,-0.041,0.01,9.81,-0.01,0.0,0.0
1778774815.4511383,-68.21,-0.25,0.03,-0.037,0.007,9.81,-0.01,0.0,0.0
1778774815.461151,-68.21,-0.25,0.03,-0.036,0.005,9.81,0.0,0.0,0.0
1778774815.4719741,-68.21,-0.25,0.03,-0.037,0.005,9.81,-0.01,-0.01,-0.01
1778774815.481116,-68.21,-0.24,0.03,-0.041,0.0,9.81,-0.01,0.0,0.0
1778774815.4911392,-68.21,-0.24,0.03,-0.032,-0.002,9.81,-0.01,0.0,0.0
1778774815.50115,-68.21,-0.24,0.03,-0.035,0.0,9.81,0.0,0.0,0.0
1778774815.5111375,-68.21,-0.24,0.03,-0.037,0.0,9.81,-0.01,0.0,0.0
1778774815.521129,-68.21,-0.24,0.03,-0.041,0.0,9.81,-0.01,0.0,0.0
1778774815.5311687,-68.21,-0.24,0.03,-0.04,0.001,9.81,-0.01,-0.01,0.0
1778774815.5415115,-68.21,-0.24,0.03,-0.035,0.0,9.81,-0.01,0.0,0.0
1778774815.5515938,-68.21,-0.25,0.02,-0.042,-0.002,9.81,-0.01,0.0,0.0
1778774815.5611272,-68.21,-0.25,0.02,-0.044,0.0,9.81,-0.01,0.0,-0.01
1778774815.571085,-68.21,-0.25,0.02,-0.043,0.001,9.81,-0.01,0.0,-0.01
1778774815.5811405,-68.21,-0.25,0.02,-0.044,0.0,9.81,0.0,0.0,0.0
1778774815.5910876,-68.21,-0.25,0.02,-0.04,0.001,9.81,-0.01,0.0,0.0
1778774815.6010926,-68.21,-0.25,0.02,-0.037,0.001,9.81,-0.01,0.0,-0.01
1778774815.6110716,-68.21,-0.25,0.02,-0.036,0.0,9.81,-0.01,-0.01,0.0
1778774815.6211083,-68.21,-0.25,0.02,-0.043,0.0,9.81,-0.01,0.0,0.0
1778774815.6310747,-68.21,-0.25,0.02,-0.048,0.004,9.81,-0.01,0.0,0.0
1778774815.6411405,-68.21,-0.25,0.02,-0.048,0.005,9.81,-0.01,-0.01,0.0
1778774815.6511004,-68.21,-0.25,0.02,-0.048,0.005,9.81,-0.01,-0.01,0.0
1778774815.6613824,-68.21,-0.25,0.02,-0.049,0.001,9.81,-0.01,-0.01,-0.01
1778774815.671097,-68.21,-0.25,0.02,-0.048,0.005,9.81,-0.01,0.0,0.0
1778774815.6810842,-68.21,-0.25,0.02,-0.047,0.006,9.81,-0.01,-0.01,0.0
1778774815.6911008,-68.21,-0.25,0.02,-0.05,0.008,9.81,-0.01,0.0,0.0
1778774815.7010908,-68.21,-0.25,0.02,-0.051,0.004,9.81,-0.01,-0.01,0.0
1778774815.7110813,-68.21,-0.25,0.02,-0.048,0.012,9.81,-0.01,0.0,0.0
1778774815.7210739,-68.21,-0.25,0.02,-0.042,0.011,9.81,-0.01,0.0,-0.01
1778774815.7310402,-68.21,-0.25,0.02,-0.04,0.008,9.81,0.0,-0.01,0.0
1778774815.7411225,-68.21,-0.25,0.02,-0.038,0.008,9.81,-0.01,0.0,0.0
1778774815.751079,-68.21,-0.24,0.03,-0.038,0.004,9.81,-0.01,0.0,0.0
1778774815.7610538,-68.21,-0.24,0.03,-0.037,0.004,9.81,0.0,0.0,-0.01
1778774815.7710931,-68.21,-0.25,0.02,-0.035,0.004,9.81,-0.01,0.0,0.0
1778774815.7810867,-68.21,-0.24,0.03,-0.034,0.005,9.81,-0.01,0.0,0.0
1778774815.791037,-68.21,-0.24,0.03,-0.036,0.006,9.81,0.0,-0.01,0.0
1778774815.801054,-68.21,-0.24,0.03,-0.031,0.004,9.81,0.0,0.0,-0.01
1778774815.8110807,-68.21,-0.24,0.03,-0.032,0.005,9.81,-0.01,0.0,0.0
1778774815.8210552,-68.21,-0.24,0.03,-0.035,0.001,9.81,0.0,0.0,0.0
1778774815.8310988,-68.21,-0.24,0.03,-0.042,0.001,9.81,0.0,-0.01,0.0
1778774815.8410847,-68.21,-0.24,0.03,-0.043,0.006,9.81,-0.01,0.0,0.0
1778774815.8510847,-68.21,-0.24,0.03,-0.044,0.01,9.81,-0.01,-0.01,0.0
1778774815.8610713,-68.21,-0.24,0.03,-0.037,0.006,9.81,-0.01,-0.01,0.0
1778774815.8710506,-68.21,-0.24,0.03,-0.044,-0.001,9.81,-0.01,0.0,0.0
1778774815.8810546,-68.21,-0.24,0.03,-0.044,-0.004,9.81,-0.01,0.0,0.0
1778774815.8910675,-68.21,-0.24,0.03,-0.044,-0.004,9.81,0.0,0.0,0.0
1778774815.9010687,-68.21,-0.24,0.03,-0.042,0.0,9.81,-0.01,0.0,0.0
1778774815.9110494,-68.21,-0.24,0.03,-0.04,0.0,9.81,-0.01,-0.01,-0.01
1778774815.9210567,-68.21,-0.24,0.03,-0.042,0.005,9.81,-0.01,0.0,0.0
1778774815.9310515,-68.21,-0.24,0.03,-0.046,0.006,9.81,-0.01,0.0,0.0
1778774815.9410522,-68.21,-0.24,0.02,-0.046,0.0,9.81,-0.01,-0.01,0.0
1778774815.9510512,-68.21,-0.24,0.02,-0.044,0.001,9.809,-0.01,-0.01,0.0
1778774815.9610538,-68.21,-0.24,0.02,-0.046,0.0,9.809,-0.01,0.0,0.0
1778774815.9710188,-68.21,-0.24,0.02,-0.042,0.002,9.809,-0.01,-0.01,0.0
1778774815.9810653,-68.21,-0.24,0.02,-0.041,0.007,9.809,-0.01,0.0,0.0
1778774815.9910517,-68.21,-0.24,0.02,-0.038,0.012,9.81,-0.01,0.0,-0.01
1778774816.001056,-68.21,-0.24,0.02,-0.036,0.013,9.81,-0.01,-0.01,0.0
1778774816.0117474,-68.21,-0.24,0.02,-0.04,0.011,9.809,-0.01,-0.01,0.0
1778774816.0211189,-68.21,-0.24,0.02,-0.036,0.005,9.809,-0.01,-0.01,0.0
1778774816.0317729,-68.21,-0.24,0.02,-0.034,0.01,9.809,-0.01,0.0,0.0
1778774816.041046,-68.21,-0.24,0.02,-0.037,0.011,9.809,-0.01,0.0,0.0
1778774816.0519116,-68.21,-0.24,0.02,-0.037,0.011,9.809,-0.01,0.0,0.0
1778774816.0619047,-68.21,-0.24,0.02,-0.034,0.013,9.809,-0.01,-0.01,0.0
1778774816.071026,-68.21,-0.24,0.02,-0.037,0.006,9.809,-0.01,0.0,0.0
1778774816.081009,-68.21,-0.24,0.02,-0.037,0.006,9.809,-0.01,-0.01,0.0
1778774816.0909886,-68.21,-0.24,0.02,-0.04,0.007,9.809,-0.01,0.0,0.0
1778774816.101043,-68.21,-0.24,0.02,-0.043,0.011,9.809,-0.01,0.0,0.0
1778774816.1110177,-68.21,-0.24,0.02,-0.044,0.004,9.809,-0.01,0.0,-0.01
1778774816.1210046,-68.21,-0.24,0.02,-0.042,0.005,9.809,-0.01,0.0,0.0
1778774816.131001,-68.21,-0.24,0.02,-0.04,0.001,9.809,-0.01,0.0,-0.01
1778774816.1409872,-68.21,-0.24,0.02,-0.041,0.0,9.809,-0.01,0.0,-0.01
1778774816.1501951,-68.21,-0.24,0.02,-0.042,0.002,9.809,-0.01,0.0,0.0
1778774816.160986,-68.21,-0.24,0.02,-0.049,0.005,9.809,0.0,0.0,0.0
1778774816.1701612,-68.21,-0.24,0.02,-0.049,0.004,9.809,0.0,0.0,0.0
1778774816.181004,-68.21,-0.24,0.02,-0.047,0.002,9.809,-0.01,0.0,0.0
1778774816.1909678,-68.21,-0.24,0.02,-0.048,0.002,9.809,-0.01,0.0,0.0
1778774816.200144,-68.21,-0.24,0.02,-0.048,0.002,9.809,-0.01,0.0,0.0
1778774816.2109854,-68.21,-0.24,0.02,-0.044,-0.001,9.809,-0.01,0.0,0.0
1778774816.2209697,-68.21,-0.24,0.02,-0.041,0.001,9.809,-0.01,0.0,0.0
1778774816.2301474,-68.21,-0.24,0.02,-0.044,0.0,9.809,-0.01,0.0,0.0
1778774816.2409687,-68.21,-0.24,0.02,-0.043,0.002,9.809,-0.01,0.0,0.0
1778774816.2501228,-68.21,-0.24,0.02,-0.043,0.004,9.809,-0.01,0.0,0.0
1778774816.2601213,-68.21,-0.24,0.02,-0.047,0.004,9.809,-0.01,-0.01,0.0
1778774816.2709692,-68.21,-0.24,0.02,-0.044,-0.002,9.809,-0.01,0.0,0.0
1778774816.2801387,-68.21,-0.24,0.02,-0.043,-0.005,9.809,0.0,0.0,0.0
1778774816.2909842,-68.21,-0.24,0.02,-0.047,-0.001,9.809,-0.01,0.0,0.0
1778774816.3001554,-68.21,-0.24,0.02,-0.046,-0.006,9.809,-0.01,0.0,0.0
1778774816.3101246,-68.21,-0.24,0.02,-0.046,-0.004,9.809,-0.01,0.0,0.0
1778774816.3201232,-68.21,-0.24,0.02,-0.046,-0.001,9.809,-0.01,0.0,0.0
1778774816.3305948,-68.21,-0.24,0.02,-0.047,0.002,9.809,-0.01,0.0,0.0
1778774816.3401399,-68.21,-0.24,0.02,-0.035,0.006,9.809,-0.01,-0.01,-0.01
1778774816.3501241,-68.21,-0.24,0.02,-0.038,0.002,9.809,-0.01,0.0,0.0
1778774816.360123,-68.21,-0.24,0.02,-0.04,0.005,9.809,-0.01,0.0,0.0
1778774816.3701463,-68.21,-0.24,0.02,-0.04,0.004,9.809,-0.01,0.0,0.0
1778774816.380123,-68.21,-0.24,0.02,-0.035,0.006,9.809,0.0,-0.01,0.0
1778774816.3901122,-68.21,-0.24,0.02,-0.04,0.008,9.809,-0.01,0.0,0.0
1778774816.4001215,-68.21,-0.24,0.02,-0.04,0.01,9.809,-0.01,0.0,0.0
1778774816.4101021,-68.21,-0.24,0.02,-0.042,0.008,9.809,-0.01,-0.01,0.0
1778774816.4200919,-68.21,-0.24,0.02,-0.043,0.013,9.809,0.0,0.0,0.0
1778774816.4301043,-68.21,-0.24,0.02,-0.043,0.017,9.809,-0.01,0.0,0.0
1778774816.4401205,-68.21,-0.24,0.02,-0.042,0.007,9.809,-0.01,0.0,0.0
1778774816.450087,-68.21,-0.24,0.02,-0.042,0.001,9.809,-0.01,0.0,0.0
1778774816.4600868,-68.21,-0.24,0.02,-0.04,0.007,9.809,-0.01,0.0,0.0
1778774816.4701214,-68.21,-0.24,0.02,-0.04,0.006,9.809,-0.01,0.0,0.0
1778774816.4800782,-68.21,-0.24,0.02,-0.036,0.008,9.809,-0.01,0.0,0.0
1778774816.4900804,-68.21,-0.24,0.02,-0.035,0.012,9.809,-0.01,-0.01,0.0
1778774816.5001237,-68.21,-0.24,0.02,-0.034,0.01,9.809,-0.01,0.0,0.0
1778774816.510077,-68.21,-0.24,0.02,-0.037,0.004,9.809,-0.01,0.0,0.0
1778774816.5200887,-68.21,-0.24,0.02,-0.042,0.001,9.809,0.0,-0.01,0.0
1778774816.5300646,-68.21,-0.24,0.02,-0.042,0.004,9.809,-0.01,0.0,0.0
1778774816.5400937,-68.21,-0.24,0.02,-0.044,0.006,9.809,-0.01,0.0,0.0
1778774816.5500789,-68.21,-0.24,0.02,-0.046,0.004,9.809,-0.01,0.0,0.0
1778774816.56002,-68.21,-0.24,0.02,-0.044,0.008,9.809,-0.01,0.0,0.0
1778774816.5700853,-68.21,-0.24,0.02,-0.043,0.011,9.809,-0.01,0.0,0.0
1778774816.5800946,-68.21,-0.24,0.02,-0.04,0.006,9.809,0.0,-0.01,-0.01
1778774816.590078,-68.21,-0.24,0.02,-0.037,0.0,9.809,-0.01,0.0,-0.01
1778774816.600063,-68.21,-0.24,0.02,-0.036,0.005,9.809,0.0,0.0,-0.01
1778774816.610077,-68.21,-0.24,0.02,-0.037,0.006,9.809,0.0,-0.01,0.0
1778774816.620069,-68.21,-0.24,0.02,-0.037,0.007,9.809,0.0,0.0,0.0
1778774816.630039,-68.21,-0.24,0.02,-0.038,0.001,9.809,0.0,0.0,-0.01
1778774816.6400816,-68.21,-0.24,0.02,-0.044,0.002,9.809,0.0,0.0,-0.01
1778774816.6500828,-68.21,-0.24,0.02,-0.048,0.006,9.809,-0.01,0.0,-0.01
1778774816.6600704,-68.21,-0.24,0.02,-0.048,0.006,9.809,0.0,0.0,-0.01
1778774816.6701515,-68.21,-0.24,0.02,-0.044,0.0,9.809,0.0,0.0,0.0
1778774816.680049,-68.21,-0.24,0.02,-0.044,0.0,9.809,0.0,0.0,-0.01
1778774816.690057,-68.21,-0.24,0.02,-0.046,0.005,9.809,0.0,0.0,-0.01
1778774816.700078,-68.21,-0.24,0.02,-0.046,0.006,9.809,0.0,0.0,-0.01
1778774816.710044,-68.21,-0.24,0.02,-0.043,0.008,9.809,0.0,0.0,-0.01
1778774816.7200427,-68.21,-0.24,0.02,-0.043,0.006,9.809,0.0,0.0,-0.01
1778774816.7300618,-68.21,-0.24,0.02,-0.038,0.008,9.809,0.0,0.0,-0.01
1778774816.7400434,-68.21,-0.24,0.02,-0.038,0.005,9.809,-0.01,-0.01,0.0
1778774816.7500436,-68.21,-0.24,0.02,-0.035,0.01,9.809,0.0,0.0,-0.01
1778774816.7600434,-68.21,-0.24,0.02,-0.032,0.01,9.809,0.0,-0.01,-0.01
1778774816.7700663,-68.21,-0.24,0.02,-0.04,0.012,9.809,0.0,0.0,-0.01
1778774816.7805095,-68.21,-0.24,0.02,-0.038,0.012,9.809,0.0,-0.01,-0.01
1778774816.790067,-68.21,-0.24,0.02,-0.041,0.012,9.809,0.0,0.0,0.0
1778774816.8000665,-68.21,-0.24,0.03,-0.04,0.008,9.809,0.0,0.0,0.0
1778774816.8100493,-68.21,-0.24,0.02,-0.042,0.004,9.809,0.0,0.0,-0.01
1778774816.8200324,-68.21,-0.24,0.02,-0.036,0.006,9.809,-0.01,0.0,0.0
1778774816.8300178,-68.21,-0.24,0.02,-0.036,0.004,9.809,0.0,0.0,-0.01
1778774816.8400464,-68.21,-0.24,0.02,-0.04,0.005,9.809,0.0,-0.01,-0.01
1778774816.8500514,-68.21,-0.24,0.02,-0.043,0.006,9.809,0.0,0.0,-0.01
1778774816.8599982,-68.21,-0.25,0.02,-0.042,0.005,9.809,-0.01,0.0,-0.01
1778774816.869998,-68.21,-0.25,0.02,-0.044,0.005,9.809,0.0,0.0,0.0
1778774816.8800383,-68.21,-0.25,0.02,-0.047,0.007,9.809,0.0,0.0,-0.01
1778774816.8900242,-68.21,-0.25,0.02,-0.043,0.004,9.809,0.0,0.0,-0.01
1778774816.8999932,-68.21,-0.25,0.02,-0.046,0.008,9.809,0.0,0.0,0.0
1778774816.9100409,-68.21,-0.25,0.02,-0.044,0.006,9.809,0.0,0.0,-0.01
1778774816.9200196,-68.21,-0.25,0.02,-0.044,0.008,9.809,-0.01,0.0,-0.01
1778774816.9300022,-68.21,-0.25,0.02,-0.042,0.01,9.809,0.0,0.0,-0.01
1778774816.9400826,-68.21,-0.24,0.03,-0.044,0.01,9.809,0.0,0.0,0.0
1778774816.9508348,-68.21,-0.24,0.03,-0.041,0.008,9.809,0.0,0.0,-0.01
1778774816.9600036,-68.21,-0.24,0.03,-0.042,0.006,9.809,0.0,-0.01,-0.01
1778774816.9699867,-68.21,-0.24,0.03,-0.043,0.008,9.809,-0.01,-0.01,-0.01
1778774816.9799805,-68.21,-0.24,0.03,-0.042,0.011,9.809,0.0,-0.01,-0.01
1778774816.9900267,-68.21,-0.24,0.03,-0.042,0.01,9.809,-0.01,0.0,0.0
1778774816.9999943,-68.21,-0.24,0.03,-0.043,0.012,9.809,0.0,0.0,-0.01
1778774817.0099874,-68.21,-0.24,0.03,-0.042,0.008,9.809,0.0,0.0,-0.01
1778774817.0191524,-68.21,-0.24,0.03,-0.042,0.007,9.809,-0.01,0.0,-0.01
1778774817.029142,-68.21,-0.24,0.03,-0.041,0.002,9.809,0.0,-0.01,-0.01
1778774817.0400019,-68.21,-0.24,0.03,-0.04,0.0,9.809,-0.01,0.0,-0.01
1778774817.0499878,-68.21,-0.24,0.03,-0.038,0.004,9.809,0.0,0.0,0.0
1778774817.0591471,-68.21,-0.24,0.03,-0.038,0.004,9.809,0.0,0.0,-0.01
1778774817.070002,-68.21,-0.24,0.03,-0.041,0.01,9.809,0.0,0.0,-0.01
1778774817.079984,-68.21,-0.24,0.03,-0.04,0.011,9.809,0.0,0.0,-0.01
1778774817.0891662,-68.21,-0.24,0.03,-0.044,0.006,9.809,0.0,0.0,-0.01
1778774817.0991495,-68.21,-0.24,0.03,-0.046,0.006,9.809,0.0,0.0,-0.01
1778774817.1100016,-68.21,-0.24,0.03,-0.046,0.006,9.809,0.0,0.0,-0.01
1778774817.1199672,-68.21,-0.24,0.03,-0.044,0.005,9.809,0.0,-0.01,-0.01
1778774817.129619,-68.21,-0.24,0.03,-0.038,0.002,9.809,0.0,0.0,0.0
1778774817.1403716,-68.21,-0.24,0.03,-0.038,0.001,9.809,0.0,-0.01,-0.01
1778774817.1495156,-68.21,-0.24,0.03,-0.034,-0.001,9.809,0.0,0.0,0.0
1778774817.1591423,-68.21,-0.24,0.03,-0.032,0.0,9.809,0.0,0.0,-0.01
1778774817.1699607,-68.21,-0.24,0.03,-0.029,0.004,9.809,0.0,0.0,-0.01
1778774817.1791506,-68.21,-0.24,0.03,-0.032,0.007,9.809,0.0,0.0,-0.01
1778774817.1891463,-68.21,-0.24,0.03,-0.031,0.007,9.809,0.0,0.0,-0.01
1778774817.1991377,-68.21,-0.24,0.03,-0.035,0.0,9.809,0.0,-0.01,-0.01
1778774817.2091293,-68.21,-0.24,0.03,-0.04,0.0,9.809,0.0,-0.01,0.0
1778774817.2191365,-68.21,-0.24,0.03,-0.032,0.005,9.809,0.0,0.0,-0.01
1778774817.2291436,-68.22,-0.24,0.03,-0.037,0.005,9.81,-0.01,-0.01,0.0
1778774817.2391012,-68.22,-0.24,0.03,-0.042,0.002,9.81,0.0,0.0,-0.01
1778774817.2491016,-68.22,-0.24,0.03,-0.04,0.007,9.809,0.0,0.0,0.0
1778774817.259119,-68.22,-0.24,0.03,-0.044,0.006,9.81,0.0,0.0,0.0
1778774817.2691047,-68.22,-0.24,0.03,-0.042,0.002,9.81,-0.01,0.0,-0.01
1778774817.2791317,-68.22,-0.24,0.03,-0.041,-0.001,9.809,0.0,0.0,-0.01
1778774817.2891202,-68.22,-0.24,0.03,-0.042,-0.005,9.809,0.0,0.0,0.0
1778774817.2990854,-68.22,-0.24,0.03,-0.044,0.0,9.809,0.0,0.0,-0.01
1778774817.309123,-68.22,-0.24,0.03,-0.046,0.004,9.809,0.0,-0.01,-0.01
1778774817.3191001,-68.22,-0.24,0.03,-0.046,0.001,9.809,0.0,0.0,0.0
1778774817.329092,-68.22,-0.24,0.03,-0.047,0.001,9.809,0.0,-0.01,-0.01
1778774817.3390577,-68.22,-0.24,0.03,-0.051,0.0,9.809,0.0,0.0,-0.01
1778774817.3491075,-68.22,-0.24,0.03,-0.051,0.002,9.809,0.0,0.0,-0.01
1778774817.3590844,-68.22,-0.24,0.03,-0.049,0.0,9.809,0.0,-0.01,-0.01
1778774817.3690605,-68.22,-0.24,0.03,-0.046,0.002,9.809,0.0,0.0,-0.01
1778774817.379112,-68.22,-0.24,0.03,-0.049,0.005,9.806,0.0,0.0,-0.01
1778774817.389075,-68.22,-0.24,0.03,-0.049,0.0,9.806,0.0,0.0,-0.01
1778774817.399047,-68.22,-0.24,0.03,-0.047,0.001,9.808,-0.01,0.0,-0.01
1778774817.4090872,-68.22,-0.24,0.03,-0.048,0.0,9.808,0.0,-0.01,0.0
1778774817.4190686,-68.22,-0.25,0.02,-0.048,0.001,9.808,0.0,0.0,0.0
1778774817.4290633,-68.22,-0.24,0.03,-0.046,0.002,9.808,-0.01,0.0,-0.01
1778774817.439085,-68.22,-0.24,0.03,-0.044,0.0,9.809,0.0,0.0,0.0
1778774817.4490745,-68.22,-0.25,0.02,-0.042,0.0,9.809,0.0,-0.01,-0.01
1778774817.4590874,-68.22,-0.25,0.02,-0.046,0.005,9.809,-0.01,-0.01,-0.01
1778774817.4690785,-68.22,-0.25,0.02,-0.05,0.002,9.809,0.0,0.0,-0.01
1778774817.479042,-68.22,-0.25,0.02,-0.055,0.004,9.809,0.0,0.0,-0.01
1778774817.4890945,-68.22,-0.25,0.03,-0.046,-0.001,9.809,0.0,0.0,-0.01
1778774817.499071,-68.22,-0.25,0.02,-0.046,-0.004,9.809,0.0,0.0,-0.01
1778774817.50905,-68.22,-0.25,0.02,-0.043,0.0,9.809,0.0,0.0,-0.01
1778774817.519075,-68.22,-0.25,0.02,-0.038,-0.005,9.809,0.0,0.0,-0.01
1778774817.5290625,-68.22,-0.25,0.02,-0.037,-0.007,9.809,0.0,0.0,-0.01
1778774817.5390725,-68.22,-0.25,0.02,-0.037,0.0,9.809,0.0,0.0,0.0
1778774817.549081,-68.22,-0.25,0.02,-0.037,-0.002,9.809,-0.01,-0.01,-0.01
1778774817.5590389,-68.22,-0.25,0.02,-0.046,0.0,9.809,0.0,-0.01,-0.01
1778774817.569045,-68.22,-0.25,0.02,-0.049,0.002,9.809,0.0,-0.01,-0.01
1778774817.5790431,-68.22,-0.25,0.02,-0.046,0.004,9.809,0.0,0.0,-0.01
1778774817.5890799,-68.22,-0.25,0.02,-0.034,-0.004,9.809,0.0,0.0,-0.01
1778774817.599043,-68.22,-0.25,0.02,-0.036,0.001,9.809,0.0,0.0,-0.01
1778774817.6090505,-68.22,-0.25,0.02,-0.036,-0.001,9.809,0.0,0.0,-0.01
1778774817.619044,-68.22,-0.25,0.02,-0.035,0.002,9.809,0.0,0.0,-0.01
1778774817.629046,-68.22,-0.25,0.02,-0.036,0.005,9.809,0.0,-0.01,-0.01
1778774817.639028,-68.22,-0.25,0.02,-0.041,0.002,9.809,0.0,0.0,-0.01
1778774817.6490624,-68.22,-0.25,0.02,-0.035,0.002,9.809,-0.01,0.0,-0.01
1778774817.6590466,-68.22,-0.25,0.02,-0.042,0.004,9.809,0.0,0.0,-0.01
1778774817.6690173,-68.22,-0.25,0.02,-0.043,0.004,9.809,0.0,0.0,0.0
1778774817.6790483,-68.22,-0.25,0.02,-0.038,0.001,9.809,0.0,0.0,-0.01
1778774817.6890526,-68.22,-0.25,0.02,-0.036,-0.001,9.809,0.0,-0.01,-0.01
1778774817.6989954,-68.22,-0.25,0.02,-0.036,0.0,9.809,0.0,0.0,0.0
1778774817.7097583,-68.22,-0.25,0.02,-0.037,0.0,9.809,0.0,0.0,-0.01
1778774817.719033,-68.22,-0.25,0.02,-0.04,0.0,9.804,0.0,0.0,-0.01
1778774817.7290068,-68.22,-0.25,0.02,-0.04,0.001,9.805,0.0,-0.01,-0.01
1778774817.7390463,-68.22,-0.25,0.02,-0.04,0.0,9.806,0.0,-0.01,-0.01
1778774817.7490227,-68.22,-0.25,0.02,-0.034,0.0,9.806,0.0,0.0,-0.01
1778774817.758998,-68.22,-0.25,0.02,-0.038,0.007,9.808,0.0,0.0,-0.01
1778774817.768985,-68.22,-0.25,0.02,-0.034,0.005,9.808,-0.01,0.0,-0.01
1778774817.7790341,-68.22,-0.25,0.02,-0.041,0.004,9.808,-0.01,0.0,-0.01
1778774817.7890189,-68.22,-0.25,0.02,-0.041,-0.001,9.809,0.0,-0.01,0.0
1778774817.7989974,-68.22,-0.25,0.02,-0.042,-0.004,9.809,0.0,0.0,-0.01
1778774817.809042,-68.22,-0.25,0.02,-0.043,-0.005,9.809,0.0,0.0,0.0
1778774817.8190327,-68.22,-0.25,0.02,-0.042,-0.001,9.809,0.0,0.0,-0.01
1778774817.8290105,-68.22,-0.25,0.02,-0.037,-0.002,9.809,0.0,0.0,-0.01
1778774817.8389952,-68.22,-0.25,0.02,-0.037,-0.006,9.809,0.0,0.0,-0.01
1778774817.84904,-68.22,-0.25,0.02,-0.032,-0.004,9.809,0.0,0.0,-0.01
1778774817.8590302,-68.22,-0.25,0.02,-0.034,-0.005,9.809,0.0,0.0,-0.01
1778774817.8690162,-68.22,-0.25,0.02,-0.034,0.002,9.809,0.0,-0.01,-0.01
1778774817.8789923,-68.22,-0.25,0.02,-0.04,0.001,9.809,0.0,0.0,-0.01
1778774817.8881924,-68.22,-0.25,0.02,-0.043,0.0,9.809,-0.01,0.0,-0.01
1778774817.8990028,-68.22,-0.25,0.02,-0.037,0.0,9.809,0.0,0.0,-0.01
1778774817.9089785,-68.22,-0.25,0.02,-0.034,0.0,9.809,0.0,0.0,-0.01
1778774817.9182162,-68.22,-0.24,0.02,-0.032,-0.001,9.809,-0.01,0.0,-0.01
1778774817.9289718,-68.22,-0.24,0.02,-0.031,0.005,9.809,-0.01,-0.01,-0.01
1778774817.9381547,-68.22,-0.24,0.02,-0.032,0.005,9.809,0.0,0.0,-0.01
1778774817.9491148,-68.22,-0.24,0.02,-0.034,0.004,9.809,0.0,0.0,-0.01
1778774817.9589856,-68.22,-0.24,0.02,-0.036,0.006,9.809,-0.01,-0.01,-0.01
1778774817.9681864,-68.22,-0.24,0.02,-0.031,0.001,9.809,-0.01,0.0,-0.01
1778774817.9781556,-68.22,-0.24,0.02,-0.037,0.001,9.809,0.0,0.0,-0.01
1778774817.988985,-68.22,-0.24,0.02,-0.04,0.0,9.809,0.0,-0.01,-0.01
1778774817.998167,-68.22,-0.24,0.02,-0.038,-0.002,9.809,0.0,0.0,-0.01
1778774818.0081508,-68.22,-0.24,0.02,-0.04,-0.005,9.809,0.0,0.0,-0.01
1778774818.018964,-68.22,-0.24,0.02,-0.044,-0.002,9.809,0.0,0.0,-0.01
1778774818.0281525,-68.22,-0.24,0.02,-0.042,0.0,9.809,0.0,0.0,-0.01
1778774818.038134,-68.22,-0.24,0.02,-0.043,-0.002,9.809,0.0,0.0,-0.01
1778774818.0481362,-68.22,-0.24,0.01,-0.04,0.0,9.809,0.0,0.0,-0.01
1778774818.0581355,-68.22,-0.24,0.02,-0.042,0.0,9.809,-0.01,-0.01,-0.01
1778774818.0681114,-68.22,-0.24,0.02,-0.037,-0.001,9.809,0.0,0.0,0.0
1778774818.0781126,-68.22,-0.24,0.01,-0.04,0.0,9.809,0.0,0.0,-0.01
1778774818.0881279,-68.22,-0.24,0.01,-0.04,0.004,9.809,0.0,0.0,-0.01
1778774818.0981834,-68.22,-0.24,0.02,-0.042,0.01,9.809,0.0,-0.01,-0.01
1778774818.1081367,-68.22,-0.24,0.02,-0.043,0.008,9.809,0.0,0.0,-0.01
1778774818.1181133,-68.22,-0.24,0.02,-0.04,0.007,9.809,0.0,0.0,-0.01
1778774818.1281188,-68.22,-0.24,0.02,-0.04,0.005,9.809,0.0,0.0,-0.01
1778774818.1381326,-68.22,-0.24,0.02,-0.04,0.004,9.809,0.0,0.0,-0.01
1778774818.148131,-68.22,-0.24,0.02,-0.037,0.005,9.809,0.0,0.0,-0.01
1778774818.1584766,-68.22,-0.24,0.02,-0.036,0.007,9.809,0.0,-0.01,-0.01
1778774818.1680765,-68.22,-0.24,0.02,-0.035,0.006,9.809,0.0,0.0,-0.01
1778774818.1781034,-68.22,-0.24,0.02,-0.035,0.005,9.809,0.0,0.0,-0.01
1778774818.1881,-68.22,-0.24,0.02,-0.038,0.005,9.809,0.0,0.0,-0.01
1778774818.1980944,-68.22,-0.24,0.02,-0.041,0.002,9.81,-0.01,-0.01,-0.01
1778774818.208097,-68.22,-0.24,0.02,-0.043,0.002,9.81,-0.01,-0.01,-0.01
1778774818.2180772,-68.22,-0.24,0.02,-0.044,0.002,9.81,-0.01,0.0,-0.01
1778774818.2280645,-68.22,-0.24,0.02,-0.046,0.002,9.81,0.0,0.0,-0.01
1778774818.2381022,-68.22,-0.24,0.02,-0.046,-0.004,9.81,0.0,0.0,0.0
1778774818.2480893,-68.22,-0.24,0.01,-0.043,-0.001,9.81,0.0,-0.01,-0.01
1778774818.2580874,-68.22,-0.24,0.01,-0.044,0.001,9.809,0.0,0.0,-0.01
1778774818.268098,-68.22,-0.24,0.01,-0.036,-0.004,9.81,0.0,0.0,0.0
1778774818.2780898,-68.22,-0.24,0.01,-0.041,-0.001,9.81,0.0,0.0,-0.01
1778774818.2880645,-68.22,-0.24,0.01,-0.042,0.004,9.81,0.0,0.0,-0.01
1778774818.2980494,-68.22,-0.24,0.01,-0.046,0.006,9.81,0.0,0.0,-0.01
1778774818.3080952,-68.22,-0.24,0.01,-0.044,0.005,9.81,0.0,0.0,-0.01
1778774818.3180861,-68.22,-0.24,0.01,-0.046,-0.001,9.809,-0.01,0.0,-0.01
1778774818.3280637,-68.22,-0.24,0.01,-0.044,0.0,9.81,-0.01,0.0,0.0
1778774818.3380458,-68.22,-0.24,0.01,-0.043,0.006,9.81,-0.01,0.0,-0.01
1778774818.348077,-68.22,-0.24,0.01,-0.041,0.008,9.81,0.0,0.0,-0.01
1778774818.3580792,-68.22,-0.24,0.01,-0.04,0.005,9.81,0.0,0.0,-0.01
1778774818.368041,-68.22,-0.25,0.02,-0.04,0.007,9.81,-0.01,0.0,-0.01
1778774818.3780544,-68.22,-0.25,0.02,-0.042,0.004,9.81,0.0,0.0,-0.01
1778774818.3880932,-68.22,-0.25,0.02,-0.047,0.002,9.81,0.0,0.0,-0.01
1778774818.3980489,-68.22,-0.25,0.02,-0.048,0.001,9.81,0.0,-0.01,-0.01
1778774818.4080465,-68.22,-0.25,0.02,-0.047,0.004,9.81,-0.01,0.0,-0.01
1778774818.4180408,-68.22,-0.25,0.02,-0.047,0.007,9.81,0.0,0.0,-0.01
1778774818.4280655,-68.22,-0.25,0.02,-0.043,0.008,9.81,0.0,0.0,-0.01
1778774818.4380562,-68.22,-0.25,0.02,-0.047,0.002,9.81,0.0,0.0,0.0
1778774818.4480376,-68.22,-0.25,0.02,-0.047,0.005,9.81,0.0,0.0,-0.01
1778774818.4580503,-68.22,-0.25,0.02,-0.043,0.006,9.81,-0.01,0.0,-0.01
1778774818.468065,-68.22,-0.25,0.02,-0.041,0.006,9.809,0.0,0.0,-0.01
1778774818.478049,-68.22,-0.25,0.02,-0.036,0.005,9.809,0.0,0.0,0.0
1778774818.488036,-68.22,-0.25,0.02,-0.041,0.005,9.809,0.0,0.0,-0.01
1778774818.4980521,-68.22,-0.25,0.02,-0.046,0.002,9.809,0.0,0.0,-0.01
1778774818.5080678,-68.22,-0.25,0.02,-0.046,0.0,9.81,0.0,-0.01,-0.01
1778774818.5180287,-68.22,-0.25,0.02,-0.042,0.0,9.81,0.0,0.0,-0.01
1778774818.5280514,-68.22,-0.25,0.02,-0.042,0.004,9.81,0.0,-0.01,-0.01
1778774818.5380657,-68.22,-0.25,0.02,-0.041,0.0,9.81,0.0,-0.01,-0.01
1778774818.5480366,-68.22,-0.25,0.02,-0.041,0.006,9.81,0.0,0.0,-0.01
1778774818.5580509,-68.22,-0.25,0.02,-0.043,0.012,9.809,0.0,0.0,0.0
1778774818.5680134,-68.22,-0.25,0.02,-0.04,0.01,9.809,0.0,0.0,0.0
1778774818.578062,-68.22,-0.25,0.02,-0.047,0.01,9.809,0.0,0.0,-0.01
1778774818.5880208,-68.22,-0.25,0.02,-0.049,0.01,9.81,0.0,0.0,-0.01
1778774818.598014,-68.22,-0.25,0.02,-0.05,0.005,9.81,0.0,0.0,-0.01
1778774818.608008,-68.21,-0.25,0.02,-0.051,0.006,9.809,-0.01,-0.01,-0.01
1778774818.618053,-68.21,-0.26,0.02,-0.048,0.004,9.809,0.0,0.0,-0.01
1778774818.6280165,-68.21,-0.25,0.02,-0.048,0.001,9.809,0.0,0.0,-0.01
1778774818.6379948,-68.21,-0.25,0.02,-0.043,0.0,9.809,0.0,0.0,-0.01
1778774818.6480062,-68.21,-0.25,0.02,-0.04,0.004,9.809,-0.01,-0.01,-0.01
1778774818.6580544,-68.21,-0.25,0.02,-0.038,0.004,9.809,0.0,0.0,-0.01
1778774818.6680276,-68.21,-0.25,0.02,-0.038,0.004,9.809,0.0,0.0,-0.01
1778774818.6788752,-68.21,-0.25,0.02,-0.036,0.007,9.809,0.0,0.0,-0.01
1778774818.687977,-68.21,-0.25,0.02,-0.037,0.01,9.809,-0.01,0.0,0.0
1778774818.6980073,-68.21,-0.25,0.02,-0.04,0.006,9.809,-0.01,0.0,0.0
1778774818.7079992,-68.22,-0.25,0.02,-0.041,0.002,9.81,0.0,-0.01,-0.01
1778774818.7180061,-68.21,-0.25,0.02,-0.041,0.001,9.809,-0.01,-0.01,-0.01
1778774818.7279825,-68.21,-0.25,0.02,-0.041,0.004,9.809,-0.01,0.0,-0.01
1778774818.7389047,-68.22,-0.25,0.02,-0.042,0.005,9.81,0.0,0.0,0.0
1778774818.7480159,-68.22,-0.25,0.02,-0.042,0.006,9.81,0.0,0.0,0.0
1778774818.7588496,-68.22,-0.25,0.02,-0.042,0.005,9.81,0.0,0.0,-0.01
1778774818.7688847,-68.21,-0.25,0.02,-0.04,0.006,9.809,-0.01,0.0,-0.01
1778774818.7788553,-68.21,-0.25,0.02,-0.042,0.008,9.809,0.0,-0.01,-0.01
1778774818.7874389,-68.21,-0.25,0.02,-0.041,0.006,9.809,0.0,0.0,-0.01
1778774818.7980127,-68.21,-0.25,0.02,-0.036,0.006,9.809,0.0,0.0,-0.01
1778774818.8071408,-68.21,-0.25,0.02,-0.04,0.008,9.809,0.0,0.0,0.0
1778774818.817984,-68.21,-0.25,0.02,-0.041,0.01,9.809,0.0,0.0,0.0
1778774818.8271205,-68.21,-0.25,0.02,-0.044,0.007,9.809,0.0,0.0,-0.01
1778774818.8371317,-68.21,-0.25,0.02,-0.04,0.002,9.809,0.0,0.0,-0.01
1778774818.8471334,-68.21,-0.25,0.02,-0.04,0.0,9.809,0.0,0.0,-0.01
1778774818.8571286,-68.21,-0.25,0.02,-0.04,0.006,9.809,0.0,0.0,-0.01
1778774818.8679867,-68.21,-0.25,0.02,-0.036,0.005,9.809,0.0,0.0,-0.01
1778774818.8771336,-68.21,-0.25,0.02,-0.035,0.0,9.809,0.0,0.0,-0.01
1778774818.8879814,-68.21,-0.25,0.02,-0.038,-0.002,9.809,0.0,0.0,0.0
1778774818.8971384,-68.21,-0.25,0.02,-0.038,-0.002,9.809,0.0,-0.01,-0.01
1778774818.9071248,-68.21,-0.25,0.02,-0.035,-0.002,9.809,0.0,0.0,-0.01
1778774818.9171119,-68.21,-0.25,0.02,-0.037,-0.001,9.809,0.0,0.0,-0.01
1778774818.9271066,-68.21,-0.25,0.02,-0.038,0.001,9.809,0.0,0.0,-0.01
1778774818.9371116,-68.21,-0.25,0.02,-0.036,0.004,9.809,0.0,0.0,-0.01
1778774818.9471066,-68.21,-0.25,0.02,-0.042,0.004,9.809,0.0,0.0,-0.01
1778774818.9571106,-68.21,-0.25,0.02,-0.035,0.005,9.809,-0.01,0.0,-0.01
1778774818.9671066,-68.21,-0.25,0.02,-0.038,0.01,9.809,0.0,0.0,0.0
1778774818.977112,-68.21,-0.25,0.02,-0.04,0.008,9.809,0.0,0.0,0.0
1778774818.9871247,-68.21,-0.25,0.02,-0.042,0.004,9.809,0.0,0.0,-0.01
1778774818.997127,-68.21,-0.25,0.02,-0.042,0.007,9.809,-0.01,0.0,-0.01
1778774819.007082,-68.21,-0.25,0.02,-0.04,0.007,9.809,0.0,0.0,0.0
1778774819.0171309,-68.21,-0.25,0.02,-0.037,0.007,9.809,-0.01,0.0,-0.01
1778774819.027079,-68.21,-0.25,0.02,-0.038,0.005,9.809,0.0,0.0,-0.01
1778774819.0370977,-68.21,-0.25,0.02,-0.038,0.005,9.809,0.0,-0.01,-0.01
1778774819.0471053,-68.21,-0.25,0.02,-0.038,0.004,9.809,0.0,0.0,-0.01
1778774819.0571132,-68.21,-0.25,0.02,-0.038,0.001,9.809,0.0,0.0,-0.01
1778774819.067082,-68.21,-0.25,0.02,-0.042,0.002,9.809,0.0,0.0,-0.01
1778774819.0771294,-68.21,-0.25,0.02,-0.038,0.007,9.808,0.0,0.0,-0.01
1778774819.0870976,-68.21,-0.25,0.02,-0.038,0.008,9.809,-0.01,0.0,0.0
1778774819.0970848,-68.21,-0.25,0.02,-0.044,0.005,9.809,0.0,0.0,-0.01
1778774819.1070673,-68.21,-0.25,0.02,-0.043,0.008,9.809,0.0,-0.01,-0.01
1778774819.1171243,-68.21,-0.25,0.02,-0.041,0.007,9.809,0.0,0.0,-0.01
1778774819.1270847,-68.21,-0.25,0.02,-0.04,0.006,9.809,-0.01,0.0,-0.01
1778774819.1370893,-68.21,-0.25,0.02,-0.037,0.006,9.809,0.0,-0.01,0.0
1778774819.1470559,-68.21,-0.25,0.02,-0.038,0.005,9.809,0.0,0.0,-0.01
1778774819.157116,-68.21,-0.25,0.02,-0.041,0.007,9.809,0.0,-0.01,-0.01
1778774819.1670704,-68.21,-0.25,0.02,-0.043,0.006,9.809,0.0,0.0,0.0
1778774819.1782303,-68.21,-0.25,0.02,-0.041,0.005,9.809,-0.01,0.0,-0.01
1778774819.1879578,-68.21,-0.25,0.02,-0.036,0.005,9.809,0.0,-0.01,-0.01
1778774819.1973753,-68.21,-0.25,0.02,-0.035,0.002,9.809,0.0,-0.01,-0.01
1778774819.2073004,-68.21,-0.24,0.02,-0.037,0.005,9.809,0.0,0.0,-0.01
1778774819.2179182,-68.21,-0.24,0.02,-0.037,0.005,9.809,0.0,0.0,0.0
1778774819.2270455,-68.21,-0.24,0.02,-0.043,0.006,9.809,0.0,-0.01,0.0
1778774819.2370598,-68.21,-0.24,0.02,-0.046,0.008,9.809,-0.01,-0.01,-0.01
1778774819.2470548,-68.21,-0.24,0.02,-0.05,0.006,9.809,-0.01,-0.01,-0.01
1778774819.2570574,-68.21,-0.24,0.02,-0.047,0.007,9.809,0.0,-0.01,0.0
1778774819.2671006,-68.21,-0.24,0.02,-0.046,0.01,9.809,0.0,-0.01,-0.01
1778774819.2770905,-68.21,-0.24,0.02,-0.044,0.006,9.809,0.0,0.0,-0.01
1778774819.2870502,-68.21,-0.24,0.02,-0.042,0.002,9.809,0.0,-0.01,0.0
1778774819.2970695,-68.21,-0.24,0.02,-0.041,0.001,9.809,0.0,-0.01,0.0
1778774819.307065,-68.21,-0.24,0.02,-0.038,0.006,9.809,0.0,0.0,-0.01
1778774819.317053,-68.21,-0.24,0.02,-0.041,0.008,9.809,-0.01,0.0,-0.01
1778774819.3270383,-68.21,-0.24,0.02,-0.036,0.007,9.809,0.0,0.0,-0.01
1778774819.3370857,-68.21,-0.24,0.02,-0.037,0.013,9.809,0.0,-0.01,0.0
1778774819.3470514,-68.21,-0.24,0.02,-0.037,0.016,9.809,0.0,0.0,-0.01
1778774819.3570523,-68.21,-0.24,0.02,-0.036,0.012,9.809,-0.01,-0.01,-0.01
1778774819.3670547,-68.21,-0.24,0.02,-0.036,0.008,9.809,0.0,0.0,-0.01
1778774819.3770585,-68.21,-0.24,0.02,-0.036,0.006,9.809,0.0,0.0,0.0
1778774819.3870523,-68.21,-0.24,0.02,-0.034,0.006,9.809,0.0,0.0,-0.01
1778774819.3970375,-68.22,-0.24,0.02,-0.034,0.004,9.81,0.0,0.0,-0.01
1778774819.4070518,-68.22,-0.24,0.02,-0.041,-0.001,9.81,0.0,0.0,0.0
1778774819.41704,-68.22,-0.24,0.02,-0.041,0.0,9.81,0.0,-0.01,0.0
1778774819.4270198,-68.21,-0.24,0.02,-0.04,0.001,9.809,0.0,0.0,-0.01
1778774819.4370546,-68.21,-0.24,0.02,-0.037,0.001,9.809,0.0,0.0,-0.01
1778774819.4470515,-68.21,-0.24,0.02,-0.032,0.002,9.809,0.0,0.0,-0.01
1778774819.457023,-68.21,-0.24,0.02,-0.032,0.008,9.809,0.0,0.0,-0.01
1778774819.4670055,-68.22,-0.24,0.02,-0.038,0.012,9.81,0.0,0.0,-0.01
1778774819.4770393,-68.22,-0.24,0.02,-0.041,0.008,9.81,0.0,0.0,0.0
1778774819.487051,-68.22,-0.24,0.02,-0.041,0.011,9.81,0.0,0.0,0.0
1778774819.4970534,-68.21,-0.24,0.02,-0.042,0.014,9.809,0.0,-0.01,-0.01
1778774819.5070546,-68.21,-0.24,0.02,-0.041,0.016,9.809,0.0,0.0,-0.01
1778774819.5170236,-68.21,-0.24,0.02,-0.042,0.008,9.809,0.0,0.0,-0.01
1778774819.5270019,-68.21,-0.24,0.02,-0.044,0.002,9.809,0.0,-0.01,-0.01
1778774819.53701,-68.21,-0.24,0.02,-0.046,0.006,9.809,0.0,-0.01,-0.01
1778774819.5470042,-68.21,-0.24,0.03,-0.044,0.001,9.809,-0.01,0.0,-0.01
1778774819.5569913,-68.21,-0.25,0.02,-0.042,0.005,9.809,0.0,0.0,-0.01
1778774819.5670183,-68.21,-0.24,0.02,-0.04,0.0,9.809,0.0,0.0,-0.01
1778774819.5770068,-68.21,-0.24,0.02,-0.037,0.007,9.809,0.0,0.0,-0.01
1778774819.5869694,-68.21,-0.24,0.02,-0.035,0.008,9.809,0.0,0.0,-0.01
1778774819.5961888,-68.21,-0.24,0.02,-0.036,0.01,9.809,-0.01,0.0,-0.01
1778774819.6070204,-68.21,-0.24,0.02,-0.04,0.001,9.809,-0.01,0.0,-0.01
1778774819.6170065,-68.21,-0.24,0.02,-0.041,0.004,9.809,0.0,0.0,-0.01
1778774819.6269877,-68.21,-0.24,0.03,-0.037,0.004,9.809,0.0,0.0,-0.01
1778774819.6361496,-68.21,-0.24,0.03,-0.038,0.001,9.809,0.0,0.0,-0.01
1778774819.6470027,-68.21,-0.24,0.02,-0.047,0.005,9.809,0.0,-0.01,-0.01
1778774819.6569881,-68.22,-0.24,0.03,-0.049,0.002,9.81,0.0,-0.01,0.0
1778774819.666168,-68.21,-0.25,0.02,-0.047,0.002,9.809,0.0,0.0,-0.01
1778774819.6761575,-68.21,-0.25,0.02,-0.046,0.0,9.809,-0.01,0.0,-0.01
1778774819.6861553,-68.21,-0.25,0.02,-0.046,0.004,9.809,-0.01,0.0,-0.01
1778774819.696984,-68.21,-0.25,0.02,-0.04,0.005,9.809,0.0,-0.01,-0.01
1778774819.706991,-68.21,-0.25,0.02,-0.046,0.004,9.809,-0.01,-0.01,-0.01
1778774819.716988,-68.21,-0.25,0.02,-0.051,0.007,9.809,0.0,-0.01,-0.01
1778774819.7261667,-68.21,-0.25,0.02,-0.049,0.005,9.809,0.0,0.0,-0.01
1778774819.736148,-68.21,-0.25,0.02,-0.044,0.004,9.809,0.0,0.0,-0.01
1778774819.746127,-68.21,-0.25,0.02,-0.038,0.004,9.809,0.0,0.0,-0.01
1778774819.7565238,-68.21,-0.25,0.02,-0.038,0.0,9.809,-0.01,0.0,-0.01
1778774819.7661417,-68.21,-0.24,0.02,-0.035,0.002,9.809,-0.01,0.0,0.0
1778774819.7763097,-68.21,-0.24,0.02,-0.035,0.0,9.809,-0.01,0.0,0.0
1778774819.7861686,-68.21,-0.24,0.02,-0.041,0.0,9.809,0.0,0.0,-0.01
1778774819.7961378,-68.21,-0.24,0.02,-0.042,0.005,9.809,0.0,0.0,-0.01
1778774819.806102,-68.21,-0.24,0.02,-0.043,0.007,9.809,-0.01,0.0,-0.01
1778774819.8161278,-68.21,-0.25,0.02,-0.041,0.005,9.809,0.0,0.0,-0.01
1778774819.826118,-68.21,-0.25,0.02,-0.041,0.0,9.809,0.0,0.0,-0.01
1778774819.8361528,-68.22,-0.25,0.02,-0.043,0.0,9.81,0.0,0.0,-0.01
1778774819.846136,-68.22,-0.25,0.02,-0.043,0.0,9.81,0.0,0.0,0.0
1778774819.8561037,-68.22,-0.25,0.02,-0.046,0.0,9.81,0.0,0.0,-0.01
1778774819.8661158,-68.22,-0.25,0.02,-0.046,0.0,9.81,0.0,0.0,-0.01
1778774819.8760986,-68.22,-0.25,0.02,-0.04,0.001,9.81,0.0,0.0,-0.01
1778774819.8860857,-68.22,-0.25,0.02,-0.042,0.002,9.81,0.0,0.0,-0.01
1778774819.8961256,-68.22,-0.25,0.02,-0.044,0.0,9.81,0.0,0.0,-0.01
1778774819.9060712,-68.22,-0.25,0.02,-0.04,0.0,9.81,0.0,0.0,-0.01
1778774819.9160893,-68.22,-0.25,0.02,-0.035,-0.002,9.81,-0.01,0.0,-0.01
1778774819.9260979,-68.22,-0.25,0.02,-0.037,0.001,9.81,0.0,0.0,0.0
1778774819.9360878,-68.22,-0.25,0.02,-0.04,0.002,9.81,0.0,0.0,-0.01
1778774819.9460976,-68.22,-0.25,0.02,-0.038,0.002,9.81,0.0,0.0,-0.01
1778774819.9561155,-68.22,-0.25,0.02,-0.04,0.005,9.81,-0.01,0.0,-0.01
1778774819.9660854,-68.22,-0.25,0.02,-0.046,0.002,9.81,0.0,0.0,0.0
1778774819.976069,-68.22,-0.25,0.02,-0.049,0.004,9.809,0.0,0.0,-0.01
1778774819.9860852,-68.22,-0.25,0.02,-0.049,0.002,9.81,0.0,0.0,0.0
1778774819.996073,-68.22,-0.25,0.02,-0.044,0.004,9.81,0.0,0.0,-0.01
1778774820.0060918,-68.22,-0.25,0.02,-0.043,0.001,9.81,0.0,0.0,-0.01
1778774820.0160916,-68.22,-0.25,0.02,-0.041,0.001,9.81,-0.01,0.0,-0.01
1778774820.0260737,-68.22,-0.25,0.02,-0.041,0.006,9.809,0.0,0.0,-0.01
1778774820.0360882,-68.22,-0.25,0.02,-0.035,0.01,9.809,-0.01,0.0,0.0
1778774820.0460448,-68.22,-0.25,0.02,-0.036,0.007,9.809,0.0,0.0,0.0
1778774820.0561025,-68.22,-0.25,0.02,-0.036,0.006,9.809,0.0,-0.01,-0.01
1778774820.066074,-68.22,-0.25,0.02,-0.034,0.001,9.809,0.0,0.0,-0.01
1778774820.0760407,-68.22,-0.25,0.02,-0.032,0.0,9.809,0.0,0.0,-0.01
1778774820.0860693,-68.22,-0.25,0.02,-0.037,0.001,9.809,0.0,0.0,-0.01
1778774820.0960574,-68.22,-0.25,0.02,-0.031,0.004,9.809,-0.01,0.0,0.0
1778774820.106048,-68.22,-0.25,0.02,-0.03,0.004,9.809,0.0,0.0,-0.01
1778774820.116074,-68.22,-0.25,0.02,-0.034,0.0,9.809,0.0,0.0,-0.01
1778774820.1260602,-68.22,-0.25,0.02,-0.036,0.0,9.809,0.0,-0.01,-0.01
1778774820.1360896,-68.22,-0.25,0.02,-0.035,0.001,9.809,0.0,0.0,0.0
1778774820.146088,-68.22,-0.25,0.02,-0.037,0.002,9.809,-0.01,0.0,-0.01
1778774820.1560552,-68.22,-0.25,0.02,-0.038,0.001,9.809,0.0,0.0,-0.01
1778774820.1660764,-68.22,-0.25,0.02,-0.038,0.005,9.809,0.0,0.0,-0.01
1778774820.176058,-68.22,-0.25,0.02,-0.037,0.012,9.809,0.0,0.0,0.0
1778774820.1860564,-68.22,-0.25,0.02,-0.038,0.008,9.809,0.0,0.0,-0.01
1778774820.1960576,-68.22,-0.25,0.02,-0.041,0.01,9.809,0.0,0.0,-0.01
1778774820.2060733,-68.22,-0.25,0.02,-0.036,0.013,9.809,0.0,0.0,-0.01
1778774820.2164478,-68.22,-0.25,0.02,-0.031,0.012,9.809,0.0,0.0,-0.01
1778774820.226069,-68.22,-0.25,0.02,-0.029,0.012,9.809,0.0,0.0,-0.01
1778774820.2360342,-68.22,-0.25,0.02,-0.031,0.011,9.809,0.0,0.0,-0.01
1778774820.2460318,-68.22,-0.25,0.02,-0.037,0.005,9.809,-0.01,-0.01,-0.01
1778774820.256063,-68.22,-0.25,0.02,-0.036,0.005,9.809,0.0,0.0,-0.01
1778774820.2660658,-68.22,-0.25,0.02,-0.036,0.007,9.809,0.0,0.0,-0.01
1778774820.2760339,-68.22,-0.25,0.02,-0.037,0.011,9.809,0.0,0.0,-0.01
1778774820.2860537,-68.22,-0.25,0.02,-0.044,0.008,9.809,-0.01,0.0,-0.01
1778774820.2960663,-68.22,-0.25,0.02,-0.048,0.01,9.809,0.0,0.0,-0.01
1778774820.3060348,-68.22,-0.25,0.02,-0.049,0.011,9.809,0.0,0.0,-0.01
1778774820.3160152,-68.22,-0.25,0.02,-0.043,0.01,9.809,0.0,-0.01,-0.01
1778774820.326062,-68.22,-0.25,0.02,-0.043,0.006,9.809,0.0,0.0,-0.01
1778774820.336016,-68.22,-0.25,0.02,-0.044,0.002,9.809,0.0,0.0,0.0
1778774820.3460665,-68.22,-0.25,0.02,-0.047,0.004,9.809,0.0,0.0,-0.01
1778774820.3560297,-68.22,-0.25,0.02,-0.044,0.006,9.809,0.0,-0.01,-0.01
1778774820.3660145,-68.22,-0.25,0.02,-0.043,0.006,9.809,-0.01,0.0,-0.01
1778774820.3760154,-68.22,-0.25,0.02,-0.041,-0.001,9.809,-0.01,0.0,-0.01
1778774820.3860505,-68.22,-0.25,0.02,-0.037,0.001,9.809,0.0,0.0,-0.01
1778774820.3960161,-68.22,-0.25,0.02,-0.034,0.006,9.809,0.0,0.0,0.0
1778774820.405985,-68.22,-0.25,0.02,-0.042,0.005,9.809,0.0,0.0,-0.01
1778774820.416047,-68.22,-0.25,0.02,-0.037,0.002,9.809,-0.01,0.0,-0.01
1778774820.4260168,-68.22,-0.25,0.02,-0.034,0.004,9.809,0.0,0.0,-0.01
1778774820.4359925,-68.22,-0.25,0.02,-0.038,0.001,9.808,-0.01,0.0,-0.01
1778774820.4451947,-68.22,-0.25,0.02,-0.041,0.0,9.808,0.0,0.0,-0.01
1778774820.4560146,-68.22,-0.25,0.02,-0.043,-0.002,9.809,0.0,0.0,0.0
1778774820.465981,-68.22,-0.25,0.02,-0.05,-0.006,9.809,0.0,-0.01,0.0
1778774820.4760299,-68.22,-0.25,0.02,-0.051,-0.005,9.809,0.0,0.0,0.0
1778774820.4851525,-68.22,-0.25,0.02,-0.049,0.005,9.809,0.0,0.0,0.0
1778774820.4959948,-68.22,-0.25,0.02,-0.049,0.005,9.809,0.0,0.0,0.0
1778774820.5051436,-68.22,-0.25,0.02,-0.05,0.008,9.809,0.0,0.0,-0.01
1778774820.5159998,-68.22,-0.25,0.02,-0.048,0.005,9.809,0.0,0.0,-0.01
1778774820.5260012,-68.22,-0.25,0.02,-0.046,0.002,9.808,0.0,0.0,-0.01
1778774820.5351524,-68.22,-0.25,0.02,-0.044,0.004,9.808,0.0,0.0,-0.01
1778774820.5451396,-68.22,-0.25,0.02,-0.047,0.006,9.808,0.0,0.0,-0.01
1778774820.5560074,-68.22,-0.26,0.02,-0.048,0.007,9.809,0.0,0.0,-0.01
1778774820.5651417,-68.22,-0.26,0.02,-0.05,0.002,9.809,0.0,0.0,-0.01
1778774820.5760088,-68.22,-0.26,0.02,-0.048,0.002,9.809,0.0,0.0,-0.01
1778774820.5860014,-68.22,-0.26,0.02,-0.046,0.002,9.808,0.0,-0.01,-0.01
1778774820.5951486,-68.22,-0.26,0.02,-0.047,0.007,9.808,0.0,0.0,-0.01
1778774820.6051638,-68.22,-0.26,0.02,-0.044,0.011,9.809,0.0,0.0,-0.01
1778774820.615995,-68.22,-0.26,0.02,-0.048,0.008,9.809,0.0,0.0,-0.01
1778774820.6251435,-68.22,-0.26,0.02,-0.042,0.008,9.806,0.0,0.0,0.0
1778774820.6351378,-68.22,-0.26,0.02,-0.041,0.005,9.808,-0.01,0.0,-0.01
1778774820.645159,-68.22,-0.26,0.02,-0.038,0.004,9.808,0.0,0.0,-0.01
1778774820.6551383,-68.22,-0.26,0.02,-0.046,0.002,9.808,0.0,0.0,-0.01
1778774820.6651225,-68.22,-0.26,0.02,-0.044,0.005,9.808,0.0,0.0,-0.01
1778774820.6751602,-68.22,-0.26,0.02,-0.042,0.004,9.809,0.0,-0.01,-0.01
1778774820.68514,-68.22,-0.26,0.02,-0.038,-0.001,9.809,-0.01,-0.01,-0.01
1778774820.6951237,-68.22,-0.26,0.02,-0.038,0.0,9.809,-0.01,-0.01,-0.01
1778774820.7051413,-68.22,-0.26,0.02,-0.036,0.002,9.809,-0.01,-0.01,-0.01
1778774820.7150798,-68.22,-0.26,0.02,-0.029,0.006,9.809,0.0,0.0,-0.01
1778774820.72511,-68.22,-0.25,0.02,-0.029,0.01,9.809,0.0,0.0,-0.01
1778774820.7351086,-68.22,-0.25,0.02,-0.031,0.01,9.809,0.0,0.0,-0.01
1778774820.7450836,-68.22,-0.25,0.02,-0.034,0.004,9.809,0.0,0.0,-0.01
1778774820.755105,-68.22,-0.25,0.02,-0.037,0.006,9.809,0.0,-0.01,-0.01
1778774820.765095,-68.22,-0.25,0.02,-0.041,0.006,9.809,0.0,0.0,0.0
1778774820.7751086,-68.22,-0.25,0.02,-0.044,0.004,9.809,0.0,0.0,-0.01
1778774820.785113,-68.22,-0.25,0.02,-0.042,0.002,9.809,0.0,-0.01,0.0
1778774820.795072,-68.22,-0.26,0.02,-0.041,0.008,9.809,0.0,0.0,-0.01
1778774820.8051124,-68.22,-0.26,0.02,-0.038,0.007,9.809,0.0,0.0,0.0
1778774820.8150804,-68.22,-0.26,0.02,-0.04,0.002,9.809,0.0,-0.01,-0.01
1778774820.8250792,-68.22,-0.25,0.02,-0.037,0.005,9.809,0.0,0.0,-0.01
1778774820.8350549,-68.22,-0.25,0.02,-0.032,0.002,9.809,0.0,-0.01,-0.01
1778774820.8450944,-68.22,-0.25,0.02,-0.036,0.004,9.809,-0.01,0.0,-0.01
1778774820.8550835,-68.22,-0.25,0.02,-0.041,0.006,9.809,-0.01,0.0,-0.01
1778774820.865068,-68.22,-0.25,0.02,-0.041,0.006,9.809,0.0,0.0,-0.01
1778774820.87508,-68.22,-0.25,0.02,-0.041,0.004,9.809,0.0,-0.01,0.0
1778774820.8850558,-68.22,-0.25,0.02,-0.042,0.004,9.809,0.0,0.0,0.0
1778774820.8950849,-68.22,-0.25,0.02,-0.038,0.006,9.809,-0.01,0.0,-0.01
1778774820.9050665,-68.22,-0.25,0.02,-0.042,0.002,9.809,-0.01,-0.01,-0.01
1778774820.9150395,-68.22,-0.25,0.02,-0.041,-0.001,9.809,0.0,0.0,-0.01
1778774820.9250808,-68.22,-0.25,0.02,-0.037,-0.005,9.809,-0.01,0.0,0.0
1778774820.935039,-68.22,-0.25,0.02,-0.036,0.001,9.809,0.0,0.0,0.0
1778774820.9450424,-68.22,-0.25,0.02,-0.04,0.004,9.809,0.0,-0.01,-0.01
1778774820.9550683,-68.22,-0.25,0.02,-0.038,0.005,9.809,0.0,0.0,-0.01
1778774820.9650548,-68.22,-0.25,0.02,-0.029,0.005,9.809,0.0,0.0,-0.01
1778774820.9750888,-68.22,-0.25,0.02,-0.034,0.005,9.809,0.0,0.0,-0.01
1778774820.98508,-68.22,-0.25,0.02,-0.038,0.01,9.809,0.0,0.0,-0.01
1778774820.9950473,-68.22,-0.25,0.02,-0.041,0.011,9.809,-0.01,0.0,0.0
1778774821.0050492,-68.22,-0.25,0.02,-0.042,0.016,9.809,0.0,-0.01,0.0
1778774821.0150425,-68.22,-0.25,0.02,-0.046,0.01,9.809,0.0,0.0,0.0
1778774821.0250547,-68.22,-0.25,0.02,-0.04,0.004,9.809,-0.01,0.0,0.0
1778774821.0350466,-68.22,-0.25,0.02,-0.042,-0.002,9.809,-0.01,0.0,0.0
1778774821.045051,-68.22,-0.25,0.02,-0.038,-0.007,9.809,-0.01,-0.01,-0.01
1778774821.0550683,-68.22,-0.24,0.01,-0.036,-0.01,9.809,0.0,-0.01,-0.01
1778774821.065042,-68.22,-0.24,0.01,-0.038,-0.005,9.809,0.0,0.0,0.0
1778774821.0750396,-68.22,-0.24,0.01,-0.046,-0.001,9.809,-0.01,0.0,0.0
1778774821.0850387,-68.22,-0.25,0.02,-0.046,0.0,9.809,0.0,0.0,0.0
1778774821.0950487,-68.22,-0.25,0.02,-0.042,0.001,9.809,0.0,0.0,0.0
1778774821.1050596,-68.22,-0.24,0.01,-0.043,0.004,9.809,0.0,0.0,-0.01
1778774821.115054,-68.22,-0.24,0.01,-0.036,0.006,9.809,0.0,0.0,-0.01
1778774821.125057,-68.22,-0.24,0.01,-0.04,0.008,9.809,0.0,0.0,-0.01
1778774821.135021,-68.22,-0.25,0.02,-0.041,0.006,9.809,0.0,0.0,0.0
1778774821.1450686,-68.22,-0.25,0.02,-0.043,0.011,9.809,0.0,-0.01,-0.01
1778774821.1550505,-68.22,-0.25,0.02,-0.042,0.008,9.809,0.0,0.0,-0.01
1778774821.1650217,-68.22,-0.25,0.02,-0.035,0.005,9.809,-0.01,-0.01,0.0
1778774821.1750228,-68.22,-0.25,0.02,-0.037,0.002,9.809,0.0,-0.01,-0.01
1778774821.1850114,-68.22,-0.24,0.02,-0.037,0.01,9.809,-0.01,0.0,-0.01
1778774821.1950524,-68.23,-0.24,0.02,-0.042,0.007,9.81,0.0,-0.01,-0.01
1778774821.205023,-68.22,-0.25,0.02,-0.04,0.004,9.809,0.0,-0.01,0.0
1778774821.215015,-68.22,-0.25,0.02,-0.043,0.004,9.809,0.0,0.0,-0.01
1778774821.225111,-68.22,-0.25,0.02,-0.044,0.007,9.809,-0.01,0.0,-0.01
1778774821.2354097,-68.22,-0.25,0.02,-0.044,0.008,9.809,0.0,0.0,-0.01
1778774821.2450178,-68.22,-0.25,0.02,-0.047,0.008,9.809,-0.01,0.0,-0.01
1778774821.2550104,-68.22,-0.25,0.02,-0.047,0.011,9.809,-0.01,0.0,-0.01
1778774821.264999,-68.22,-0.25,0.02,-0.048,0.012,9.809,0.0,0.0,-0.01
1778774821.2750363,-68.22,-0.25,0.02,-0.04,0.011,9.809,-0.01,0.0,-0.01
1778774821.2850106,-68.22,-0.25,0.02,-0.04,0.007,9.809,0.0,0.0,-0.01
1778774821.2949967,-68.22,-0.25,0.02,-0.042,0.012,9.809,0.0,-0.01,-0.01
1778774821.3041608,-68.22,-0.25,0.02,-0.042,0.014,9.809,0.0,0.0,-0.01
1778774821.315018,-68.22,-0.25,0.02,-0.038,0.013,9.809,-0.01,0.0,-0.01
1778774821.325011,-68.22,-0.25,0.02,-0.036,0.01,9.809,0.0,-0.01,-0.01
1778774821.3350139,-68.22,-0.25,0.02,-0.043,0.007,9.809,-0.01,-0.01,-0.01
1778774821.3450012,-68.22,-0.25,0.02,-0.04,0.01,9.809,-0.01,0.0,-0.01
1778774821.3549986,-68.22,-0.25,0.02,-0.037,0.01,9.809,-0.01,0.0,-0.01
1778774821.3649805,-68.22,-0.25,0.02,-0.036,0.008,9.809,-0.01,0.0,-0.01
1778774821.3741562,-68.22,-0.25,0.02,-0.041,0.005,9.809,0.0,0.0,-0.01
1778774821.3849952,-68.22,-0.25,0.02,-0.042,0.0,9.809,0.0,0.0,-0.01
1778774821.3949854,-68.22,-0.25,0.02,-0.037,0.0,9.805,-0.01,-0.01,0.0
1778774821.4041524,-68.22,-0.25,0.02,-0.04,-0.004,9.805,0.0,0.0,-0.01
1778774821.414154,-68.22,-0.25,0.02,-0.042,0.001,9.806,0.0,0.0,-0.01
1778774821.4249728,-68.22,-0.25,0.02,-0.042,0.001,9.808,0.0,0.0,-0.01
1778774821.4349725,-68.22,-0.25,0.02,-0.037,0.001,9.808,0.0,-0.01,-0.01
1778774821.4441555,-68.22,-0.25,0.02,-0.036,0.0,9.808,0.0,0.0,-0.01
1778774821.454112,-68.22,-0.25,0.02,-0.037,0.005,9.808,0.0,0.0,-0.01
1778774821.464975,-68.22,-0.25,0.02,-0.036,0.01,9.809,-0.01,0.0,-0.01
1778774821.4741175,-68.22,-0.25,0.02,-0.042,0.01,9.809,0.0,0.0,-0.01
1778774821.4841137,-68.22,-0.25,0.02,-0.04,0.007,9.809,0.0,0.0,-0.01
1778774821.4941025,-68.22,-0.25,0.02,-0.043,0.004,9.809,0.0,0.0,-0.01
1778774821.5041318,-68.22,-0.25,0.02,-0.044,0.002,9.809,0.0,0.0,-0.01
1778774821.5141156,-68.22,-0.25,0.02,-0.044,0.004,9.809,-0.01,0.0,-0.01
1778774821.5241024,-68.22,-0.25,0.02,-0.042,0.008,9.808,0.0,0.0,-0.01
1778774821.5341477,-68.22,-0.25,0.02,-0.038,0.014,9.808,0.0,0.0,-0.01
1778774821.5441344,-68.22,-0.25,0.02,-0.04,0.013,9.808,0.0,0.0,-0.01
1778774821.5541346,-68.22,-0.25,0.02,-0.043,0.012,9.809,0.0,0.0,-0.01
1778774821.564135,-68.22,-0.25,0.03,-0.042,0.008,9.809,0.0,0.0,-0.01
1778774821.5741158,-68.22,-0.25,0.02,-0.041,0.006,9.809,0.0,0.0,-0.01
1778774821.5841084,-68.22,-0.25,0.02,-0.037,0.011,9.809,0.0,0.0,-0.01
1778774821.5941336,-68.22,-0.25,0.02,-0.037,0.008,9.809,0.0,0.0,0.0
1778774821.6040883,-68.22,-0.25,0.03,-0.04,0.007,9.809,0.0,0.0,0.0
1778774821.6141155,-68.22,-0.25,0.03,-0.046,0.005,9.809,0.0,0.0,-0.01
1778774821.6240735,-68.22,-0.25,0.03,-0.046,0.001,9.809,0.0,0.0,-0.01
1778774821.6340883,-68.22,-0.25,0.02,-0.042,0.001,9.809,0.0,-0.01,-0.01
1778774821.644096,-68.22,-0.25,0.02,-0.037,0.0,9.809,-0.01,-0.01,-0.01
1778774821.6541054,-68.22,-0.25,0.02,-0.037,0.0,9.809,0.0,0.0,0.0
1778774821.6640735,-68.22,-0.25,0.02,-0.04,0.002,9.809,0.0,0.0,-0.01
1778774821.674105,-68.22,-0.25,0.03,-0.041,0.004,9.809,0.0,0.0,-0.01
1778774821.6840906,-68.22,-0.25,0.03,-0.037,0.002,9.809,0.0,0.0,0.0
1778774821.6941152,-68.22,-0.25,0.03,-0.043,0.005,9.809,0.0,0.0,0.0
1778774821.7041004,-68.22,-0.25,0.03,-0.046,0.007,9.809,-0.01,0.0,-0.01
1778774821.714082,-68.22,-0.25,0.03,-0.041,0.007,9.809,-0.01,-0.01,0.0
1778774821.7240663,-68.22,-0.25,0.02,-0.04,0.004,9.809,-0.01,0.0,-0.01
1778774821.734111,-68.22,-0.26,0.02,-0.042,0.004,9.809,0.0,0.0,-0.01
1778774821.7440832,-68.22,-0.26,0.02,-0.046,0.004,9.809,0.0,0.0,-0.01
1778774821.754116,-68.22,-0.26,0.02,-0.043,0.004,9.809,0.0,0.0,-0.01
1778774821.7640805,-68.22,-0.26,0.02,-0.046,0.01,9.809,0.0,0.0,0.0
1778774821.7740533,-68.22,-0.26,0.02,-0.048,0.01,9.809,0.0,0.0,-0.01
1778774821.7840955,-68.22,-0.26,0.02,-0.044,0.01,9.809,0.0,0.0,-0.01
1778774821.794071,-68.22,-0.25,0.03,-0.042,0.008,9.809,0.0,0.0,-0.01
1778774821.8040676,-68.22,-0.25,0.03,-0.04,0.008,9.809,0.0,0.0,-0.01
1778774821.8140883,-68.22,-0.26,0.02,-0.041,0.002,9.809,0.0,0.0,-0.01
1778774821.8240528,-68.22,-0.26,0.02,-0.047,0.005,9.809,-0.01,0.0,0.0
1778774821.8340514,-68.22,-0.26,0.02,-0.048,0.006,9.809,0.0,0.0,-0.01
1778774821.8440843,-68.22,-0.25,0.03,-0.043,0.005,9.809,0.0,0.0,-0.01
1778774821.854057,-68.22,-0.26,0.02,-0.037,-0.001,9.809,0.0,0.0,-0.01
1778774821.8640556,-68.22,-0.26,0.02,-0.041,-0.001,9.809,0.0,0.0,-0.01
1778774821.8740537,-68.22,-0.26,0.02,-0.037,0.0,9.809,-0.01,-0.01,-0.01
1778774821.884053,-68.22,-0.25,0.03,-0.036,0.006,9.809,-0.01,-0.01,-0.01
1778774821.894112,-68.22,-0.25,0.02,-0.036,0.004,9.809,0.0,0.0,-0.01
1778774821.9040577,-68.22,-0.25,0.02,-0.038,0.004,9.809,-0.01,0.0,0.0
1778774821.9140587,-68.22,-0.25,0.02,-0.043,0.005,9.809,0.0,0.0,-0.01
1778774821.9240859,-68.22,-0.25,0.02,-0.043,0.006,9.809,0.0,-0.01,-0.01
1778774821.93408,-68.22,-0.25,0.02,-0.046,0.006,9.809,-0.01,-0.01,-0.01
1778774821.9440641,-68.22,-0.25,0.02,-0.044,0.002,9.809,-0.01,0.0,-0.01
1778774821.954034,-68.22,-0.25,0.02,-0.047,0.0,9.809,0.0,0.0,0.0
1778774821.9640627,-68.22,-0.25,0.02,-0.05,0.0,9.809,0.0,0.0,-0.01
1778774821.974037,-68.22,-0.26,0.02,-0.05,0.0,9.809,0.0,0.0,-0.01
1778774821.9840562,-68.22,-0.26,0.02,-0.05,0.0,9.809,0.0,-0.01,0.0
1778774821.9940674,-68.22,-0.26,0.02,-0.047,0.002,9.809,-0.01,0.0,-0.01
1778774822.004031,-68.22,-0.26,0.02,-0.048,0.005,9.809,0.0,0.0,-0.01
1778774822.0140646,-68.22,-0.26,0.02,-0.044,0.011,9.809,0.0,0.0,-0.01
1778774822.0240567,-68.22,-0.26,0.02,-0.041,0.014,9.809,0.0,0.0,-0.01
1778774822.0340202,-68.22,-0.25,0.03,-0.042,0.013,9.809,0.0,0.0,0.0
1778774822.0440576,-68.22,-0.26,0.02,-0.049,0.012,9.809,-0.01,0.0,0.0
1778774822.054034,-68.22,-0.26,0.02,-0.048,0.014,9.809,0.0,-0.01,-0.01
1778774822.0640254,-68.22,-0.25,0.03,-0.043,0.014,9.809,-0.01,-0.01,-0.01
1778774822.0740323,-68.22,-0.26,0.02,-0.043,0.011,9.809,-0.01,0.0,-0.01
1778774822.084012,-68.22,-0.25,0.03,-0.043,0.008,9.809,-0.01,0.0,-0.01
1778774822.0940645,-68.22,-0.26,0.02,-0.048,0.005,9.809,0.0,0.0,-0.01
1778774822.1040053,-68.22,-0.26,0.02,-0.05,-0.002,9.809,0.0,0.0,0.0
1778774822.1140137,-68.22,-0.26,0.02,-0.047,0.0,9.809,-0.01,-0.01,-0.01
1778774822.1239917,-68.22,-0.26,0.02,-0.042,0.004,9.809,0.0,0.0,-0.01
1778774822.1340234,-68.22,-0.26,0.02,-0.042,0.005,9.809,0.0,0.0,-0.01
1778774822.1440272,-68.22,-0.26,0.02,-0.043,0.004,9.809,0.0,-0.01,-0.01
1778774822.1540198,-68.22,-0.26,0.02,-0.042,0.001,9.809,0.0,0.0,-0.01
1778774822.1639845,-68.22,-0.26,0.02,-0.046,0.002,9.809,0.0,0.0,-0.01
1778774822.1740308,-68.22,-0.26,0.02,-0.044,0.005,9.809,0.0,0.0,-0.01
1778774822.184008,-68.22,-0.26,0.02,-0.046,0.004,9.809,0.0,-0.01,-0.01
1778774822.1939955,-68.22,-0.26,0.02,-0.047,0.001,9.809,0.0,0.0,-0.01
1778774822.2031448,-68.22,-0.26,0.02,-0.043,0.001,9.809,0.0,0.0,-0.01
1778774822.214002,-68.22,-0.26,0.02,-0.042,0.0,9.809,0.0,0.0,-0.01
1778774822.2231576,-68.22,-0.26,0.02,-0.043,-0.002,9.809,0.0,0.0,-0.01
1778774822.2331626,-68.22,-0.26,0.02,-0.044,-0.002,9.809,-0.01,0.0,-0.01
1778774822.2440104,-68.22,-0.26,0.02,-0.044,-0.001,9.809,-0.01,0.0,-0.01
1778774822.2540016,-68.22,-0.26,0.02,-0.041,0.0,9.809,0.0,0.0,-0.01
1778774822.2631395,-68.22,-0.26,0.02,-0.04,0.001,9.809,0.0,0.0,-0.01
1778774822.2739956,-68.22,-0.26,0.02,-0.038,0.004,9.809,0.0,0.0,-0.01
1778774822.2832038,-68.22,-0.26,0.02,-0.038,0.008,9.809,0.0,0.0,-0.01
1778774822.293165,-68.22,-0.26,0.02,-0.044,0.006,9.809,0.0,0.0,-0.01
1778774822.3039951,-68.22,-0.26,0.02,-0.042,0.007,9.809,0.0,0.0,-0.01
1778774822.31398,-68.22,-0.26,0.02,-0.037,0.01,9.809,-0.01,-0.01,0.0
1778774822.3231387,-68.22,-0.26,0.02,-0.037,0.005,9.809,0.0,0.0,-0.01
1778774822.3331137,-68.22,-0.26,0.02,-0.04,0.004,9.809,0.0,0.0,-0.01
1778774822.3431349,-68.22,-0.26,0.02,-0.043,0.007,9.809,0.0,0.0,0.0
1778774822.3531215,-68.22,-0.26,0.02,-0.047,0.008,9.809,-0.01,0.0,-0.01
1778774822.3631582,-68.22,-0.26,0.02,-0.046,0.007,9.809,0.0,0.0,-0.01
1778774822.373148,-68.22,-0.26,0.02,-0.041,0.008,9.809,-0.01,0.0,-0.01
1778774822.3831165,-68.22,-0.26,0.02,-0.038,0.01,9.809,0.0,0.0,0.0
1778774822.3931608,-68.22,-0.26,0.02,-0.04,0.004,9.809,-0.01,0.0,-0.01
1778774822.4031322,-68.22,-0.26,0.02,-0.04,0.005,9.809,-0.01,-0.01,-0.01
1778774822.4131348,-68.22,-0.26,0.02,-0.04,0.004,9.809,0.0,-0.01,-0.01
1778774822.4231172,-68.22,-0.26,0.02,-0.042,0.004,9.809,0.0,0.0,-0.01
1778774822.4331367,-68.22,-0.26,0.02,-0.043,0.006,9.809,0.0,0.0,-0.01
1778774822.4431381,-68.22,-0.26,0.02,-0.042,0.007,9.809,-0.01,0.0,-0.01
1778774822.4531178,-68.22,-0.26,0.02,-0.038,0.007,9.809,-0.01,-0.01,-0.01
1778774822.463101,-68.22,-0.26,0.02,-0.041,0.008,9.809,-0.01,0.0,-0.01
1778774822.4730756,-68.22,-0.26,0.02,-0.049,0.012,9.809,0.0,0.0,-0.01
1778774822.4831145,-68.22,-0.26,0.02,-0.048,0.013,9.809,0.0,0.0,-0.01
1778774822.4930909,-68.22,-0.26,0.02,-0.046,0.012,9.809,0.0,0.0,-0.01
1778774822.5030897,-68.22,-0.26,0.02,-0.044,0.01,9.809,0.0,-0.01,0.0
1778774822.5130744,-68.22,-0.26,0.02,-0.047,0.012,9.809,-0.01,-0.01,-0.01
1778774822.5231159,-68.22,-0.26,0.02,-0.047,0.016,9.809,0.0,-0.01,-0.01
1778774822.533102,-68.22,-0.26,0.02,-0.044,0.012,9.809,0.0,0.0,-0.01
1778774822.5430858,-68.22,-0.26,0.02,-0.037,0.012,9.809,-0.01,0.0,-0.01
1778774822.5530872,-68.22,-0.26,0.02,-0.037,0.007,9.809,0.0,-0.01,-0.01
1778774822.5630765,-68.22,-0.26,0.02,-0.036,0.006,9.809,0.0,0.0,-0.01
1778774822.573094,-68.22,-0.26,0.02,-0.035,0.0,9.809,0.0,0.0,0.0
1778774822.5830743,-68.22,-0.26,0.02,-0.037,0.004,9.809,0.0,0.0,-0.01
1778774822.5930643,-68.22,-0.26,0.02,-0.036,0.006,9.809,0.0,-0.01,-0.01
1778774822.6030343,-68.22,-0.25,0.03,-0.035,0.008,9.809,0.0,-0.01,-0.01
1778774822.6130898,-68.22,-0.25,0.03,-0.04,0.006,9.809,-0.01,-0.01,0.0
1778774822.6230745,-68.22,-0.25,0.03,-0.043,0.011,9.809,0.0,-0.01,-0.01
1778774822.6330862,-68.22,-0.25,0.03,-0.046,0.014,9.809,0.0,-0.01,-0.01
1778774822.6430774,-68.22,-0.25,0.03,-0.048,0.018,9.809,-0.01,-0.01,-0.01
1778774822.653058,-68.22,-0.25,0.03,-0.047,0.012,9.809,0.0,0.0,-0.01
1778774822.6630478,-68.22,-0.25,0.03,-0.05,0.008,9.809,-0.01,-0.01,-0.01
1778774822.67308,-68.22,-0.25,0.03,-0.047,0.01,9.809,0.0,0.0,-0.01
1778774822.683047,-68.22,-0.25,0.03,-0.044,0.007,9.809,0.0,-0.01,-0.01
1778774822.693097,-68.22,-0.25,0.03,-0.044,0.008,9.809,-0.01,0.0,0.0
1778774822.7030737,-68.22,-0.25,0.03,-0.046,0.007,9.809,0.0,0.0,-0.01
1778774822.71305,-68.22,-0.25,0.03,-0.046,0.01,9.809,0.0,0.0,0.0
1778774822.723074,-68.22,-0.25,0.03,-0.044,0.008,9.809,0.0,0.0,-0.01
1778774822.733046,-68.22,-0.25,0.03,-0.044,0.005,9.809,0.0,-0.01,-0.01
1778774822.7430413,-68.22,-0.25,0.03,-0.047,0.012,9.809,0.0,-0.01,-0.01
1778774822.75305,-68.22,-0.25,0.03,-0.05,0.01,9.809,0.0,0.0,-0.01
1778774822.7630491,-68.22,-0.25,0.03,-0.047,0.012,9.809,-0.01,-0.01,0.0
1778774822.773036,-68.22,-0.25,0.03,-0.043,0.013,9.809,0.0,-0.01,-0.01
1778774822.7830613,-68.22,-0.25,0.03,-0.046,0.014,9.809,0.0,-0.01,-0.01
1778774822.7930639,-68.22,-0.25,0.03,-0.036,0.019,9.809,0.0,0.0,-0.01
1778774822.8030744,-68.22,-0.25,0.03,-0.035,0.012,9.809,0.0,0.0,0.0
1778774822.8130522,-68.22,-0.25,0.03,-0.034,0.008,9.809,0.0,0.0,0.0
1778774822.823031,-68.22,-0.25,0.03,-0.029,0.005,9.809,0.0,-0.01,-0.01
1778774822.8330653,-68.22,-0.25,0.03,-0.034,0.006,9.809,-0.01,0.0,-0.01
1778774822.8430562,-68.22,-0.25,0.03,-0.038,0.008,9.809,0.0,0.0,-0.01
1778774822.8530543,-68.22,-0.25,0.03,-0.044,0.01,9.809,0.0,-0.01,-0.01
1778774822.8630633,-68.22,-0.25,0.03,-0.04,0.011,9.809,0.0,0.0,-0.01
1778774822.8730502,-68.22,-0.25,0.03,-0.041,0.011,9.809,0.0,0.0,-0.01
1778774822.88303,-68.22,-0.25,0.03,-0.042,0.012,9.809,-0.01,0.0,0.0
1778774822.8930244,-68.22,-0.25,0.03,-0.044,0.011,9.809,0.0,0.0,-0.01
1778774822.9030504,-68.22,-0.25,0.03,-0.042,0.011,9.809,0.0,-0.01,-0.01
1778774822.9130614,-68.22,-0.25,0.03,-0.041,0.013,9.809,0.0,-0.01,-0.01
1778774822.9230273,-68.22,-0.25,0.03,-0.038,0.012,9.809,0.0,0.0,-0.01
1778774822.933008,-68.22,-0.25,0.03,-0.042,0.005,9.809,0.0,0.0,-0.01
1778774822.9430606,-68.22,-0.25,0.03,-0.041,0.005,9.809,0.0,0.0,-0.01
1778774822.9530334,-68.22,-0.25,0.03,-0.044,0.006,9.809,-0.01,0.0,-0.01
1778774822.9630094,-68.22,-0.25,0.03,-0.047,0.005,9.809,-0.01,0.0,0.0
1778774822.9730434,-68.22,-0.25,0.03,-0.041,0.004,9.809,0.0,0.0,0.0
1778774822.9830298,-68.22,-0.25,0.03,-0.04,0.001,9.809,-0.01,0.0,-0.01
1778774822.993008,-68.22,-0.25,0.03,-0.038,0.002,9.809,-0.01,0.0,0.0
1778774823.0029945,-68.22,-0.25,0.03,-0.038,0.002,9.809,0.0,-0.01,-0.01
1778774823.0130124,-68.22,-0.25,0.03,-0.041,0.001,9.809,0.0,0.0,0.0
1778774823.0229936,-68.22,-0.25,0.03,-0.041,0.001,9.809,0.0,0.0,-0.01
1778774823.0321844,-68.22,-0.25,0.03,-0.043,0.005,9.809,0.0,-0.01,-0.01
1778774823.0430012,-68.22,-0.25,0.03,-0.04,0.005,9.809,-0.01,0.0,0.0
1778774823.0529993,-68.22,-0.25,0.03,-0.041,0.006,9.809,0.0,0.0,-0.01
1778774823.062177,-68.22,-0.25,0.03,-0.046,0.008,9.809,0.0,0.0,-0.01
1778774823.0730102,-68.22,-0.25,0.03,-0.046,0.01,9.809,0.0,-0.01,-0.01
1778774823.0830052,-68.22,-0.25,0.03,-0.044,0.01,9.809,0.0,0.0,-0.01
1778774823.0922048,-68.22,-0.25,0.03,-0.047,0.008,9.809,0.0,0.0,-0.01
1778774823.102159,-68.22,-0.25,0.03,-0.047,0.006,9.809,0.0,-0.01,-0.01
1778774823.1129923,-68.22,-0.25,0.03,-0.04,0.007,9.809,0.0,0.0,0.0
1778774823.1221642,-68.22,-0.25,0.03,-0.036,0.011,9.809,0.0,-0.01,-0.01
1778774823.1321397,-68.22,-0.25,0.03,-0.035,0.007,9.809,0.0,0.0,-0.01
1778774823.1429727,-68.22,-0.25,0.03,-0.041,0.007,9.809,0.0,0.0,-0.01
1778774823.1521413,-68.22,-0.25,0.03,-0.041,0.007,9.809,0.0,0.0,-0.01
1778774823.1629865,-68.22,-0.25,0.03,-0.042,0.01,9.809,0.0,0.0,-0.01
1778774823.1729972,-68.22,-0.25,0.03,-0.044,0.007,9.809,-0.01,0.0,-0.01
1778774823.1829689,-68.22,-0.25,0.03,-0.046,0.006,9.809,-0.01,0.0,-0.01
1778774823.1921163,-68.22,-0.25,0.03,-0.042,0.006,9.809,0.0,0.0,-0.01
1778774823.202116,-68.22,-0.25,0.03,-0.043,0.004,9.809,0.0,0.0,-0.01
1778774823.2121558,-68.22,-0.25,0.03,-0.043,0.0,9.809,-0.01,-0.01,-0.01
1778774823.222133,-68.22,-0.25,0.03,-0.051,-0.001,9.809,0.0,0.0,-0.01
1778774823.2321465,-68.22,-0.25,0.03,-0.053,-0.001,9.809,0.0,0.0,-0.01
1778774823.242168,-68.22,-0.25,0.03,-0.051,-0.005,9.809,0.0,0.0,-0.01
1778774823.2521446,-68.22,-0.26,0.02,-0.053,-0.001,9.809,-0.01,0.0,0.0
1778774823.2621481,-68.22,-0.26,0.02,-0.05,0.005,9.809,-0.01,0.0,0.0
1778774823.2721334,-68.22,-0.26,0.02,-0.051,0.004,9.809,0.0,-0.01,-0.01
1778774823.282642,-68.22,-0.26,0.02,-0.048,-0.001,9.809,-0.01,0.0,-0.01
1778774823.2922342,-68.22,-0.26,0.02,-0.043,-0.001,9.809,0.0,0.0,-0.01
1778774823.3022847,-68.22,-0.26,0.02,-0.038,-0.001,9.809,0.0,0.0,-0.01
1778774823.312271,-68.22,-0.26,0.02,-0.036,-0.002,9.809,0.0,0.0,-0.01
1778774823.3221674,-68.22,-0.25,0.03,-0.035,-0.002,9.809,0.0,-0.01,-0.01
1778774823.3321614,-68.22,-0.25,0.03,-0.035,0.004,9.809,0.0,-0.01,-0.01
1778774823.3423147,-68.22,-0.25,0.02,-0.041,-0.001,9.809,0.0,0.0,-0.01
1778774823.3522227,-68.22,-0.25,0.02,-0.046,-0.006,9.809,-0.01,0.0,-0.01
1778774823.3621001,-68.22,-0.25,0.02,-0.044,-0.001,9.809,0.0,-0.01,-0.01
1778774823.372099,-68.22,-0.25,0.02,-0.04,0.001,9.809,0.0,-0.01,-0.01
1778774823.3820803,-68.22,-0.25,0.02,-0.037,0.004,9.809,-0.01,-0.01,-0.01
1778774823.3921058,-68.22,-0.25,0.02,-0.035,0.005,9.809,0.0,0.0,0.0
1778774823.4020853,-68.22,-0.25,0.02,-0.034,0.004,9.809,0.0,0.0,-0.01
1778774823.4121072,-68.22,-0.25,0.02,-0.035,0.006,9.809,0.0,0.0,0.0
1778774823.4225361,-68.22,-0.25,0.02,-0.032,0.006,9.809,0.0,0.0,-0.01
1778774823.432066,-68.22,-0.25,0.02,-0.03,0.005,9.809,-0.01,0.0,-0.01
1778774823.4420516,-68.22,-0.25,0.02,-0.038,0.005,9.809,-0.01,0.0,-0.01
1778774823.4520934,-68.22,-0.25,0.02,-0.041,0.002,9.809,0.0,0.0,-0.01
1778774823.4620805,-68.22,-0.25,0.02,-0.042,0.006,9.809,-0.01,0.0,-0.01
1778774823.4720507,-68.22,-0.25,0.02,-0.044,0.01,9.809,0.0,0.0,-0.01
1778774823.4820926,-68.22,-0.25,0.02,-0.038,0.008,9.809,0.0,0.0,-0.01
1778774823.4920652,-68.22,-0.25,0.02,-0.041,0.014,9.809,0.0,0.0,-0.01
1778774823.5020354,-68.22,-0.25,0.03,-0.042,0.013,9.809,0.0,0.0,-0.01
1778774823.5120788,-68.22,-0.25,0.03,-0.042,0.014,9.809,0.0,0.0,-0.01
1778774823.5220625,-68.22,-0.25,0.03,-0.038,0.012,9.809,0.0,-0.01,-0.01
1778774823.5320516,-68.22,-0.25,0.03,-0.038,0.014,9.809,0.0,0.0,-0.01
1778774823.542038,-68.22,-0.25,0.03,-0.042,0.016,9.809,-0.01,0.0,-0.01
1778774823.5520792,-68.22,-0.25,0.03,-0.042,0.012,9.809,0.0,0.0,0.0
1778774823.5620651,-68.22,-0.25,0.03,-0.041,0.008,9.809,-0.01,0.0,-0.01
1778774823.5720463,-68.22,-0.25,0.03,-0.042,0.017,9.809,-0.01,0.0,-0.01
1778774823.5820482,-68.22,-0.25,0.03,-0.043,0.016,9.809,-0.01,0.0,-0.01
1778774823.5920808,-68.22,-0.25,0.03,-0.04,0.017,9.809,0.0,0.0,-0.01
1778774823.6020627,-68.22,-0.25,0.03,-0.042,0.011,9.809,0.0,-0.01,-0.01
1778774823.612051,-68.22,-0.25,0.03,-0.041,0.011,9.809,0.0,0.0,0.0
1778774823.6220508,-68.22,-0.25,0.03,-0.036,0.007,9.809,-0.01,-0.01,-0.01
1778774823.63205,-68.22,-0.25,0.02,-0.032,0.006,9.809,-0.01,0.0,-0.01
1778774823.6420543,-68.22,-0.25,0.02,-0.034,0.0,9.809,0.0,0.0,-0.01
1778774823.6520503,-68.22,-0.25,0.02,-0.037,-0.001,9.809,-0.01,0.0,-0.01
1778774823.6620672,-68.22,-0.25,0.02,-0.038,-0.004,9.809,0.0,0.0,-0.01
1778774823.672049,-68.22,-0.25,0.02,-0.037,0.0,9.809,0.0,0.0,-0.01
1778774823.6820636,-68.22,-0.25,0.02,-0.035,0.0,9.809,0.0,0.0,-0.01
1778774823.6920323,-68.22,-0.25,0.02,-0.04,-0.001,9.809,0.0,0.0,-0.01
1778774823.7020557,-68.22,-0.25,0.02,-0.043,0.0,9.809,0.0,-0.01,0.0
1778774823.7120366,-68.22,-0.25,0.02,-0.041,0.0,9.809,0.0,0.0,-0.01
1778774823.7220635,-68.22,-0.25,0.02,-0.043,0.004,9.809,0.0,0.0,-0.01
1778774823.7320564,-68.22,-0.25,0.02,-0.044,0.006,9.809,0.0,0.0,-0.01
1778774823.7420273,-68.22,-0.25,0.02,-0.036,0.007,9.809,0.0,0.0,-0.01
1778774823.7525158,-68.22,-0.25,0.02,-0.037,0.002,9.809,-0.01,0.0,0.0
1778774823.7620592,-68.22,-0.25,0.02,-0.036,0.001,9.809,-0.01,-0.01,-0.01
1778774823.7720554,-68.22,-0.25,0.02,-0.037,0.004,9.809,-0.01,0.0,-0.01
1778774823.782026,-68.22,-0.25,0.02,-0.036,0.004,9.809,0.0,0.0,-0.01
1778774823.792009,-68.22,-0.25,0.02,-0.037,0.0,9.809,0.0,-0.01,-0.01
1778774823.8020258,-68.22,-0.25,0.02,-0.041,0.0,9.809,0.0,0.0,-0.01
1778774823.8120234,-68.22,-0.25,0.02,-0.046,0.001,9.809,-0.01,-0.01,-0.01
1778774823.8219714,-68.22,-0.25,0.02,-0.051,0.002,9.809,0.0,0.0,-0.01
1778774823.8320217,-68.22,-0.25,0.02,-0.05,0.0,9.809,-0.01,0.0,0.0
1778774823.8420064,-68.22,-0.25,0.02,-0.048,0.004,9.809,0.0,0.0,-0.01
1778774823.8520474,-68.22,-0.25,0.02,-0.046,0.004,9.809,0.0,0.0,-0.01
1778774823.8620203,-68.22,-0.25,0.02,-0.048,0.006,9.809,0.0,0.0,-0.01
1778774823.872004,-68.22,-0.25,0.02,-0.042,0.011,9.809,0.0,0.0,-0.01
1778774823.881989,-68.22,-0.25,0.02,-0.044,0.014,9.809,0.0,0.0,-0.01
1778774823.8920348,-68.22,-0.25,0.02,-0.041,0.014,9.809,0.0,0.0,-0.01
1778774823.9020052,-68.22,-0.25,0.02,-0.038,0.011,9.809,0.0,-0.01,-0.01
1778774823.9120166,-68.22,-0.25,0.02,-0.04,0.01,9.809,0.0,0.0,0.0
1778774823.9220023,-68.22,-0.25,0.02,-0.043,0.006,9.809,0.0,0.0,-0.01
1778774823.9319692,-68.22,-0.25,0.02,-0.047,0.008,9.809,0.0,0.0,-0.01
1778774823.9411604,-68.22,-0.25,0.02,-0.048,0.01,9.809,0.0,-0.01,-0.01
1778774823.9511466,-68.22,-0.25,0.02,-0.046,0.007,9.809,-0.01,0.0,-0.01
1778774823.9619849,-68.22,-0.25,0.02,-0.046,0.007,9.809,0.0,-0.01,0.0
1778774823.971176,-68.22,-0.25,0.02,-0.043,0.001,9.809,0.0,-0.01,-0.01
1778774823.9814286,-68.22,-0.25,0.02,-0.038,-0.005,9.809,0.0,0.0,-0.01
1778774823.9929338,-68.22,-0.25,0.02,-0.038,-0.001,9.809,0.0,-0.01,-0.01
1778774824.0020456,-68.22,-0.25,0.02,-0.036,0.0,9.809,0.0,-0.01,-0.01
1778774824.0111527,-68.22,-0.25,0.02,-0.04,0.0,9.809,0.0,-0.01,0.0
1778774824.021975,-68.22,-0.25,0.02,-0.04,0.004,9.809,0.0,0.0,-0.01
1778774824.031149,-68.22,-0.25,0.02,-0.038,0.004,9.809,0.0,0.0,-0.01
1778774824.0411694,-68.22,-0.25,0.02,-0.037,0.005,9.809,0.0,0.0,-0.01
1778774824.0511467,-68.22,-0.25,0.02,-0.042,0.006,9.809,0.0,0.0,-0.01
1778774824.0611525,-68.22,-0.25,0.02,-0.041,0.011,9.809,-0.01,0.0,-0.01
1778774824.0711577,-68.22,-0.25,0.02,-0.04,0.005,9.809,-0.01,0.0,-0.01
1778774824.0811667,-68.22,-0.25,0.02,-0.043,0.01,9.809,-0.01,-0.01,0.0
1778774824.0911267,-68.22,-0.25,0.02,-0.044,0.007,9.809,-0.01,0.0,0.0
1778774824.1011546,-68.22,-0.25,0.02,-0.031,0.01,9.809,0.0,-0.01,-0.01
1778774824.1111307,-68.22,-0.25,0.02,-0.036,0.012,9.809,0.0,0.0,-0.01
1778774824.1211278,-68.22,-0.24,0.03,-0.038,0.011,9.809,0.0,0.0,-0.01
1778774824.131154,-68.22,-0.24,0.03,-0.04,0.011,9.809,0.0,-0.01,-0.01
1778774824.1411579,-68.22,-0.24,0.03,-0.038,0.007,9.809,0.0,-0.01,-0.01
1778774824.1511502,-68.22,-0.24,0.03,-0.037,0.001,9.809,0.0,-0.01,-0.01
1778774824.1611125,-68.22,-0.24,0.03,-0.038,-0.004,9.809,0.0,-0.01,-0.01
1778774824.1711137,-68.22,-0.24,0.03,-0.047,-0.006,9.809,0.0,-0.01,-0.01
1778774824.181122,-68.22,-0.24,0.03,-0.048,-0.014,9.809,0.0,-0.01,-0.01
1778774824.1911294,-68.22,-0.24,0.03,-0.053,-0.012,9.809,-0.01,0.0,0.0
1778774824.2011127,-68.22,-0.25,0.02,-0.055,-0.017,9.809,-0.01,0.0,0.0
1778774824.2111106,-68.22,-0.25,0.02,-0.05,-0.011,9.809,-0.01,0.0,0.0
1778774824.2210696,-68.22,-0.24,0.01,-0.042,0.005,9.809,-0.01,0.0,0.0
1778774824.2310956,-68.22,-0.24,0.01,-0.037,0.02,9.809,-0.01,0.0,0.0
1778774824.2410996,-68.22,-0.25,0.02,-0.031,0.03,9.809,-0.01,0.0,0.0
1778774824.251131,-68.22,-0.25,0.02,-0.032,0.03,9.809,0.0,0.0,-0.01
1778774824.261094,-68.22,-0.25,0.02,-0.037,0.023,9.809,0.0,-0.01,0.0
1778774824.2711327,-68.22,-0.24,0.03,-0.037,0.013,9.809,0.0,-0.01,0.0
1778774824.2811067,-68.22,-0.24,0.03,-0.041,0.002,9.809,0.0,-0.01,0.0
1778774824.2910893,-68.22,-0.24,0.03,-0.046,-0.006,9.809,0.0,-0.01,0.0
1778774824.301091,-68.22,-0.25,0.02,-0.047,-0.011,9.809,0.0,0.0,0.0
1778774824.3110895,-68.22,-0.25,0.02,-0.047,-0.006,9.809,-0.01,0.0,0.0
1778774824.3210754,-68.22,-0.25,0.02,-0.042,0.001,9.809,-0.01,0.0,-0.01
1778774824.3313837,-68.22,-0.25,0.02,-0.037,0.019,9.809,-0.01,0.0,0.0
1778774824.3410823,-68.22,-0.25,0.02,-0.038,0.028,9.809,0.0,0.0,0.0
1778774824.351062,-68.22,-0.24,0.03,-0.035,0.024,9.809,0.0,-0.01,0.0
1778774824.3611097,-68.22,-0.24,0.03,-0.038,0.019,9.809,0.0,-0.01,0.0
1778774824.3710876,-68.22,-0.24,0.03,-0.037,0.007,9.809,0.0,-0.01,0.0
1778774824.381062,-68.22,-0.24,0.03,-0.046,-0.001,9.809,0.0,-0.01,0.0
1778774824.3911,-68.22,-0.24,0.03,-0.038,-0.005,9.809,0.0,-0.01,-0.01
1778774824.4010944,-68.22,-0.24,0.03,-0.036,0.001,9.809,0.0,-0.01,-0.01
1778774824.4110472,-68.22,-0.24,0.03,-0.038,0.0,9.809,0.0,0.0,0.0
1778774824.4210916,-68.22,-0.24,0.03,-0.038,0.001,9.809,0.0,-0.01,-0.01
1778774824.4310584,-68.22,-0.24,0.03,-0.042,-0.004,9.809,0.0,-0.01,0.0
1778774824.4410608,-68.22,-0.24,0.03,-0.048,-0.005,9.809,0.0,-0.01,-0.01
1778774824.4510586,-68.22,-0.24,0.03,-0.05,-0.005,9.809,-0.01,-0.01,-0.01
1778774824.4610639,-68.22,-0.24,0.03,-0.047,-0.004,9.809,-0.01,-0.01,0.0
1778774824.4710896,-68.22,-0.24,0.03,-0.048,-0.005,9.809,0.0,0.0,0.0
1778774824.481078,-68.22,-0.24,0.03,-0.048,-0.005,9.809,-0.01,0.0,-0.01
1778774824.4910588,-68.22,-0.24,0.03,-0.05,-0.007,9.809,-0.01,0.0,0.0
1778774824.5010612,-68.22,-0.24,0.03,-0.043,-0.005,9.809,-0.01,0.0,0.0
1778774824.5110576,-68.22,-0.25,0.02,-0.041,0.0,9.809,-0.01,0.0,0.0
1778774824.5210786,-68.22,-0.25,0.02,-0.04,0.01,9.809,-0.01,0.0,0.0
1778774824.5310426,-68.22,-0.24,0.03,-0.037,0.018,9.808,-0.01,0.0,0.0
1778774824.5410624,-68.22,-0.24,0.03,-0.041,0.017,9.808,0.0,-0.01,0.0
1778774824.551073,-68.22,-0.24,0.03,-0.043,0.008,9.808,0.0,-0.01,0.0
1778774824.5610614,-68.22,-0.24,0.03,-0.049,-0.007,9.808,0.0,-0.01,-0.01
1778774824.5710583,-68.22,-0.24,0.03,-0.055,-0.012,9.809,0.0,-0.01,0.0
1778774824.58106,-68.22,-0.25,0.02,-0.054,-0.01,9.809,-0.01,0.0,0.0
1778774824.5910592,-68.22,-0.25,0.02,-0.05,-0.001,9.809,-0.01,0.0,0.0
1778774824.601061,-68.22,-0.25,0.02,-0.05,0.002,9.809,-0.01,0.0,0.0
1778774824.6110096,-68.22,-0.25,0.02,-0.042,0.008,9.809,-0.01,0.0,0.0
1778774824.6210616,-68.23,-0.25,0.01,-0.044,0.012,9.81,-0.01,0.0,0.0
1778774824.6310418,-68.23,-0.25,0.02,-0.035,0.02,9.81,-0.01,0.0,0.0
1778774824.6410096,-68.23,-0.25,0.02,-0.031,0.028,9.81,0.0,0.0,-0.01
1778774824.6510577,-68.22,-0.25,0.02,-0.031,0.022,9.809,0.0,-0.01,0.0
1778774824.661059,-68.22,-0.25,0.02,-0.043,0.017,9.809,0.0,-0.01,-0.01
1778774824.6710553,-68.22,-0.24,0.03,-0.044,0.011,9.809,0.0,-0.01,-0.01
1778774824.6810336,-68.22,-0.24,0.03,-0.047,0.005,9.809,0.0,-0.01,0.0
1778774824.6910005,-68.22,-0.25,0.02,-0.046,0.005,9.809,0.0,-0.01,0.0
1778774824.7010462,-68.22,-0.25,0.02,-0.048,0.005,9.809,-0.01,0.0,0.0
1778774824.7110133,-68.22,-0.25,0.02,-0.04,0.01,9.809,-0.01,0.0,0.0
1778774824.7209964,-68.23,-0.25,0.02,-0.042,0.019,9.81,-0.01,0.0,0.0
1778774824.7310257,-68.22,-0.25,0.03,-0.04,0.024,9.809,0.0,0.0,0.0
1778774824.7410116,-68.22,-0.25,0.03,-0.041,0.022,9.809,0.0,-0.01,-0.01
1778774824.7510107,-68.22,-0.24,0.04,-0.046,0.011,9.809,0.0,-0.01,-0.01
1778774824.7609785,-68.22,-0.24,0.04,-0.047,0.001,9.809,0.0,-0.01,0.0
1778774824.771025,-68.22,-0.24,0.04,-0.044,-0.008,9.809,0.0,-0.01,0.0
1778774824.781011,-68.22,-0.25,0.03,-0.043,-0.012,9.809,-0.01,0.0,0.0
1778774824.790993,-68.23,-0.25,0.03,-0.041,-0.011,9.81,-0.01,0.0,0.0
1778774824.8001678,-68.23,-0.25,0.02,-0.036,0.0,9.81,-0.01,0.0,0.0
1778774824.8110087,-68.23,-0.24,0.03,-0.032,0.004,9.81,-0.01,0.0,0.0
1778774824.8209934,-68.23,-0.24,0.03,-0.036,0.004,9.81,-0.01,-0.01,0.0
1778774824.8301876,-68.23,-0.25,0.02,-0.041,0.0,9.81,0.0,0.0,0.0
1778774824.8401694,-68.23,-0.25,0.02,-0.047,-0.01,9.81,-0.01,-0.01,0.0
1778774824.8509958,-68.23,-0.25,0.02,-0.051,-0.002,9.81,-0.01,0.0,0.0
1778774824.8601708,-68.23,-0.25,0.02,-0.049,0.005,9.81,-0.01,0.0,0.0
1778774824.870157,-68.23,-0.25,0.02,-0.036,0.018,9.81,-0.01,0.0,0.0
1778774824.8809865,-68.23,-0.25,0.02,-0.03,0.026,9.81,-0.01,0.0,0.0
1778774824.8901703,-68.23,-0.25,0.02,-0.041,0.016,9.81,0.0,-0.01,0.0
1778774824.9001513,-68.23,-0.25,0.02,-0.055,0.006,9.81,0.0,-0.01,-0.01
1778774824.910152,-68.23,-0.25,0.01,-0.05,-0.011,9.81,-0.01,0.0,0.0
1778774824.920992,-68.23,-0.25,0.01,-0.047,-0.001,9.81,-0.01,0.0,0.0
1778774824.9301476,-68.23,-0.26,0.01,-0.047,0.008,9.81,-0.01,0.0,0.0
1778774824.940154,-68.23,-0.26,0.01,-0.046,0.036,9.81,-0.01,0.0,0.0
1778774824.9501312,-68.23,-0.26,0.02,-0.028,0.056,9.81,-0.01,0.0,0.0
1778774824.960171,-68.23,-0.25,0.03,-0.03,0.056,9.81,0.0,-0.01,0.0
1778774824.970131,-68.23,-0.24,0.04,-0.04,0.04,9.81,0.0,-0.01,-0.01
1778774824.9801528,-68.23,-0.25,0.05,-0.046,0.016,9.81,0.0,-0.01,-0.01
1778774824.9901311,-68.23,-0.25,0.05,-0.05,-0.006,9.81,0.0,-0.01,0.0
1778774825.0001533,-68.23,-0.25,0.05,-0.049,-0.025,9.81,0.0,-0.01,0.0
1778774825.0101397,-68.23,-0.24,0.04,-0.053,-0.032,9.81,0.0,-0.01,0.0
1778774825.0201695,-68.23,-0.24,0.04,-0.055,-0.023,9.81,-0.01,0.0,0.0
1778774825.0301547,-68.23,-0.25,0.03,-0.048,0.0,9.81,-0.01,0.0,0.0
1778774825.040131,-68.23,-0.24,0.04,-0.042,0.013,9.81,-0.01,0.0,0.0
1778774825.0501223,-68.23,-0.25,0.04,-0.04,0.011,9.81,0.0,0.0,-0.01
1778774825.0601323,-68.23,-0.25,0.05,-0.043,0.0,9.81,0.0,-0.01,0.0
1778774825.0701134,-68.23,-0.24,0.04,-0.05,-0.013,9.81,0.0,-0.01,0.0
1778774825.0800886,-68.23,-0.24,0.04,-0.057,-0.02,9.81,0.0,-0.01,0.0
1778774825.0901055,-68.23,-0.25,0.03,-0.059,-0.024,9.809,-0.01,0.0,0.0
1778774825.1001174,-68.23,-0.26,0.02,-0.057,-0.012,9.809,-0.01,0.0,0.0
1778774825.1101167,-68.23,-0.26,0.02,-0.051,0.01,9.809,-0.01,0.0,0.0
1778774825.1200893,-68.23,-0.26,0.02,-0.047,0.024,9.809,-0.01,0.0,0.0
1778774825.1300914,-68.23,-0.26,0.02,-0.041,0.034,9.809,-0.01,0.0,-0.01
1778774825.1400757,-68.23,-0.25,0.03,-0.04,0.02,9.809,0.0,-0.01,-0.01
1778774825.150138,-68.23,-0.25,0.03,-0.034,-0.006,9.809,0.0,-0.01,0.0
1778774825.1600888,-68.23,-0.25,0.02,-0.046,-0.018,9.81,0.0,-0.01,-0.01
1778774825.170103,-68.23,-0.25,0.01,-0.042,-0.029,9.81,-0.01,0.0,-0.01
1778774825.1801028,-68.23,-0.26,0.01,-0.047,-0.014,9.81,-0.01,0.0,-0.01
1778774825.190089,-68.23,-0.26,-0.0,-0.03,0.0,9.81,-0.01,0.0,0.0
1778774825.2001042,-68.23,-0.26,-0.0,-0.025,0.022,9.81,-0.01,0.0,0.0
1778774825.2101052,-68.23,-0.26,-0.0,-0.019,0.037,9.81,-0.01,0.0,0.0
1778774825.220091,-68.23,-0.25,0.0,-0.02,0.047,9.81,-0.01,0.0,-0.01
1778774825.2300894,-68.23,-0.25,0.01,-0.02,0.042,9.81,0.0,-0.01,0.0
1778774825.2400763,-68.23,-0.25,0.02,-0.032,0.023,9.81,0.0,-0.01,-0.01
1778774825.2500489,-68.23,-0.25,0.02,-0.032,0.005,9.81,0.0,-0.01,0.0
1778774825.2600899,-68.23,-0.25,0.02,-0.041,-0.013,9.81,0.0,-0.01,0.0
1778774825.2700574,-68.23,-0.25,0.01,-0.038,-0.016,9.81,0.0,0.0,0.0
1778774825.2801049,-68.23,-0.25,0.01,-0.043,-0.012,9.81,-0.01,0.0,0.0
1778774825.290091,-68.23,-0.25,0.0,-0.031,0.001,9.81,-0.01,0.0,0.0
1778774825.3000734,-68.23,-0.25,0.0,-0.035,0.023,9.81,-0.01,0.0,0.0
1778774825.3100562,-68.23,-0.25,0.01,-0.036,0.032,9.809,-0.01,0.0,0.0
1778774825.3200889,-68.23,-0.25,0.02,-0.037,0.031,9.809,0.0,-0.01,0.0
1778774825.3300517,-68.23,-0.25,0.02,-0.035,0.02,9.809,0.0,-0.01,0.0
1778774825.3400593,-68.23,-0.25,0.02,-0.037,0.01,9.809,0.0,-0.01,0.0
1778774825.3500564,-68.23,-0.25,0.02,-0.04,0.006,9.809,0.0,-0.01,0.0
1778774825.3600516,-68.23,-0.24,0.03,-0.043,-0.001,9.809,0.0,-0.01,0.0
1778774825.37009,-68.23,-0.24,0.03,-0.048,0.0,9.809,0.0,-0.01,0.0
1778774825.3805342,-68.23,-0.24,0.03,-0.047,-0.005,9.809,0.0,-0.01,-0.01
1778774825.390518,-68.23,-0.24,0.03,-0.043,-0.007,9.809,0.0,0.0,-0.01
1778774825.401018,-68.23,-0.24,0.03,-0.042,-0.01,9.809,0.0,0.0,-0.01
1778774825.4101312,-68.23,-0.25,0.02,-0.041,-0.014,9.809,-0.01,0.0,-0.01
1778774825.4209554,-68.23,-0.25,0.02,-0.044,-0.016,9.809,-0.01,0.0,0.0
1778774825.430227,-68.23,-0.25,0.02,-0.047,-0.01,9.809,-0.01,0.0,0.0
1778774825.440056,-68.23,-0.25,0.01,-0.044,0.004,9.809,-0.01,0.0,-0.01
1778774825.4500391,-68.23,-0.25,0.01,-0.031,0.018,9.809,-0.01,0.0,0.0
1778774825.4600215,-68.23,-0.25,0.02,-0.019,0.048,9.809,-0.01,0.0,0.0
1778774825.4700515,-68.23,-0.24,0.03,-0.01,0.06,9.81,0.0,-0.01,-0.01
1778774825.4800565,-68.23,-0.24,0.04,-0.014,0.051,9.81,0.0,-0.01,-0.01
1778774825.4900541,-68.23,-0.23,0.06,-0.029,0.019,9.81,0.0,-0.01,-0.01
1778774825.5000527,-68.23,-0.23,0.06,-0.047,-0.022,9.81,0.0,-0.01,-0.01
1778774825.5100546,-68.23,-0.24,0.05,-0.066,-0.051,9.81,0.0,-0.01,-0.01
1778774825.5200212,-68.23,-0.24,0.04,-0.067,-0.059,9.81,0.0,0.0,0.0
1778774825.5300221,-68.23,-0.24,0.03,-0.061,-0.038,9.81,-0.01,0.0,0.0
1778774825.5400066,-68.23,-0.24,0.03,-0.042,-0.013,9.81,-0.01,0.0,0.0
1778774825.550054,-68.23,-0.24,0.03,-0.035,0.008,9.81,-0.01,0.0,0.0
1778774825.5600228,-68.23,-0.24,0.03,-0.031,0.014,9.81,-0.01,0.0,0.0
1778774825.570003,-68.23,-0.24,0.03,-0.032,0.006,9.81,0.0,-0.01,0.0
1778774825.580006,-68.23,-0.24,0.03,-0.041,-0.005,9.81,0.0,-0.01,-0.01
1778774825.589973,-68.23,-0.24,0.03,-0.054,-0.011,9.81,0.0,0.0,0.0
1778774825.600021,-68.23,-0.24,0.03,-0.051,-0.012,9.81,-0.01,0.0,0.0
1778774825.6100044,-68.23,-0.24,0.03,-0.043,0.0,9.81,-0.01,0.0,0.0
1778774825.6199894,-68.23,-0.24,0.03,-0.035,0.013,9.81,-0.01,0.0,0.0
1778774825.6300375,-68.23,-0.24,0.03,-0.037,0.026,9.81,-0.01,0.0,0.0
1778774825.6400027,-68.23,-0.24,0.03,-0.038,0.02,9.81,0.0,-0.01,0.0
1778774825.6500041,-68.23,-0.24,0.03,-0.042,0.018,9.81,0.0,-0.01,0.0
1778774825.659987,-68.23,-0.23,0.04,-0.048,0.002,9.81,0.0,-0.01,0.0
1778774825.669182,-68.23,-0.24,0.04,-0.056,-0.006,9.81,0.0,-0.01,0.0
1778774825.6800056,-68.23,-0.24,0.04,-0.056,-0.001,9.81,0.0,0.0,-0.01
1778774825.6899889,-68.23,-0.24,0.04,-0.048,0.018,9.81,-0.01,0.0,0.0
1778774825.6991992,-68.23,-0.24,0.04,-0.032,0.036,9.81,0.0,0.0,0.0
1778774825.7100043,-68.23,-0.23,0.06,-0.029,0.048,9.81,0.0,0.0,0.0
1778774825.719988,-68.23,-0.23,0.07,-0.031,0.036,9.81,0.0,-0.01,0.0
1778774825.7291815,-68.23,-0.23,0.08,-0.042,0.01,9.81,0.0,-0.01,-0.01
1778774825.7391675,-68.23,-0.23,0.08,-0.057,-0.016,9.81,0.0,-0.01,0.0
1778774825.7491534,-68.23,-0.23,0.08,-0.06,-0.031,9.809,0.0,-0.01,0.0
1778774825.7599862,-68.23,-0.23,0.07,-0.059,-0.029,9.809,0.0,-0.01,0.0
1778774825.769163,-68.23,-0.23,0.07,-0.053,-0.02,9.809,-0.01,0.0,0.0
1778774825.779153,-68.23,-0.23,0.07,-0.042,-0.01,9.809,-0.01,0.0,0.0
1778774825.789161,-68.23,-0.23,0.07,-0.044,0.0,9.809,0.0,0.0,0.0
1778774825.7991488,-68.23,-0.23,0.08,-0.043,0.008,9.809,0.0,0.0,0.0
1778774825.8091717,-68.23,-0.23,0.09,-0.042,0.001,9.809,0.0,-0.01,0.0
1778774825.8191497,-68.23,-0.23,0.09,-0.037,-0.001,9.809,0.0,-0.01,0.0
1778774825.829157,-68.23,-0.22,0.09,-0.042,-0.013,9.809,0.0,-0.01,-0.01
1778774825.8391356,-68.23,-0.22,0.1,-0.047,-0.022,9.809,0.0,-0.01,0.0
1778774825.8491757,-68.23,-0.22,0.1,-0.057,-0.035,9.809,0.0,-0.01,0.0
1778774825.8591516,-68.23,-0.22,0.09,-0.056,-0.044,9.809,0.0,-0.01,0.0
1778774825.8691022,-68.23,-0.23,0.09,-0.06,-0.046,9.809,0.0,0.0,0.0
1778774825.8791237,-68.23,-0.23,0.09,-0.057,-0.034,9.809,-0.01,0.0,-0.01
1778774825.8891332,-68.23,-0.23,0.08,-0.048,-0.011,9.809,-0.01,0.0,0.0
1778774825.899133,-68.23,-0.23,0.08,-0.044,-0.004,9.809,-0.01,0.0,0.0
1778774825.909112,-68.23,-0.23,0.08,-0.043,0.0,9.809,0.0,0.0,0.0
1778774825.919137,-68.23,-0.22,0.08,-0.046,-0.01,9.809,0.0,-0.01,0.0
1778774825.9291177,-68.23,-0.23,0.08,-0.051,-0.022,9.809,0.0,-0.01,0.0
1778774825.9390852,-68.24,-0.23,0.08,-0.061,-0.031,9.81,0.0,0.0,0.0
1778774825.9491127,-68.24,-0.23,0.07,-0.062,-0.038,9.81,-0.01,0.0,0.0
1778774825.9591286,-68.24,-0.23,0.06,-0.048,-0.047,9.81,-0.01,0.0,0.0
1778774825.9691038,-68.24,-0.24,0.04,-0.055,-0.032,9.81,-0.01,0.0,0.0
1778774825.9790943,-68.24,-0.25,0.03,-0.062,-0.023,9.81,-0.01,0.0,0.0
1778774825.9891052,-68.24,-0.25,0.03,-0.054,0.005,9.81,-0.01,0.0,-0.01
1778774825.9991174,-68.24,-0.26,0.02,-0.04,0.028,9.81,-0.01,0.0,0.0
1778774826.0091064,-68.24,-0.25,0.03,-0.03,0.041,9.81,-0.01,0.0,0.0
1778774826.0190828,-68.25,-0.25,0.03,-0.029,0.048,9.809,0.0,-0.01,0.0
1778774826.029154,-68.25,-0.24,0.04,-0.03,0.031,9.809,0.0,-0.01,0.0
1778774826.0390992,-68.24,-0.24,0.04,-0.042,0.006,9.81,0.0,-0.01,0.0
1778774826.0491068,-68.24,-0.24,0.04,-0.057,-0.022,9.81,0.0,-0.01,-0.01
1778774826.059085,-68.24,-0.24,0.04,-0.059,-0.032,9.81,0.0,-0.01,0.0
1778774826.0690587,-68.24,-0.25,0.03,-0.05,-0.029,9.81,-0.01,0.0,0.0
1778774826.0790977,-68.25,-0.25,0.03,-0.048,-0.004,9.809,-0.01,0.0,0.0
1778774826.0890868,-68.25,-0.25,0.03,-0.035,0.017,9.809,-0.01,0.0,0.0
1778774826.0990539,-68.24,-0.25,0.03,-0.031,0.024,9.81,0.0,-0.01,0.0
1778774826.109114,-68.24,-0.24,0.04,-0.037,0.013,9.81,0.0,-0.01,0.0
1778774826.1191123,-68.24,-0.24,0.04,-0.043,-0.008,9.81,0.0,-0.01,-0.01
1778774826.1290908,-68.24,-0.24,0.04,-0.048,-0.032,9.81,0.0,-0.01,0.0
1778774826.1390839,-68.24,-0.24,0.04,-0.054,-0.04,9.81,0.0,-0.01,0.0
1778774826.1490695,-68.24,-0.25,0.02,-0.053,-0.035,9.81,-0.01,0.0,0.0
1778774826.1590698,-68.24,-0.25,0.02,-0.049,-0.014,9.81,-0.01,0.0,0.0
1778774826.16909,-68.24,-0.25,0.02,-0.042,0.012,9.81,-0.01,0.0,0.0
1778774826.1790538,-68.24,-0.25,0.02,-0.034,0.024,9.81,-0.01,0.0,0.0
1778774826.1890552,-68.24,-0.24,0.03,-0.032,0.023,9.81,0.0,-0.01,0.0
1778774826.19907,-68.24,-0.25,0.03,-0.044,0.005,9.809,0.0,-0.01,0.0
1778774826.209057,-68.24,-0.25,0.03,-0.05,-0.016,9.809,0.0,-0.01,0.0
1778774826.2190542,-68.24,-0.25,0.03,-0.056,-0.026,9.81,0.0,-0.01,-0.01
1778774826.229057,-68.23,-0.25,0.02,-0.06,-0.03,9.809,-0.01,0.0,0.0
1778774826.2390537,-68.23,-0.25,0.01,-0.054,-0.019,9.809,-0.01,0.0,-0.01
1778774826.249057,-68.23,-0.26,0.01,-0.048,-0.002,9.809,-0.01,0.0,0.0
1778774826.2590575,-68.23,-0.26,0.01,-0.049,0.007,9.809,-0.01,0.0,0.0
1778774826.2690296,-68.23,-0.26,0.0,-0.04,0.017,9.809,-0.01,0.0,0.0
1778774826.2790546,-68.23,-0.26,0.0,-0.038,0.014,9.809,-0.01,0.0,0.0
1778774826.289057,-68.23,-0.26,0.0,-0.044,0.011,9.809,-0.01,0.0,-0.01
1778774826.2990227,-68.23,-0.26,0.0,-0.044,0.006,9.809,-0.01,0.0,-0.01
1778774826.309059,-68.23,-0.26,-0.01,-0.047,0.002,9.809,-0.01,0.0,0.0
1778774826.3190577,-68.23,-0.26,-0.01,-0.044,-0.001,9.809,-0.01,0.0,0.0
1778774826.3290458,-68.23,-0.26,-0.01,-0.042,0.006,9.809,-0.01,0.0,0.0
1778774826.3399105,-68.23,-0.26,-0.02,-0.034,0.019,9.809,-0.01,0.0,0.0
1778774826.3505,-68.23,-0.26,-0.01,-0.028,0.029,9.809,-0.01,0.0,0.0
1778774826.3591213,-68.23,-0.26,-0.01,-0.029,0.025,9.809,0.0,0.0,0.0
1778774826.369051,-68.23,-0.26,-0.0,-0.037,0.018,9.809,0.0,-0.01,-0.01
1778774826.3791814,-68.23,-0.26,0.0,-0.04,0.005,9.809,0.0,0.0,-0.01
1778774826.3890312,-68.23,-0.26,0.0,-0.04,0.0,9.809,0.0,-0.01,-0.01
1778774826.3989892,-68.23,-0.26,0.0,-0.038,0.007,9.809,-0.01,0.0,0.0
1778774826.4090264,-68.23,-0.26,0.0,-0.04,0.023,9.809,-0.01,0.0,0.0
1778774826.41899,-68.23,-0.26,0.0,-0.029,0.022,9.809,0.0,-0.01,0.0
1778774826.4290226,-68.23,-0.26,0.01,-0.034,0.018,9.809,0.0,-0.01,0.0
1778774826.4390087,-68.23,-0.25,0.01,-0.042,0.006,9.809,0.0,-0.01,0.0
1778774826.4489956,-68.23,-0.25,0.01,-0.049,0.006,9.809,0.0,-0.01,-0.01
1778774826.458973,-68.23,-0.25,0.01,-0.047,-0.004,9.809,0.0,-0.01,-0.01
1778774826.4690256,-68.23,-0.25,0.02,-0.049,-0.007,9.809,0.0,-0.01,0.0
1778774826.4790237,-68.23,-0.25,0.02,-0.05,-0.014,9.809,0.0,-0.01,-0.01
1778774826.4890099,-68.23,-0.25,0.01,-0.049,-0.007,9.809,0.0,0.0,-0.01
1778774826.4981804,-68.23,-0.25,0.01,-0.048,0.0,9.809,-0.01,0.0,0.0
1778774826.5090075,-68.23,-0.25,0.01,-0.044,0.01,9.809,-0.01,0.0,0.0
1778774826.5189896,-68.23,-0.26,0.02,-0.041,0.01,9.809,-0.01,0.0,0.0
1778774826.5290227,-68.23,-0.26,0.02,-0.035,0.006,9.809,0.0,0.0,0.0
1778774826.5389907,-68.23,-0.26,0.02,-0.046,0.004,9.809,0.0,0.0,0.0
1778774826.5481832,-68.23,-0.26,0.02,-0.05,0.0,9.809,0.0,-0.01,0.0
1778774826.5590048,-68.23,-0.26,0.02,-0.049,-0.004,9.809,0.0,-0.01,0.0
1778774826.5689936,-68.23,-0.26,0.02,-0.051,-0.002,9.809,-0.01,0.0,0.0
1778774826.5781848,-68.23,-0.26,0.02,-0.048,-0.005,9.809,-0.01,0.0,0.0
1778774826.5881524,-68.24,-0.26,0.02,-0.04,0.004,9.81,-0.01,0.0,0.0
1778774826.599135,-68.24,-0.26,0.02,-0.032,0.008,9.81,0.0,0.0,0.0
1778774826.608151,-68.24,-0.26,0.02,-0.035,0.005,9.81,0.0,0.0,0.0
1778774826.6191192,-68.24,-0.26,0.02,-0.036,0.0,9.81,0.0,-0.01,0.0
1778774826.6281276,-68.24,-0.26,0.02,-0.042,-0.001,9.81,0.0,0.0,0.0
1778774826.6381354,-68.24,-0.26,0.02,-0.043,-0.002,9.81,-0.01,0.0,0.0
1778774826.648151,-68.25,-0.26,0.01,-0.042,0.013,9.809,-0.01,0.0,0.0
1778774826.6581368,-68.25,-0.26,0.02,-0.036,0.02,9.809,-0.01,0.0,0.0
1778774826.668149,-68.25,-0.26,0.02,-0.031,0.023,9.809,-0.01,0.0,0.0
1778774826.6781406,-68.25,-0.26,0.02,-0.036,0.02,9.809,0.0,-0.01,0.0
1778774826.688133,-68.25,-0.26,0.02,-0.041,0.012,9.809,0.0,-0.01,0.0
1778774826.6981535,-68.25,-0.26,0.02,-0.047,0.008,9.809,0.0,-0.01,0.0
1778774826.7081528,-68.25,-0.26,0.02,-0.05,0.002,9.809,0.0,-0.01,0.0
1778774826.7181196,-68.25,-0.26,0.02,-0.049,0.0,9.809,0.0,0.0,0.0
1778774826.7281506,-68.25,-0.26,0.02,-0.041,0.006,9.809,-0.01,0.0,-0.01
1778774826.7381494,-68.25,-0.26,0.02,-0.04,0.018,9.809,0.0,0.0,-0.01
1778774826.748117,-68.25,-0.26,0.03,-0.036,0.013,9.806,0.0,-0.01,0.0
1778774826.758083,-68.24,-0.25,0.03,-0.043,0.0,9.809,0.0,-0.01,0.0
1778774826.7681224,-68.24,-0.25,0.03,-0.044,-0.014,9.809,0.0,-0.01,-0.01
1778774826.7781086,-68.24,-0.25,0.03,-0.049,-0.016,9.809,0.0,-0.01,0.0
1778774826.7881286,-68.24,-0.25,0.03,-0.051,-0.011,9.809,-0.01,0.0,0.0
1778774826.7980974,-68.24,-0.26,0.02,-0.044,0.0,9.81,-0.01,0.0,0.0
1778774826.808085,-68.25,-0.26,0.02,-0.043,0.0,9.809,-0.01,0.0,0.0
1778774826.8181105,-68.25,-0.26,0.02,-0.048,0.0,9.809,-0.01,0.0,0.0
1778774826.8281064,-68.25,-0.26,0.02,-0.043,0.0,9.809,-0.01,0.0,0.0
1778774826.83807,-68.25,-0.26,0.02,-0.049,0.0,9.809,-0.01,0.0,0.0
1778774826.848129,-68.25,-0.26,0.02,-0.044,-0.005,9.809,-0.01,0.0,0.0
1778774826.8581197,-68.25,-0.26,0.02,-0.043,-0.007,9.809,-0.01,-0.01,0.0
1778774826.8681073,-68.25,-0.26,0.02,-0.04,-0.005,9.809,-0.01,0.0,0.0
1778774826.8780735,-68.25,-0.26,0.02,-0.042,-0.002,9.809,-0.01,0.0,0.0
1778774826.8880563,-68.25,-0.26,0.02,-0.036,-0.002,9.809,-0.01,0.0,-0.01
1778774826.8981764,-68.25,-0.26,0.01,-0.035,-0.001,9.809,-0.01,0.0,-0.01
1778774826.9081714,-68.25,-0.26,0.01,-0.037,0.0,9.809,-0.01,0.0,0.0
1778774826.918161,-68.25,-0.26,0.01,-0.04,0.006,9.809,-0.01,0.0,0.0
1778774826.9280736,-68.25,-0.26,0.01,-0.038,0.004,9.809,-0.01,0.0,0.0
1778774826.938086,-68.25,-0.26,0.01,-0.04,0.007,9.809,-0.01,0.0,0.0
1778774826.9480886,-68.25,-0.26,0.01,-0.032,0.01,9.809,-0.01,0.0,0.0
1778774826.9580715,-68.25,-0.26,0.01,-0.024,0.016,9.809,-0.01,0.0,0.0
1778774826.9680846,-68.25,-0.26,0.01,-0.019,0.022,9.809,0.0,0.0,0.0
1778774826.9780695,-68.25,-0.26,0.01,-0.023,0.019,9.809,0.0,-0.01,0.0
1778774826.988045,-68.25,-0.25,0.01,-0.026,0.016,9.809,0.0,0.0,0.0
1778774826.9980588,-68.25,-0.25,0.01,-0.031,0.008,9.809,0.0,-0.01,0.0
1778774827.0080447,-68.25,-0.25,0.01,-0.035,0.008,9.809,0.0,0.0,0.0
1778774827.0180695,-68.25,-0.25,0.01,-0.037,0.007,9.809,0.0,-0.01,0.0
1778774827.0280516,-68.25,-0.25,0.02,-0.037,0.002,9.809,0.0,-0.01,-0.01
1778774827.0380857,-68.25,-0.25,0.02,-0.034,0.001,9.809,0.0,0.0,0.0
1778774827.0480525,-68.25,-0.25,0.02,-0.035,0.005,9.809,0.0,0.0,0.0
1778774827.058295,-68.25,-0.26,0.02,-0.044,0.002,9.809,0.0,-0.01,-0.01
1778774827.0680552,-68.25,-0.26,0.02,-0.046,0.002,9.809,0.0,0.0,0.0
1778774827.07809,-68.25,-0.25,0.03,-0.046,0.006,9.809,0.0,0.0,0.0
1778774827.0880697,-68.25,-0.25,0.03,-0.042,0.007,9.809,0.0,-0.01,-0.01
1778774827.098054,-68.25,-0.25,0.03,-0.04,0.008,9.809,0.0,-0.01,-0.01
1778774827.1080666,-68.25,-0.25,0.03,-0.042,0.005,9.809,0.0,-0.01,-0.01
1778774827.1180632,-68.24,-0.25,0.04,-0.047,0.0,9.81,0.0,-0.01,-0.01
1778774827.12807,-68.24,-0.25,0.03,-0.044,-0.004,9.81,0.0,-0.01,0.0
1778774827.1380582,-68.24,-0.25,0.03,-0.043,-0.002,9.81,0.0,-0.01,0.0
1778774827.1480646,-68.24,-0.25,0.03,-0.047,-0.005,9.81,0.0,-0.01,0.0
1778774827.1580393,-68.25,-0.25,0.03,-0.05,-0.007,9.809,0.0,0.0,0.0
1778774827.1680548,-68.24,-0.25,0.03,-0.05,-0.007,9.81,-0.01,0.0,0.0
1778774827.1780555,-68.25,-0.25,0.03,-0.046,-0.004,9.809,-0.01,0.0,-0.01
1778774827.1880527,-68.25,-0.25,0.03,-0.042,0.001,9.809,-0.01,0.0,0.0
1778774827.1980188,-68.25,-0.25,0.03,-0.035,0.008,9.809,-0.01,0.0,0.0
1778774827.2080529,-68.25,-0.25,0.03,-0.03,0.007,9.809,-0.01,0.0,0.0
1778774827.2180207,-68.25,-0.25,0.03,-0.037,0.004,9.809,0.0,0.0,0.0
1778774827.228006,-68.25,-0.25,0.03,-0.042,0.001,9.809,0.0,-0.01,-0.01
1778774827.2380376,-68.25,-0.25,0.03,-0.043,0.0,9.809,0.0,-0.01,0.0
1778774827.2480083,-68.25,-0.25,0.03,-0.044,-0.005,9.809,0.0,-0.01,0.0
