timestamp,yaw,pitch,roll,accel_x,accel_y,accel_z,gyro_x,gyro_y,gyro_z
1776535590.8429782,90.96,0.2,-0.26,0.048,-0.011,9.808,0.0,0.0,0.0
1776535590.8531153,90.97,0.19,-0.26,0.059,-0.007,9.809,0.0,-0.01,0.0
1776535590.862686,90.97,0.2,-0.26,0.063,-0.007,9.809,0.0,0.0,-0.01
1776535590.873111,90.97,0.2,-0.26,0.066,-0.025,9.808,-0.01,0.0,-0.01
1776535590.883136,90.97,0.2,-0.26,0.051,-0.051,9.809,-0.01,0.0,-0.01
1776535590.8931668,90.96,0.19,-0.27,0.036,-0.069,9.808,-0.01,0.0,0.0
1776535590.9027228,90.96,0.19,-0.27,0.036,-0.059,9.808,-0.01,0.0,0.0
1776535590.9127903,90.96,0.19,-0.27,-0.007,-0.06,9.809,-0.01,-0.01,0.0
1776535590.9227014,90.96,0.19,-0.27,-0.099,-0.073,9.808,0.0,-0.01,-0.01
1776535590.9326766,90.98,0.18,-0.26,-0.164,-0.087,9.809,0.0,-0.01,-0.01
1776535590.942675,91.0,0.18,-0.27,-0.14,-0.122,9.809,0.0,-0.01,-0.02
1776535590.9526942,91.0,0.19,-0.27,-0.089,-0.133,9.808,0.0,-0.01,-0.02
1776535590.9626873,91.0,0.22,-0.27,-0.029,-0.127,9.809,0.0,-0.02,-0.01
1776535590.9726927,90.98,0.23,-0.27,0.034,-0.091,9.808,0.0,-0.02,0.0
1776535590.9826715,90.97,0.25,-0.26,0.071,-0.019,9.809,0.0,-0.01,0.01
1776535590.992668,90.96,0.26,-0.25,0.103,0.044,9.808,-0.01,-0.01,0.0
1776535591.0026608,90.98,0.27,-0.24,0.126,0.059,9.809,0.0,-0.01,-0.01
1776535591.012692,90.99,0.27,-0.23,0.134,0.038,9.808,0.0,0.0,-0.01
1776535591.022683,91.01,0.27,-0.24,0.129,-0.001,9.809,-0.01,0.0,-0.02
1776535591.0326815,91.02,0.27,-0.24,0.115,-0.043,9.809,-0.01,0.0,-0.02
1776535591.0426736,91.01,0.26,-0.25,0.09,-0.075,9.809,-0.01,0.0,-0.01
1776535591.0526602,91.0,0.26,-0.25,0.057,-0.061,9.809,-0.01,0.0,0.0
1776535591.0626795,90.99,0.25,-0.25,0.032,-0.051,9.809,-0.01,0.0,0.0
1776535591.0726573,90.98,0.24,-0.25,-0.002,-0.04,9.808,0.0,0.0,0.0
1776535591.0826619,90.99,0.24,-0.25,-0.023,-0.038,9.809,-0.01,-0.01,0.0
1776535591.092668,91.0,0.23,-0.25,-0.031,-0.046,9.809,-0.01,0.0,-0.01
1776535591.1026554,91.01,0.23,-0.25,-0.026,-0.071,9.809,0.0,-0.01,-0.01
1776535591.1126666,91.01,0.24,-0.26,-0.012,-0.081,9.809,-0.01,-0.01,-0.01
1776535591.122673,91.0,0.24,-0.26,0.008,-0.072,9.808,-0.01,-0.01,0.0
1776535591.13286,91.0,0.24,-0.26,0.032,-0.067,9.809,0.0,-0.01,0.0
1776535591.142686,90.99,0.25,-0.26,0.051,-0.05,9.808,-0.01,-0.01,0.0
1776535591.1526623,90.99,0.25,-0.26,0.068,-0.053,9.808,-0.01,0.0,0.0
1776535591.1628058,90.99,0.25,-0.26,0.059,-0.06,9.808,-0.01,0.0,-0.01
1776535591.1727834,91.0,0.24,-0.26,0.036,-0.055,9.809,-0.01,0.0,-0.01
1776535591.1827154,91.0,0.23,-0.26,0.014,-0.049,9.809,-0.01,0.0,-0.01
1776535591.192691,91.0,0.23,-0.26,0.002,-0.05,9.809,0.0,0.0,-0.01
1776535591.202688,91.0,0.23,-0.26,-0.016,-0.046,9.809,0.0,-0.01,-0.01
1776535591.2128026,91.0,0.23,-0.26,-0.011,-0.035,9.809,0.0,0.0,0.0
1776535591.2227738,91.0,0.23,-0.26,-0.011,-0.028,9.809,-0.01,-0.01,-0.01
1776535591.2326488,91.0,0.22,-0.25,0.004,-0.037,9.808,0.0,-0.01,-0.01
1776535591.242697,91.0,0.23,-0.26,0.012,-0.046,9.808,0.0,-0.01,-0.01
1776535591.2527068,91.0,0.23,-0.26,0.029,-0.053,9.808,-0.01,-0.01,-0.01
1776535591.262701,91.0,0.23,-0.26,0.043,-0.063,9.808,-0.01,-0.01,-0.01
1776535591.2726884,91.0,0.23,-0.26,0.047,-0.066,9.808,-0.01,0.0,0.0
1776535591.2826588,91.0,0.23,-0.26,0.05,-0.074,9.809,0.0,0.0,0.0
1776535591.292805,91.0,0.23,-0.27,0.03,-0.065,9.809,0.0,0.0,0.0
1776535591.3028076,91.0,0.23,-0.27,0.03,-0.066,9.808,-0.01,0.0,0.0
1776535591.3126922,91.0,0.22,-0.26,0.02,-0.055,9.808,0.0,0.0,-0.01
1776535591.3226588,91.01,0.22,-0.26,0.006,-0.053,9.809,0.0,0.0,-0.01
1776535591.3328137,91.01,0.22,-0.27,0.005,-0.051,9.809,0.0,0.0,-0.01
1776535591.342705,91.01,0.21,-0.26,0.005,-0.043,9.809,-0.01,0.0,0.0
1776535591.3526745,91.0,0.21,-0.26,0.005,-0.044,9.808,0.0,-0.01,0.0
1776535591.3626726,91.0,0.21,-0.26,0.008,-0.034,9.809,-0.01,-0.01,0.0
1776535591.3726723,91.0,0.22,-0.26,0.022,-0.026,9.809,-0.01,0.0,0.0
1776535591.3826683,91.0,0.22,-0.26,0.032,-0.029,9.808,-0.01,-0.01,-0.01
1776535591.3926635,91.0,0.22,-0.26,0.043,-0.042,9.808,-0.01,0.0,-0.01
1776535591.4026668,91.01,0.22,-0.26,0.043,-0.047,9.809,-0.01,-0.01,-0.01
1776535591.4126685,91.01,0.22,-0.26,0.05,-0.079,9.809,-0.01,0.0,-0.01
1776535591.4226658,91.0,0.22,-0.27,0.037,-0.075,9.808,0.0,-0.01,0.0
1776535591.432668,91.0,0.22,-0.27,0.036,-0.078,9.809,0.0,0.0,0.0
1776535591.4426644,91.0,0.22,-0.27,0.019,-0.061,9.809,-0.01,0.0,0.0
1776535591.4526792,91.0,0.21,-0.27,0.007,-0.047,9.809,-0.01,0.0,0.0
1776535591.462671,91.0,0.21,-0.27,-0.007,-0.041,9.808,-0.01,0.0,-0.01
1776535591.4726684,91.0,0.21,-0.27,0.0,-0.041,9.808,-0.01,0.0,-0.01
1776535591.4826708,91.0,0.21,-0.27,0.001,-0.038,9.808,-0.01,-0.01,-0.01
1776535591.4926515,91.0,0.21,-0.27,0.014,-0.043,9.808,0.0,-0.01,0.0
1776535591.5026352,91.0,0.21,-0.26,0.025,-0.037,9.809,-0.01,-0.01,0.0
1776535591.512619,90.99,0.21,-0.26,0.038,-0.037,9.808,0.0,-0.01,0.0
1776535591.5226686,90.99,0.21,-0.26,0.041,-0.034,9.808,-0.01,-0.01,0.0
1776535591.5326512,91.0,0.21,-0.26,0.032,-0.04,9.809,0.0,0.0,-0.01
1776535591.542622,91.0,0.21,-0.27,0.02,-0.043,9.808,-0.01,0.0,-0.01
1776535591.552619,91.0,0.21,-0.26,0.01,-0.06,9.808,-0.01,0.0,-0.01
1776535591.5626714,91.0,0.21,-0.27,0.005,-0.072,9.808,0.0,0.0,-0.01
1776535591.5726573,91.0,0.2,-0.27,0.005,-0.062,9.809,-0.01,-0.01,0.0
1776535591.5826209,90.99,0.2,-0.27,0.011,-0.054,9.808,0.0,-0.01,0.0
1776535591.592601,90.99,0.21,-0.26,0.011,-0.04,9.808,0.0,-0.01,0.0
1776535591.6026542,91.0,0.21,-0.26,0.011,-0.025,9.809,0.0,-0.01,-0.01
1776535591.6126695,91.0,0.21,-0.26,0.023,-0.036,9.808,-0.01,-0.01,-0.01
1776535591.6226358,91.0,0.21,-0.26,0.018,-0.04,9.808,0.0,0.0,-0.01
1776535591.6326177,91.0,0.2,-0.27,0.032,-0.044,9.808,0.0,-0.01,-0.01
1776535591.6426048,91.0,0.2,-0.27,0.024,-0.047,9.809,-0.01,0.0,0.0
1776535591.6526465,91.0,0.2,-0.27,0.023,-0.053,9.809,-0.01,0.0,0.0
1776535591.6629708,90.99,0.2,-0.27,0.028,-0.051,9.808,0.0,0.0,0.0
1776535591.6726415,91.0,0.2,-0.27,0.029,-0.057,9.809,-0.01,0.0,0.0
1776535591.6826081,91.0,0.2,-0.27,0.022,-0.062,9.809,0.0,0.0,-0.01
1776535591.692629,91.0,0.19,-0.27,0.012,-0.063,9.809,-0.01,-0.01,-0.01
1776535591.7025967,91.0,0.19,-0.27,0.01,-0.051,9.809,-0.01,0.0,-0.01
1776535591.7126436,91.0,0.19,-0.27,0.008,-0.049,9.809,0.0,-0.01,0.0
1776535591.7226117,91.0,0.19,-0.27,0.006,-0.048,9.809,0.0,0.0,0.0
1776535591.7326097,91.0,0.19,-0.27,0.016,-0.047,9.809,-0.01,-0.01,0.0
1776535591.742596,91.0,0.2,-0.26,0.024,-0.05,9.809,-0.01,-0.01,-0.01
1776535591.751804,91.0,0.2,-0.27,0.028,-0.06,9.808,0.0,-0.01,-0.01
1776535591.7618082,91.0,0.2,-0.27,0.04,-0.072,9.808,-0.01,-0.01,-0.01
1776535591.7717884,91.0,0.2,-0.27,0.038,-0.073,9.809,-0.01,-0.01,0.0
1776535591.7825966,90.99,0.2,-0.27,0.042,-0.085,9.808,0.0,0.0,0.0
1776535591.791772,90.99,0.2,-0.27,0.024,-0.057,9.809,0.0,0.0,0.0
1776535591.8026137,90.99,0.19,-0.27,0.023,-0.035,9.809,-0.01,0.0,0.0
1776535591.8117902,90.99,0.19,-0.27,0.011,-0.022,9.808,0.0,0.0,-0.01
1776535591.8217566,91.0,0.19,-0.26,0.014,-0.012,9.809,0.0,0.0,-0.01
1776535591.8325975,91.0,0.19,-0.26,0.008,-0.023,9.808,0.0,0.0,-0.01
1776535591.8425987,91.0,0.19,-0.26,0.013,-0.04,9.808,0.0,-0.01,-0.01
1776535591.8525949,91.0,0.19,-0.26,0.017,-0.044,9.809,-0.01,-0.01,-0.01
1776535591.8618014,91.0,0.19,-0.26,0.022,-0.047,9.809,-0.01,-0.01,0.0
1776535591.8721573,91.0,0.19,-0.27,0.03,-0.054,9.809,0.0,0.0,0.0
1776535591.8825996,91.0,0.19,-0.27,0.03,-0.061,9.809,-0.01,-0.01,0.0
1776535591.8917778,91.0,0.19,-0.27,0.038,-0.057,9.809,-0.01,0.0,-0.01
1776535591.901774,91.0,0.19,-0.27,0.032,-0.06,9.808,-0.01,0.0,-0.01
1776535591.9117534,91.0,0.19,-0.28,0.074,-0.028,9.808,-0.01,0.0,-0.01
1776535591.9217534,91.0,0.18,-0.3,0.182,0.024,9.808,-0.02,0.0,-0.01
1776535591.9317513,91.01,0.19,-0.3,0.257,-0.002,9.809,-0.02,0.01,-0.01
1776535591.9417555,91.01,0.19,-0.32,0.273,0.096,9.808,-0.02,0.01,-0.01
1776535591.9517546,91.03,0.16,-0.33,0.219,0.077,9.809,-0.02,0.01,-0.01
1776535591.961781,91.05,0.12,-0.34,0.225,0.046,9.809,-0.02,0.02,-0.02
1776535591.971782,91.05,0.1,-0.34,0.162,-0.043,9.808,-0.01,0.02,-0.01
1776535591.981784,91.05,0.05,-0.37,0.081,-0.108,9.809,-0.01,0.02,-0.01
1776535591.9917753,91.04,0.02,-0.39,0.034,-0.134,9.809,-0.01,0.02,0.0
1776535592.0017319,91.02,-0.0,-0.39,-0.048,-0.135,9.808,-0.01,0.01,0.01
1776535592.0117342,91.02,-0.02,-0.39,-0.121,-0.129,9.809,0.0,0.0,0.0
1776535592.0217462,91.01,-0.05,-0.39,-0.162,-0.116,9.808,0.0,0.0,0.0
1776535592.0317447,91.03,-0.05,-0.38,-0.158,-0.078,9.809,0.0,0.0,-0.01
1776535592.0417526,91.04,-0.04,-0.37,-0.171,-0.072,9.808,0.0,-0.01,-0.01
1776535592.0517478,91.06,-0.04,-0.37,-0.122,-0.019,9.808,0.0,-0.01,-0.02
1776535592.0617068,91.07,-0.02,-0.36,-0.081,-0.02,9.808,0.0,-0.02,-0.02
1776535592.071684,91.07,0.0,-0.36,0.014,0.0,9.809,0.0,-0.02,-0.01
1776535592.0817325,91.06,0.03,-0.36,0.098,0.004,9.808,-0.01,-0.01,0.0
1776535592.0917418,91.04,0.05,-0.36,0.183,0.053,9.808,-0.01,-0.01,0.01
1776535592.1017318,91.02,0.07,-0.36,0.238,0.099,9.808,-0.01,-0.01,0.01
1776535592.1117136,91.01,0.08,-0.34,0.245,0.122,9.809,-0.01,0.0,0.01
1776535592.1217058,91.01,0.08,-0.34,0.224,0.101,9.808,-0.01,0.0,0.0
1776535592.1316838,91.03,0.07,-0.34,0.17,0.063,9.809,-0.01,0.0,-0.01
1776535592.141695,91.05,0.05,-0.34,0.105,-0.016,9.809,-0.01,0.0,-0.02
1776535592.1517434,91.06,0.04,-0.34,0.057,-0.069,9.809,0.0,0.0,-0.02
1776535592.161707,91.06,0.04,-0.34,0.0,-0.098,9.809,0.0,0.0,-0.01
1776535592.1717424,91.05,0.03,-0.34,-0.023,-0.08,9.809,0.0,0.0,0.0
1776535592.1817021,91.04,0.03,-0.33,-0.04,-0.036,9.809,0.0,-0.01,0.0
1776535592.1917121,91.03,0.03,-0.33,-0.026,-0.013,9.808,0.0,-0.01,0.0
1776535592.201692,91.04,0.04,-0.32,0.01,-0.006,9.809,0.0,-0.01,0.0
1776535592.2116718,91.04,0.05,-0.32,0.06,-0.005,9.808,-0.01,-0.01,-0.01
1776535592.2216916,91.04,0.06,-0.33,0.105,-0.032,9.808,-0.01,-0.01,-0.01
1776535592.231672,91.04,0.08,-0.33,0.151,-0.04,9.809,-0.01,-0.01,0.0
1776535592.241732,91.04,0.09,-0.34,0.168,-0.034,9.809,-0.01,-0.01,0.0
1776535592.2517016,91.04,0.09,-0.34,0.177,-0.031,9.809,-0.01,0.0,0.0
1776535592.2616894,91.04,0.1,-0.33,0.154,-0.023,9.808,0.0,0.0,-0.01
1776535592.271669,91.05,0.09,-0.33,0.12,-0.023,9.809,0.0,0.0,-0.01
1776535592.2817066,91.06,0.09,-0.32,0.087,-0.016,9.809,0.0,0.0,-0.01
1776535592.2916672,91.06,0.09,-0.31,0.048,-0.011,9.809,0.0,0.0,-0.01
1776535592.3017085,91.05,0.08,-0.31,0.029,-0.002,9.808,0.0,0.0,0.0
1776535592.3116686,91.04,0.08,-0.3,0.02,0.024,9.808,0.0,0.0,0.0
1776535592.3218744,91.03,0.08,-0.3,0.011,0.038,9.808,-0.01,-0.01,0.0
1776535592.3321471,91.03,0.09,-0.29,0.029,0.035,9.808,0.0,-0.01,0.0
1776535592.341911,91.04,0.09,-0.29,0.047,0.023,9.809,-0.01,-0.01,0.0
1776535592.352131,91.05,0.1,-0.29,0.063,-0.012,9.809,-0.01,-0.01,-0.01
1776535592.3619153,91.06,0.1,-0.3,0.081,-0.053,9.809,-0.01,-0.01,-0.01
1776535592.3721485,91.06,0.11,-0.31,0.096,-0.096,9.809,-0.01,-0.01,-0.01
1776535592.3819387,91.06,0.12,-0.31,0.114,-0.114,9.809,-0.01,-0.01,-0.01
1776535592.3921309,91.05,0.12,-0.32,0.115,-0.089,9.809,0.0,0.0,0.0
1776535592.4019296,91.04,0.12,-0.31,0.101,-0.05,9.809,0.0,0.0,0.0
1776535592.4121318,91.04,0.12,-0.3,0.081,-0.006,9.809,0.0,0.0,0.0
1776535592.4219086,91.04,0.12,-0.29,0.057,0.028,9.808,0.0,0.0,0.0
1776535592.4321363,91.05,0.11,-0.29,0.031,0.046,9.809,0.0,0.0,-0.01
1776535592.442136,91.05,0.11,-0.28,0.023,0.041,9.808,0.0,0.0,-0.01
1776535592.4521031,91.05,0.11,-0.28,0.029,0.019,9.808,-0.01,0.0,-0.01
1776535592.462138,91.05,0.12,-0.27,0.036,0.007,9.809,0.0,-0.01,0.0
1776535592.472118,91.05,0.12,-0.28,0.049,0.007,9.809,0.0,-0.01,0.0
1776535592.4821348,91.04,0.13,-0.27,0.069,-0.014,9.808,-0.01,-0.01,0.0
1776535592.492134,91.05,0.13,-0.28,0.097,-0.032,9.809,-0.01,0.0,0.0
1776535592.5021067,91.05,0.14,-0.28,0.092,-0.06,9.809,0.0,0.0,-0.01
1776535592.5121439,91.05,0.14,-0.28,0.095,-0.079,9.809,0.0,0.0,-0.01
1776535592.5221345,91.05,0.14,-0.28,0.081,-0.069,9.809,-0.01,0.0,0.0
1776535592.5321007,91.04,0.14,-0.28,0.071,-0.061,9.808,0.0,0.0,0.0
1776535592.5421157,91.05,0.14,-0.28,0.061,-0.03,9.809,0.0,0.0,0.0
1776535592.5520902,91.05,0.14,-0.27,0.048,-0.004,9.809,0.0,0.0,-0.01
1776535592.5621426,91.05,0.14,-0.27,0.047,0.002,9.808,0.0,0.0,-0.01
1776535592.572102,91.05,0.14,-0.27,0.051,0.007,9.808,-0.01,0.0,-0.01
1776535592.5820897,91.05,0.14,-0.27,0.049,0.006,9.809,-0.01,-0.01,0.0
1776535592.5920875,91.05,0.14,-0.27,0.054,-0.001,9.809,-0.01,0.0,0.0
1776535592.6021407,91.04,0.15,-0.26,0.053,-0.007,9.808,-0.01,0.0,0.0
1776535592.6121,91.04,0.15,-0.26,0.055,-0.014,9.808,-0.01,-0.01,0.0
1776535592.6221035,91.05,0.15,-0.26,0.063,-0.035,9.809,-0.01,0.0,-0.01
1776535592.6320863,91.05,0.15,-0.27,0.071,-0.068,9.809,0.0,-0.01,-0.01
1776535592.642105,91.05,0.16,-0.27,0.085,-0.079,9.809,0.0,-0.01,-0.01
1776535592.651608,91.04,0.16,-0.27,0.09,-0.061,9.809,-0.01,0.0,0.0
1776535592.661626,91.03,0.16,-0.27,0.087,-0.04,9.808,0.0,0.0,0.0
1776535592.6715915,91.03,0.16,-0.26,0.087,-0.016,9.808,0.0,0.0,0.0
1776535592.6816976,91.04,0.16,-0.26,0.074,-0.006,9.809,0.0,0.0,-0.01
1776535592.6916404,91.04,0.16,-0.26,0.053,-0.006,9.808,-0.01,0.0,-0.01
1776535592.7016335,91.05,0.16,-0.25,0.037,-0.022,9.809,-0.01,0.0,-0.01
1776535592.7116265,91.05,0.16,-0.26,0.026,-0.037,9.809,0.0,-0.01,-0.01
1776535592.7216148,91.04,0.16,-0.26,0.034,-0.036,9.808,-0.01,-0.01,0.0
1776535592.731609,91.04,0.17,-0.26,0.049,-0.023,9.809,-0.01,-0.01,0.0
1776535592.7407863,91.03,0.17,-0.25,0.061,-0.016,9.808,0.0,-0.01,0.0
1776535592.7516084,91.03,0.18,-0.25,0.073,0.002,9.808,0.0,-0.01,0.0
1776535592.7615952,91.04,0.18,-0.25,0.083,0.004,9.809,-0.01,0.0,-0.01
1776535592.770818,91.04,0.18,-0.25,0.087,-0.006,9.808,-0.01,-0.01,-0.01
1776535592.7807863,91.05,0.18,-0.25,0.08,-0.035,9.809,-0.01,0.0,-0.01
1776535592.7907486,91.05,0.18,-0.25,0.062,-0.029,9.809,0.0,-0.01,-0.01
1776535592.8015988,91.04,0.18,-0.25,0.065,-0.017,9.808,0.0,0.0,0.0
1776535592.8107495,91.04,0.18,-0.25,0.055,-0.023,9.809,0.0,0.0,0.0
1776535592.821611,91.04,0.18,-0.24,0.056,-0.019,9.809,-0.01,0.0,0.0
1776535592.8315988,91.04,0.18,-0.25,0.048,-0.036,9.808,-0.01,0.0,-0.01
1776535592.8416007,91.04,0.18,-0.25,0.046,-0.048,9.808,-0.01,-0.01,-0.01
1776535592.850764,91.05,0.18,-0.25,0.042,-0.054,9.809,-0.01,0.0,-0.01
1776535592.8607695,91.05,0.18,-0.25,0.048,-0.068,9.809,0.0,-0.01,-0.01
1776535592.870771,91.05,0.19,-0.25,0.051,-0.053,9.809,-0.01,-0.01,0.0
1776535592.88157,91.04,0.19,-0.25,0.068,-0.034,9.808,0.0,-0.01,0.0
1776535592.890784,91.04,0.2,-0.24,0.09,-0.028,9.808,-0.01,0.0,0.0
1776535592.9007466,91.04,0.2,-0.24,0.091,-0.02,9.808,0.0,-0.01,0.0
1776535592.9107285,91.04,0.2,-0.24,0.093,-0.013,9.808,-0.01,0.0,-0.01
1776535592.920743,91.04,0.2,-0.24,0.086,-0.016,9.808,0.0,0.0,0.0
1776535592.930774,91.04,0.2,-0.24,0.066,-0.02,9.808,-0.01,-0.01,0.0
1776535592.9407184,91.04,0.2,-0.24,0.06,-0.025,9.809,0.0,0.0,0.0
1776535592.9507294,91.04,0.2,-0.24,0.056,-0.014,9.809,-0.01,0.0,0.0
1776535592.9607465,91.03,0.2,-0.24,0.053,-0.034,9.808,-0.01,-0.01,0.0
1776535592.9707026,91.03,0.2,-0.24,0.053,-0.04,9.808,0.0,0.0,0.0
1776535592.9807632,91.04,0.2,-0.24,0.048,-0.041,9.809,-0.01,-0.01,-0.01
1776535592.9907274,91.04,0.2,-0.24,0.055,-0.054,9.809,0.0,0.0,-0.01
1776535593.00076,91.04,0.2,-0.24,0.05,-0.056,9.808,0.0,-0.01,-0.01
1776535593.0107477,91.05,0.2,-0.24,0.044,-0.044,9.809,0.0,-0.01,-0.01
1776535593.0207574,91.04,0.2,-0.23,0.051,-0.038,9.808,-0.01,-0.01,-0.01
1776535593.030708,91.04,0.21,-0.24,0.065,-0.037,9.809,0.0,-0.01,0.0
1776535593.040749,91.03,0.21,-0.24,0.072,-0.016,9.808,-0.01,0.0,0.0
1776535593.0507224,91.03,0.21,-0.23,0.073,0.006,9.808,-0.01,0.0,0.0
1776535593.0607524,91.03,0.21,-0.23,0.06,0.011,9.808,0.0,0.0,0.0
1776535593.0707214,91.04,0.2,-0.22,0.054,-0.002,9.809,-0.01,0.0,-0.01
1776535593.0807047,91.04,0.2,-0.22,0.04,-0.016,9.808,-0.01,0.0,-0.01
1776535593.0907516,91.04,0.2,-0.22,0.037,-0.036,9.808,0.0,0.0,-0.01
1776535593.1007307,91.04,0.21,-0.23,0.036,-0.048,9.808,0.0,-0.01,-0.01
1776535593.1107042,91.04,0.21,-0.23,0.051,-0.044,9.809,0.0,-0.01,0.0
1776535593.120704,91.04,0.21,-0.22,0.05,-0.04,9.809,-0.01,-0.01,0.0
1776535593.1306884,91.04,0.21,-0.22,0.06,-0.028,9.809,0.0,-0.01,0.0
1776535593.1407065,91.04,0.21,-0.22,0.065,-0.019,9.809,0.0,0.0,0.0
1776535593.1506894,91.04,0.22,-0.22,0.062,-0.024,9.808,-0.01,0.0,-0.01
1776535593.1607034,91.05,0.22,-0.22,0.056,-0.037,9.809,0.0,0.0,-0.01
1776535593.1707036,91.04,0.21,-0.22,0.053,-0.034,9.808,-0.01,0.0,-0.01
1776535593.1806934,91.04,0.21,-0.22,0.046,-0.044,9.809,-0.01,0.0,0.0
1776535593.190755,91.04,0.21,-0.22,0.044,-0.029,9.809,0.0,0.0,0.0
1776535593.2007082,91.04,0.21,-0.22,0.042,-0.014,9.809,0.0,-0.01,0.0
1776535593.210706,91.04,0.21,-0.21,0.044,-0.011,9.809,-0.01,-0.01,-0.01
1776535593.220675,91.04,0.21,-0.21,0.043,-0.02,9.808,0.0,0.0,-0.01
1776535593.2307093,91.05,0.22,-0.22,0.038,-0.034,9.809,0.0,0.0,-0.01
1776535593.2406762,91.04,0.22,-0.22,0.051,-0.036,9.808,-0.01,0.0,-0.01
1776535593.2507305,91.04,0.22,-0.22,0.053,-0.036,9.809,-0.01,-0.01,0.0
1776535593.260675,91.03,0.22,-0.22,0.057,-0.034,9.808,0.0,0.0,0.0
1776535593.2707093,91.03,0.22,-0.21,0.061,-0.019,9.808,0.0,0.0,0.0
1776535593.2807066,91.04,0.22,-0.21,0.062,-0.028,9.809,-0.01,-0.01,-0.01
1776535593.290692,91.04,0.22,-0.21,0.06,-0.042,9.808,-0.01,0.0,-0.01
1776535593.300675,91.05,0.22,-0.21,0.054,-0.047,9.809,0.0,0.0,-0.01
1776535593.3106773,91.04,0.22,-0.21,0.051,-0.041,9.808,-0.01,0.0,-0.01
1776535593.3206906,91.04,0.22,-0.21,0.06,-0.026,9.809,-0.01,0.0,0.0
1776535593.3306766,91.03,0.22,-0.21,0.054,-0.022,9.808,0.0,-0.01,0.0
1776535593.3406734,91.03,0.22,-0.21,0.06,0.0,9.809,-0.01,0.0,0.0
1776535593.350675,91.03,0.23,-0.21,0.056,0.012,9.809,-0.01,0.0,0.0
1776535593.3611338,91.03,0.22,-0.2,0.048,0.0,9.808,-0.01,0.0,-0.01
1776535593.3711615,91.04,0.22,-0.2,0.04,-0.02,9.809,-0.01,0.0,-0.01
1776535593.3811486,91.04,0.22,-0.21,0.031,-0.04,9.808,0.0,0.0,-0.01
1776535593.390681,91.04,0.22,-0.21,0.029,-0.057,9.808,-0.01,0.0,-0.01
1776535593.4006822,91.04,0.22,-0.21,0.03,-0.068,9.808,0.0,-0.01,-0.01
1776535593.410679,91.04,0.22,-0.21,0.032,-0.062,9.809,0.0,-0.01,0.0
1776535593.42069,91.04,0.22,-0.21,0.038,-0.043,9.809,-0.01,0.0,0.0
1776535593.4306784,91.04,0.22,-0.21,0.048,-0.036,9.809,0.0,-0.01,0.0
1776535593.4406862,91.04,0.22,-0.21,0.066,-0.026,9.809,0.0,0.0,0.0
1776535593.4506764,91.04,0.23,-0.21,0.063,-0.02,9.809,-0.01,0.0,-0.01
1776535593.4606774,91.04,0.23,-0.21,0.073,-0.022,9.809,0.0,0.0,0.0
1776535593.470645,91.03,0.23,-0.21,0.063,-0.019,9.808,-0.01,0.0,0.0
1776535593.4806762,91.03,0.23,-0.21,0.057,-0.014,9.808,0.0,-0.01,0.0
1776535593.4906788,91.03,0.22,-0.2,0.051,-0.02,9.808,-0.01,0.0,0.0
1776535593.5006473,91.04,0.22,-0.2,0.035,-0.037,9.809,0.0,0.0,-0.01
1776535593.5106776,91.04,0.22,-0.2,0.034,-0.043,9.809,-0.01,0.0,-0.01
1776535593.5211153,91.04,0.22,-0.2,0.037,-0.065,9.809,0.0,0.0,-0.01
1776535593.5310786,91.03,0.22,-0.21,0.053,-0.053,9.808,0.0,-0.01,0.0
1776535593.5411303,91.03,0.23,-0.21,0.056,-0.03,9.809,-0.01,0.0,0.0
1776535593.5510957,91.02,0.23,-0.2,0.059,-0.014,9.808,0.0,-0.01,0.0
1776535593.5610962,91.03,0.23,-0.2,0.063,-0.01,9.809,0.0,0.0,-0.01
1776535593.5711107,91.04,0.23,-0.2,0.057,-0.017,9.809,0.0,0.0,-0.01
1776535593.5811,91.04,0.23,-0.2,0.069,-0.036,9.809,-0.01,0.0,-0.01
1776535593.591084,91.04,0.23,-0.2,0.066,-0.054,9.809,-0.01,0.0,-0.01
1776535593.6010814,91.03,0.23,-0.21,0.06,-0.051,9.809,-0.01,-0.01,0.0
1776535593.611136,91.02,0.23,-0.2,0.056,-0.042,9.808,-0.01,0.0,0.0
1776535593.6210868,91.02,0.23,-0.2,0.038,-0.024,9.808,0.0,0.0,0.0
1776535593.631071,91.03,0.23,-0.2,0.034,-0.002,9.809,-0.01,0.0,-0.01
1776535593.641113,91.04,0.23,-0.19,0.04,-0.014,9.809,0.0,0.0,-0.01
1776535593.6510923,91.04,0.23,-0.19,0.037,-0.029,9.808,0.0,-0.01,-0.01
1776535593.6606274,91.04,0.23,-0.19,0.054,-0.029,9.809,-0.01,0.0,-0.01
1776535593.6705968,91.03,0.23,-0.19,0.059,-0.032,9.808,0.0,-0.01,0.0
1776535593.680632,91.03,0.23,-0.19,0.065,-0.023,9.809,0.0,-0.01,0.0
1776535593.6906126,91.03,0.24,-0.19,0.069,-0.017,9.809,-0.01,0.0,0.0
1776535593.699997,91.03,0.24,-0.19,0.062,-0.02,9.809,-0.01,0.0,0.0
1776535593.7106414,91.03,0.24,-0.19,0.054,-0.044,9.808,-0.01,0.0,-0.01
1776535593.7217786,91.04,0.23,-0.19,0.036,-0.068,9.809,0.0,0.0,-0.01
1776535593.7306414,91.04,0.23,-0.2,0.026,-0.074,9.809,-0.01,0.0,-0.01
1776535593.7406046,91.04,0.23,-0.2,0.022,-0.079,9.809,0.0,-0.01,-0.01
1776535593.7497635,91.03,0.23,-0.2,0.023,-0.063,9.808,0.0,-0.01,0.0
1776535593.7606194,91.03,0.23,-0.2,0.032,-0.036,9.808,-0.01,-0.01,0.0
1776535593.7706063,91.03,0.24,-0.2,0.034,-0.019,9.808,-0.01,-0.01,0.0
1776535593.7798176,91.03,0.23,-0.19,0.06,-0.012,9.808,0.0,-0.01,-0.01
1776535593.7897642,91.03,0.24,-0.2,0.075,-0.001,9.808,-0.01,0.0,0.0
1776535593.8006043,91.03,0.24,-0.19,0.083,0.0,9.809,-0.01,0.0,0.0
1776535593.8097706,91.03,0.24,-0.19,0.079,-0.001,9.809,0.0,0.0,0.0
1776535593.8206065,91.03,0.24,-0.19,0.065,-0.004,9.809,-0.01,0.0,0.0
1776535593.8297665,91.03,0.24,-0.19,0.049,-0.026,9.809,0.0,0.0,-0.01
1776535593.8406208,91.03,0.24,-0.19,0.032,-0.05,9.808,0.0,0.0,-0.01
1776535593.8497808,91.03,0.23,-0.19,0.035,-0.062,9.808,0.0,0.0,-0.01
1776535593.859784,91.03,0.23,-0.19,0.026,-0.069,9.808,-0.01,0.0,-0.01
1776535593.8697648,91.03,0.23,-0.19,0.026,-0.066,9.809,0.0,-0.01,0.0
1776535593.8797765,91.03,0.23,-0.19,0.029,-0.059,9.809,0.0,-0.01,0.0
1776535593.8897884,91.03,0.23,-0.19,0.032,-0.044,9.809,0.0,-0.01,0.0
1776535593.899763,91.03,0.23,-0.19,0.046,-0.032,9.809,-0.01,-0.01,-0.01
1776535593.90979,91.03,0.24,-0.2,0.057,-0.034,9.808,0.0,-0.01,-0.01
1776535593.9197726,91.03,0.24,-0.19,0.069,-0.034,9.808,-0.01,-0.01,-0.01
1776535593.9297488,91.04,0.24,-0.19,0.072,-0.032,9.809,-0.01,-0.01,-0.01
1776535593.9397926,91.03,0.24,-0.19,0.072,-0.042,9.808,-0.01,0.0,-0.01
1776535593.9497635,91.03,0.24,-0.19,0.069,-0.048,9.808,0.0,0.0,0.0
1776535593.9597762,91.03,0.24,-0.2,0.067,-0.036,9.809,0.0,0.0,0.0
1776535593.9697473,91.02,0.24,-0.2,0.053,-0.022,9.808,-0.01,0.0,0.0
1776535593.9797413,91.02,0.24,-0.19,0.035,-0.011,9.808,0.0,0.0,0.0
1776535593.9897475,91.02,0.24,-0.19,0.022,-0.004,9.808,-0.01,0.0,-0.01
1776535593.9997807,91.03,0.23,-0.18,0.022,-0.025,9.808,-0.01,-0.01,-0.01
1776535594.0097463,91.04,0.24,-0.19,0.026,-0.049,9.809,0.0,-0.01,-0.01
1776535594.0197268,91.04,0.24,-0.19,0.038,-0.068,9.809,0.0,-0.01,-0.01
1776535594.0297282,91.03,0.24,-0.19,0.049,-0.057,9.808,-0.01,-0.01,0.0
1776535594.039719,91.03,0.24,-0.19,0.061,-0.041,9.809,-0.01,-0.01,0.0
1776535594.0497296,91.02,0.24,-0.19,0.074,-0.036,9.808,0.0,0.0,0.0
1776535594.0597062,91.02,0.25,-0.19,0.077,-0.031,9.808,0.0,0.0,0.0
1776535594.0697045,91.02,0.25,-0.19,0.063,-0.019,9.808,0.0,0.0,-0.01
1776535594.07973,91.03,0.24,-0.19,0.053,-0.029,9.809,-0.01,0.0,-0.01
1776535594.0897217,91.03,0.24,-0.19,0.035,-0.042,9.808,0.0,0.0,-0.01
1776535594.0997043,91.03,0.24,-0.19,0.025,-0.046,9.808,0.0,0.0,-0.01
1776535594.109731,91.03,0.24,-0.19,0.017,-0.037,9.808,-0.01,-0.01,0.0
1776535594.1197302,91.03,0.24,-0.19,0.024,-0.028,9.809,0.0,-0.01,0.0
1776535594.1297336,91.02,0.24,-0.19,0.04,-0.019,9.808,0.0,0.0,0.0
1776535594.1397188,91.02,0.24,-0.18,0.047,-0.005,9.809,-0.01,0.0,0.0
1776535594.149721,91.02,0.24,-0.18,0.054,-0.004,9.809,-0.01,-0.01,0.0
1776535594.1596916,91.02,0.24,-0.18,0.053,-0.017,9.809,-0.01,0.0,-0.01
1776535594.1697369,91.03,0.24,-0.18,0.041,-0.034,9.809,0.0,0.0,-0.01
1776535594.1797295,91.03,0.24,-0.19,0.035,-0.053,9.809,-0.01,-0.01,-0.01
1776535594.189692,91.03,0.24,-0.19,0.032,-0.069,9.808,-0.01,-0.01,-0.01
1776535594.1997163,91.03,0.24,-0.19,0.044,-0.072,9.808,0.0,-0.01,-0.01
1776535594.209705,91.03,0.24,-0.19,0.05,-0.06,9.809,0.0,0.0,0.0
1776535594.2197013,91.02,0.24,-0.19,0.059,-0.03,9.808,-0.01,-0.01,0.0
1776535594.2297385,91.02,0.25,-0.19,0.063,-0.017,9.808,-0.01,0.0,0.0
1776535594.2397215,91.02,0.24,-0.18,0.055,-0.014,9.808,0.0,-0.01,0.0
1776535594.249681,91.03,0.24,-0.18,0.044,0.0,9.809,0.0,0.0,-0.01
1776535594.259728,91.03,0.24,-0.18,0.04,-0.011,9.809,-0.01,0.0,-0.01
1776535594.2698932,91.03,0.24,-0.18,0.041,-0.024,9.809,0.0,-0.01,-0.01
1776535594.279701,91.03,0.24,-0.18,0.054,-0.046,9.809,0.0,-0.01,-0.01
1776535594.2897065,91.02,0.25,-0.19,0.067,-0.047,9.808,-0.01,-0.01,0.0
1776535594.2997034,91.02,0.25,-0.19,0.069,-0.043,9.809,-0.01,-0.01,0.0
1776535594.309677,91.02,0.25,-0.19,0.071,-0.048,9.809,0.0,0.0,0.0
1776535594.3197048,91.02,0.25,-0.19,0.062,-0.047,9.808,0.0,0.0,0.0
1776535594.3296893,91.02,0.25,-0.19,0.051,-0.034,9.808,-0.01,0.0,-0.01
1776535594.3396735,91.03,0.25,-0.19,0.048,-0.059,9.809,0.0,0.0,-0.01
1776535594.3497093,91.02,0.24,-0.19,0.044,-0.053,9.809,0.0,0.0,0.0
1776535594.3596869,91.01,0.24,-0.19,0.048,-0.025,9.808,-0.01,0.0,0.0
1776535594.3696885,91.01,0.25,-0.19,0.042,-0.019,9.809,-0.01,-0.01,0.0
1776535594.3797183,91.01,0.24,-0.18,0.044,-0.006,9.809,0.0,-0.01,0.0
1776535594.3896937,91.01,0.24,-0.18,0.046,-0.01,9.808,0.0,0.0,-0.01
1776535594.3996844,91.02,0.24,-0.18,0.047,-0.03,9.808,0.0,-0.01,-0.01
1776535594.4096928,91.03,0.25,-0.19,0.044,-0.053,9.809,0.0,-0.01,-0.01
1776535594.4197023,91.02,0.25,-0.19,0.047,-0.055,9.808,0.0,-0.01,-0.01
1776535594.4296906,91.02,0.25,-0.19,0.057,-0.051,9.808,-0.01,0.0,0.0
1776535594.4396875,91.02,0.25,-0.18,0.053,-0.043,9.809,0.0,-0.01,0.0
1776535594.4496572,91.02,0.25,-0.18,0.066,-0.024,9.809,0.0,0.0,0.0
1776535594.4596875,91.02,0.25,-0.18,0.056,-0.016,9.809,-0.01,0.0,0.0
1776535594.4696903,91.02,0.25,-0.18,0.062,-0.02,9.808,0.0,-0.01,-0.01
1776535594.4796882,91.02,0.25,-0.18,0.054,-0.032,9.808,-0.01,0.0,-0.01
1776535594.4896774,91.02,0.25,-0.18,0.048,-0.038,9.808,-0.01,0.0,-0.01
1776535594.499684,91.02,0.25,-0.18,0.049,-0.05,9.808,0.0,0.0,0.0
1776535594.5096917,91.02,0.25,-0.18,0.04,-0.046,9.809,0.0,-0.01,0.0
1776535594.519654,91.02,0.25,-0.18,0.038,-0.038,9.809,-0.01,0.0,0.0
1776535594.5296907,91.02,0.25,-0.18,0.037,-0.03,9.809,0.0,0.0,0.0
1776535594.5396543,91.02,0.25,-0.18,0.029,-0.034,9.808,0.0,-0.01,-0.01
1776535594.5496428,91.02,0.25,-0.18,0.043,-0.04,9.808,0.0,-0.01,-0.01
1776535594.5597003,91.02,0.25,-0.18,0.049,-0.03,9.809,0.0,0.0,0.0
1776535594.569647,91.02,0.25,-0.18,0.053,-0.036,9.809,0.0,-0.01,0.0
1776535594.579691,91.01,0.25,-0.18,0.062,-0.034,9.808,0.0,0.0,0.0
1776535594.5896807,91.01,0.25,-0.18,0.061,-0.026,9.808,-0.01,-0.01,0.0
1776535594.5997047,91.02,0.26,-0.18,0.061,-0.036,9.809,-0.01,-0.01,-0.01
1776535594.6096613,91.02,0.26,-0.18,0.047,-0.044,9.808,-0.01,0.0,-0.01
1776535594.6196744,91.02,0.25,-0.18,0.042,-0.054,9.808,-0.01,-0.01,-0.01
1776535594.6296601,91.02,0.26,-0.19,0.049,-0.073,9.808,0.0,-0.01,-0.01
1776535594.6396408,91.02,0.26,-0.19,0.054,-0.063,9.809,0.0,-0.01,0.0
1776535594.6496596,91.01,0.26,-0.19,0.055,-0.057,9.808,0.0,0.0,0.0
1776535594.6596231,91.01,0.26,-0.19,0.054,-0.037,9.809,0.0,0.0,0.0
1776535594.6696594,91.01,0.26,-0.19,0.055,-0.028,9.809,-0.01,0.0,0.0
1776535594.679608,91.01,0.26,-0.19,0.062,-0.017,9.809,0.0,0.0,0.0
1776535594.6896107,91.01,0.26,-0.18,0.053,-0.012,9.809,-0.01,0.0,-0.01
1776535594.699641,91.01,0.26,-0.18,0.05,-0.025,9.809,0.0,-0.01,-0.01
1776535594.7096262,91.01,0.26,-0.18,0.047,-0.035,9.809,0.0,0.0,-0.01
1776535594.7196088,91.01,0.25,-0.18,0.026,-0.035,9.809,-0.01,-0.01,0.0
1776535594.7288733,91.01,0.25,-0.18,0.03,-0.038,9.808,-0.01,0.0,-0.01
1776535594.7388031,91.01,0.25,-0.18,0.028,-0.046,9.808,0.0,-0.01,-0.01
1776535594.7496746,91.01,0.25,-0.18,0.036,-0.053,9.808,0.0,-0.01,-0.01
1776535594.7596364,91.01,0.26,-0.19,0.049,-0.049,9.808,-0.01,0.0,-0.01
1776535594.7692857,91.01,0.26,-0.19,0.054,-0.05,9.808,0.0,-0.01,0.0
1776535594.78012,91.01,0.26,-0.19,0.054,-0.035,9.809,0.0,-0.01,0.0
1776535594.7896173,91.01,0.26,-0.18,0.055,-0.025,9.809,-0.01,0.0,0.0
1776535594.7987397,91.01,0.26,-0.18,0.059,-0.03,9.808,0.0,0.0,-0.01
1776535594.8096488,91.01,0.26,-0.18,0.062,-0.034,9.808,0.0,0.0,-0.01
1776535594.8188603,91.01,0.26,-0.18,0.06,-0.034,9.808,-0.01,0.0,-0.01
1776535594.8287697,91.01,0.26,-0.18,0.06,-0.038,9.809,0.0,0.0,0.0
1776535594.838752,91.01,0.26,-0.18,0.038,-0.037,9.809,0.0,0.0,0.0
1776535594.848748,91.01,0.25,-0.18,0.046,-0.034,9.809,-0.01,0.0,0.0
1776535594.8595996,91.01,0.26,-0.18,0.042,-0.04,9.809,0.0,0.0,-0.01
1776535594.8687608,91.01,0.26,-0.19,0.03,-0.041,9.809,0.0,-0.01,-0.01
1776535594.8787637,91.01,0.26,-0.19,0.034,-0.044,9.808,-0.01,0.0,-0.01
1776535594.8887494,91.01,0.25,-0.18,0.043,-0.04,9.809,-0.01,0.0,-0.01
1776535594.8987508,91.01,0.26,-0.19,0.037,-0.044,9.809,0.0,-0.01,0.0
1776535594.9087472,91.01,0.26,-0.19,0.05,-0.037,9.809,0.0,-0.01,0.0
1776535594.9187505,91.01,0.26,-0.18,0.05,-0.029,9.809,-0.01,0.0,0.0
1776535594.928731,91.01,0.26,-0.18,0.048,-0.037,9.809,0.0,-0.01,-0.01
1776535594.938733,91.01,0.26,-0.19,0.048,-0.035,9.809,0.0,0.0,-0.01
1776535594.9487472,91.01,0.26,-0.19,0.04,-0.04,9.808,-0.01,0.0,-0.01
1776535594.9587462,91.01,0.26,-0.19,0.044,-0.053,9.809,0.0,0.0,-0.01
1776535594.9687324,91.01,0.26,-0.19,0.049,-0.044,9.809,0.0,0.0,0.0
1776535594.9787138,91.0,0.26,-0.19,0.059,-0.038,9.808,-0.01,-0.01,0.0
1776535594.988734,91.0,0.26,-0.18,0.057,-0.025,9.808,0.0,0.0,0.0
1776535594.998741,91.0,0.26,-0.18,0.055,-0.034,9.808,0.0,0.0,-0.01
1776535595.0087345,91.01,0.26,-0.18,0.048,-0.026,9.809,0.0,0.0,-0.01
1776535595.0187392,91.01,0.26,-0.18,0.043,-0.04,9.809,-0.01,0.0,-0.01
1776535595.0287113,91.01,0.25,-0.18,0.046,-0.047,9.809,0.0,0.0,-0.01
1776535595.038737,91.0,0.26,-0.18,0.048,-0.051,9.808,-0.01,0.0,0.0
1776535595.0487096,91.0,0.26,-0.19,0.055,-0.042,9.808,0.0,-0.01,0.0
1776535595.0587351,91.0,0.26,-0.18,0.056,-0.037,9.809,0.0,0.0,0.0
1776535595.0687366,91.0,0.26,-0.18,0.053,-0.037,9.808,-0.01,-0.01,0.0
1776535595.0787222,91.01,0.26,-0.18,0.062,-0.044,9.809,0.0,0.0,-0.01
1776535595.088696,91.01,0.26,-0.18,0.054,-0.043,9.809,0.0,0.0,-0.01
1776535595.0987344,91.01,0.26,-0.18,0.044,-0.036,9.809,-0.01,-0.01,-0.01
1776535595.108706,91.0,0.26,-0.18,0.049,-0.046,9.808,0.0,0.0,0.0
1776535595.1187088,91.0,0.26,-0.18,0.046,-0.042,9.809,0.0,-0.01,0.0
1776535595.1287327,91.0,0.26,-0.18,0.051,-0.025,9.809,-0.01,0.0,0.0
1776535595.1387074,91.0,0.26,-0.18,0.047,-0.026,9.809,-0.01,0.0,0.0
1776535595.1486762,91.0,0.26,-0.18,0.049,-0.034,9.809,0.0,-0.01,0.0
1776535595.158721,91.0,0.26,-0.18,0.05,-0.044,9.809,-0.01,0.0,-0.01
1776535595.168706,91.0,0.26,-0.18,0.046,-0.041,9.808,0.0,0.0,-0.01
1776535595.1787057,91.0,0.26,-0.18,0.041,-0.054,9.809,0.0,-0.01,-0.01
1776535595.1887252,91.0,0.26,-0.19,0.038,-0.049,9.809,0.0,-0.01,0.0
1776535595.1987064,91.0,0.26,-0.19,0.046,-0.043,9.809,0.0,0.0,0.0
1776535595.2087235,91.0,0.26,-0.18,0.046,-0.036,9.809,-0.01,0.0,0.0
1776535595.2187393,91.0,0.26,-0.18,0.05,-0.03,9.809,0.0,-0.01,0.0
1776535595.2286952,91.0,0.26,-0.18,0.049,-0.025,9.809,-0.01,0.0,-0.01
1776535595.2386768,91.0,0.26,-0.18,0.044,-0.032,9.809,-0.01,0.0,-0.01
1776535595.2487376,91.0,0.26,-0.18,0.042,-0.026,9.808,0.0,0.0,-0.01
1776535595.2587092,91.0,0.26,-0.18,0.043,-0.041,9.808,-0.01,0.0,-0.01
1776535595.2686653,91.0,0.26,-0.19,0.049,-0.041,9.809,-0.01,0.0,0.0
1776535595.2787192,90.99,0.26,-0.19,0.055,-0.037,9.808,-0.01,0.0,0.0
1776535595.2886775,90.99,0.26,-0.18,0.065,-0.031,9.808,0.0,0.0,0.0
1776535595.2987225,90.99,0.26,-0.18,0.061,-0.023,9.808,0.0,0.0,0.0
1776535595.3086884,91.0,0.26,-0.18,0.049,-0.017,9.809,-0.01,0.0,-0.01
1776535595.318706,91.0,0.26,-0.18,0.046,-0.029,9.808,0.0,0.0,-0.01
1776535595.328707,91.01,0.26,-0.18,0.031,-0.038,9.809,0.0,0.0,-0.01
1776535595.3387241,91.01,0.26,-0.18,0.037,-0.043,9.809,-0.01,-0.01,-0.01
1776535595.3486943,91.0,0.26,-0.18,0.049,-0.053,9.808,0.0,0.0,0.0
1776535595.3586926,91.0,0.26,-0.18,0.054,-0.04,9.809,0.0,-0.01,0.0
1776535595.3687222,91.0,0.27,-0.18,0.065,-0.026,9.809,-0.01,-0.01,0.0
1776535595.3786948,91.0,0.27,-0.18,0.068,-0.024,9.809,0.0,-0.01,0.0
1776535595.3887293,91.0,0.27,-0.18,0.067,-0.023,9.809,-0.01,0.0,-0.01
1776535595.3991516,91.0,0.27,-0.18,0.061,-0.034,9.808,-0.01,0.0,-0.01
1776535595.4091363,91.01,0.27,-0.18,0.056,-0.044,9.809,-0.01,0.0,-0.01
1776535595.4191654,91.0,0.26,-0.18,0.057,-0.056,9.808,-0.01,0.0,-0.01
1776535595.4291563,91.0,0.26,-0.18,0.05,-0.05,9.809,0.0,0.0,0.0
1776535595.4391496,91.0,0.26,-0.18,0.042,-0.04,9.809,-0.01,0.0,0.0
1776535595.449151,91.0,0.26,-0.18,0.042,-0.03,9.809,0.0,0.0,0.0
1776535595.459102,91.0,0.26,-0.18,0.034,-0.029,9.808,0.0,0.0,-0.01
1776535595.4691434,91.0,0.26,-0.18,0.031,-0.04,9.808,0.0,0.0,-0.01
1776535595.4791336,91.0,0.26,-0.18,0.041,-0.046,9.808,0.0,0.0,-0.01
1776535595.4891233,91.0,0.26,-0.18,0.044,-0.048,9.809,-0.01,-0.01,0.0
1776535595.4991376,90.99,0.26,-0.18,0.053,-0.036,9.808,-0.01,0.0,0.0
1776535595.5091248,90.99,0.26,-0.18,0.059,-0.049,9.809,0.0,0.0,0.0
1776535595.5190923,90.99,0.26,-0.18,0.055,-0.053,9.808,0.0,-0.01,0.0
1776535595.5291486,90.99,0.26,-0.18,0.054,-0.049,9.808,0.0,0.0,-0.01
1776535595.53913,91.0,0.26,-0.18,0.046,-0.054,9.809,-0.01,-0.01,-0.01
1776535595.549108,91.0,0.26,-0.18,0.047,-0.06,9.808,0.0,0.0,-0.01
1776535595.559094,91.0,0.26,-0.19,0.04,-0.057,9.809,0.0,-0.01,-0.01
1776535595.5691426,90.99,0.26,-0.19,0.044,-0.04,9.808,0.0,0.0,0.0
1776535595.5791106,90.99,0.26,-0.18,0.034,-0.026,9.808,-0.01,0.0,0.0
1776535595.5889163,90.99,0.26,-0.18,0.044,-0.01,9.809,0.0,-0.01,0.0
1776535595.5991375,90.99,0.26,-0.18,0.046,0.0,9.808,-0.01,0.0,0.0
1776535595.6091037,91.0,0.26,-0.18,0.057,-0.019,9.809,0.0,-0.01,-0.01
1776535595.6190846,91.0,0.26,-0.18,0.054,-0.04,9.808,0.0,0.0,-0.01
1776535595.6290836,91.0,0.26,-0.18,0.057,-0.053,9.809,-0.01,0.0,-0.01
1776535595.639104,91.0,0.26,-0.18,0.059,-0.056,9.809,0.0,-0.01,0.0
1776535595.6489844,90.99,0.26,-0.18,0.055,-0.057,9.808,0.0,0.0,0.0
1776535595.6592171,90.99,0.26,-0.18,0.044,-0.044,9.809,0.0,-0.01,0.0
1776535595.6690876,90.99,0.26,-0.18,0.037,-0.028,9.809,-0.01,0.0,0.0
1776535595.6786335,90.99,0.26,-0.18,0.024,-0.024,9.808,0.0,0.0,-0.01
1776535595.687857,90.99,0.26,-0.18,0.04,-0.037,9.808,0.0,-0.01,-0.01
1776535595.6978555,90.99,0.26,-0.18,0.029,-0.035,9.808,-0.01,-0.01,-0.01
1776535595.70867,90.99,0.26,-0.18,0.046,-0.028,9.808,-0.01,-0.01,0.0
1776535595.7186341,90.99,0.26,-0.18,0.044,-0.031,9.809,0.0,0.0,0.0
1776535595.728642,90.99,0.26,-0.18,0.044,-0.036,9.808,-0.01,-0.01,0.0
1776535595.7386332,90.99,0.26,-0.18,0.049,-0.04,9.808,-0.01,0.0,-0.01
1776535595.7478786,91.0,0.26,-0.18,0.053,-0.049,9.809,0.0,-0.01,-0.01
1776535595.758661,91.0,0.26,-0.18,0.05,-0.063,9.809,0.0,0.0,-0.01
1776535595.768617,90.99,0.26,-0.18,0.051,-0.063,9.808,-0.01,0.0,0.0
1776535595.7786539,90.99,0.26,-0.18,0.048,-0.048,9.808,0.0,0.0,0.0
1776535595.7890763,90.99,0.26,-0.18,0.054,-0.038,9.808,0.0,-0.01,0.0
1776535595.82178,90.99,0.26,-0.18,0.049,-0.025,9.809,0.0,0.0,0.0
1776535595.832361,90.99,0.26,-0.18,0.055,-0.02,9.809,-0.01,0.0,0.0
1776535595.8386064,90.99,0.26,-0.18,0.055,-0.043,9.809,-0.01,0.0,0.0
1776535595.8453755,90.98,0.25,-0.18,0.051,-0.036,9.808,0.0,-0.01,0.0
1776535595.8515646,90.98,0.26,-0.18,0.042,-0.032,9.808,-0.01,0.0,0.0
1776535595.8591478,90.98,0.25,-0.18,0.032,-0.031,9.808,-0.01,-0.01,0.0
1776535595.862242,90.99,0.25,-0.18,0.034,-0.038,9.809,-0.01,0.0,-0.01
1776535595.8693802,90.99,0.25,-0.18,0.029,-0.053,9.808,0.0,-0.01,-0.01
1776535595.8781917,90.99,0.26,-0.19,0.042,-0.055,9.808,0.0,-0.01,-0.01
1776535595.8879213,90.99,0.26,-0.18,0.04,-0.056,9.808,0.0,-0.01,-0.01
1776535595.8978503,90.99,0.26,-0.18,0.046,-0.047,9.808,0.0,-0.01,0.0
1776535595.908999,90.99,0.26,-0.18,0.055,-0.04,9.808,-0.01,0.0,0.0
1776535595.920449,90.99,0.26,-0.18,0.065,-0.037,9.809,0.0,0.0,0.0
1776535595.9279814,90.99,0.26,-0.18,0.055,-0.023,9.809,-0.01,0.0,0.0
1776535595.9399421,90.99,0.26,-0.18,0.057,-0.029,9.808,-0.01,0.0,0.0
1776535595.947803,90.99,0.26,-0.18,0.057,-0.04,9.808,0.0,0.0,-0.01
1776535595.9587436,90.99,0.26,-0.19,0.046,-0.049,9.808,-0.01,-0.01,-0.01
1776535595.9690692,90.99,0.26,-0.19,0.049,-0.044,9.808,-0.01,0.0,0.0
1776535595.9785585,90.99,0.26,-0.19,0.046,-0.046,9.809,-0.01,-0.01,0.0
1776535595.9877732,90.99,0.26,-0.19,0.043,-0.046,9.809,0.0,0.0,0.0
1776535595.9986722,90.99,0.26,-0.19,0.03,-0.03,9.809,-0.01,0.0,0.0
1776535596.0076897,90.99,0.25,-0.18,0.025,-0.019,9.809,-0.01,-0.01,-0.01
1776535596.018277,90.99,0.26,-0.18,0.03,-0.024,9.808,0.0,0.0,-0.01
1776535596.0277064,90.99,0.26,-0.18,0.036,-0.037,9.808,0.0,-0.01,-0.01
1776535596.0384367,90.99,0.26,-0.18,0.046,-0.034,9.808,-0.01,-0.01,-0.01
1776535596.0485888,90.99,0.26,-0.18,0.053,-0.041,9.809,-0.01,-0.01,0.0
1776535596.0582426,90.98,0.26,-0.18,0.059,-0.042,9.808,-0.01,0.0,0.0
1776535596.0677097,90.98,0.26,-0.18,0.067,-0.042,9.808,-0.01,0.0,0.0
1776535596.0782876,90.98,0.26,-0.19,0.056,-0.041,9.808,-0.01,0.0,0.0
1776535596.087892,90.98,0.26,-0.19,0.053,-0.037,9.808,-0.01,0.0,0.0
1776535596.0977037,90.98,0.26,-0.19,0.038,-0.048,9.808,-0.01,0.0,-0.01
1776535596.1081445,90.99,0.25,-0.19,0.028,-0.053,9.809,0.0,0.0,-0.01
1776535596.118131,90.99,0.25,-0.19,0.016,-0.054,9.809,-0.01,-0.01,-0.01
1776535596.128597,90.99,0.25,-0.19,0.019,-0.042,9.809,0.0,-0.01,-0.01
1776535596.137716,90.99,0.25,-0.19,0.029,-0.037,9.809,0.0,-0.01,0.0
1776535596.1486099,90.99,0.25,-0.18,0.036,-0.032,9.809,0.0,-0.01,0.0
1776535596.1577206,90.99,0.25,-0.18,0.051,-0.013,9.809,0.0,-0.01,0.0
1776535596.1676934,90.99,0.26,-0.18,0.059,-0.014,9.809,0.0,0.0,-0.01
1776535596.1777291,90.99,0.26,-0.18,0.074,-0.029,9.809,0.0,-0.01,-0.01
1776535596.1877458,90.98,0.26,-0.18,0.077,-0.034,9.808,-0.01,0.0,0.0
1776535596.1980102,90.98,0.26,-0.18,0.074,-0.031,9.809,-0.01,0.0,0.0
1776535596.2076812,90.97,0.26,-0.19,0.063,-0.036,9.808,0.0,0.0,0.0
1776535596.2177575,90.97,0.25,-0.18,0.044,-0.046,9.808,0.0,0.0,0.0
1776535596.2277355,90.98,0.25,-0.18,0.036,-0.049,9.809,-0.01,0.0,-0.01
1776535596.2378173,90.99,0.25,-0.18,0.022,-0.059,9.809,0.0,0.0,-0.01
1776535596.24798,90.99,0.25,-0.19,0.017,-0.068,9.809,0.0,-0.01,-0.01
1776535596.2577262,90.99,0.25,-0.19,0.029,-0.068,9.809,0.0,-0.01,-0.01
1776535596.2677083,90.99,0.26,-0.19,0.034,-0.047,9.809,0.0,-0.01,0.0
1776535596.277878,90.98,0.25,-0.18,0.055,-0.041,9.808,0.0,-0.01,0.0
1776535596.287926,90.98,0.26,-0.19,0.071,-0.02,9.809,0.0,-0.01,0.0
1776535596.2977352,90.98,0.26,-0.18,0.08,-0.011,9.809,-0.01,0.0,0.0
1776535596.3079123,90.98,0.26,-0.18,0.075,-0.011,9.809,-0.01,-0.01,0.0
1776535596.317967,90.98,0.26,-0.18,0.079,-0.024,9.808,-0.01,0.0,-0.01
1776535596.3291175,90.98,0.26,-0.18,0.057,-0.037,9.808,0.0,0.0,-0.01
1776535596.3482125,90.99,0.26,-0.19,0.05,-0.056,9.809,-0.01,0.0,-0.01
1776535596.351691,90.99,0.26,-0.19,0.03,-0.067,9.809,0.0,0.0,-0.01
1776535596.3590095,90.98,0.25,-0.19,0.028,-0.066,9.808,0.0,-0.01,0.0
1776535596.370414,90.98,0.26,-0.19,0.02,-0.049,9.808,-0.01,0.0,0.0
1776535596.3793175,90.98,0.26,-0.19,0.038,-0.092,9.809,0.0,-0.01,0.0
1776535596.3894985,90.98,0.27,-0.22,0.03,-0.139,9.809,-0.01,-0.01,0.0
1776535596.397699,90.98,0.26,-0.2,0.042,0.053,9.809,-0.02,-0.01,0.0
1776535596.407701,90.98,0.28,-0.1,0.062,0.135,9.808,0.01,0.0,-0.01
1776535596.417709,90.98,0.29,-0.04,0.024,0.141,9.808,0.04,-0.02,-0.01
1776535596.427694,90.98,0.29,-0.01,0.066,0.225,9.808,0.02,-0.01,0.0
1776535596.4376857,90.98,0.31,0.01,0.065,0.205,9.808,0.0,-0.01,-0.01
1776535596.4476945,90.98,0.3,0.0,0.046,0.098,9.808,0.0,-0.01,0.0
1776535596.4576988,90.99,0.28,-0.05,0.061,-0.072,9.808,-0.02,0.0,-0.01
1776535596.4676933,91.0,0.28,-0.14,0.04,-0.247,9.808,-0.02,0.0,-0.01
1776535596.477694,91.02,0.26,-0.23,0.042,-0.323,9.808,-0.04,0.0,-0.02
1776535596.487693,91.03,0.25,-0.28,0.049,-0.461,9.808,-0.03,0.01,-0.02
1776535596.4976926,91.03,0.23,-0.33,-0.019,-0.59,9.808,-0.02,-0.01,-0.01
1776535596.5076902,91.02,0.21,-0.38,0.01,-0.577,9.809,-0.02,0.02,0.0
1776535596.517952,91.01,0.22,-0.38,-0.041,-0.411,9.808,-0.01,0.0,0.0
1776535596.5276754,91.0,0.2,-0.33,-0.013,-0.284,9.809,0.01,-0.01,0.0
1776535596.5376701,90.98,0.22,-0.29,-0.013,-0.108,9.809,0.02,0.0,0.01
1776535596.5476599,90.96,0.22,-0.26,-0.051,0.11,9.808,0.01,-0.02,0.01
1776535596.5576499,90.95,0.22,-0.21,0.056,0.413,9.808,0.0,-0.01,0.01
1776535596.5676916,90.95,0.24,-0.14,0.117,0.552,9.809,0.0,0.0,0.0
1776535596.5776646,90.95,0.25,-0.11,0.129,0.583,9.808,0.0,-0.02,0.0
1776535596.587663,90.96,0.26,-0.1,0.201,0.52,9.809,-0.01,0.0,-0.01
1776535596.5976644,90.96,0.28,-0.11,0.158,0.386,9.808,-0.02,-0.01,-0.01
1776535596.6076658,90.97,0.27,-0.12,0.134,0.157,9.809,-0.01,-0.01,-0.01
1776535596.6176622,90.98,0.26,-0.18,0.126,-0.05,9.809,-0.01,0.0,-0.01
1776535596.6276624,90.99,0.24,-0.23,0.06,-0.138,9.809,-0.02,0.0,-0.01
1776535596.637664,91.01,0.22,-0.25,0.016,-0.25,9.809,-0.02,0.01,-0.02
1776535596.6476593,91.03,0.22,-0.28,-0.048,-0.368,9.808,-0.01,0.0,-0.02
1776535596.657664,91.04,0.2,-0.31,-0.066,-0.436,9.809,-0.01,-0.01,-0.02
1776535596.6676626,91.05,0.2,-0.34,-0.073,-0.419,9.809,-0.01,0.0,-0.02
1776535596.6776462,91.05,0.2,-0.33,-0.091,-0.387,9.809,0.0,-0.01,-0.01
1776535596.687642,91.04,0.21,-0.33,-0.072,-0.323,9.809,0.01,-0.01,0.0
1776535596.697647,91.01,0.22,-0.31,-0.011,-0.174,9.809,0.0,-0.01,0.01
1776535596.7076416,90.97,0.24,-0.28,0.034,0.011,9.808,0.0,-0.01,0.02
1776535596.7176404,90.95,0.25,-0.26,0.097,0.174,9.809,0.0,-0.01,0.02
1776535596.7276108,90.93,0.26,-0.21,0.162,0.315,9.808,0.0,-0.01,0.01
1776535596.7376468,90.94,0.27,-0.19,0.177,0.366,9.809,0.0,-0.01,0.0
1776535596.7477996,90.95,0.27,-0.18,0.11,0.341,9.808,-0.01,0.0,-0.01
1776535596.7576303,90.98,0.24,-0.21,0.087,0.24,9.809,-0.01,0.01,-0.02
1776535596.7676277,91.02,0.22,-0.26,0.025,0.101,9.809,-0.02,0.01,-0.02
1776535596.7768626,91.05,0.2,-0.3,0.01,0.019,9.809,-0.03,0.0,-0.02
1776535596.7876341,91.08,0.19,-0.35,0.024,-0.113,9.809,-0.02,0.01,-0.02
1776535596.7968595,91.1,0.18,-0.4,0.03,-0.242,9.809,-0.02,0.0,-0.02
1776535596.806832,91.09,0.18,-0.44,0.061,-0.255,9.809,-0.02,0.0,-0.01
1776535596.8168476,91.06,0.19,-0.46,0.091,-0.241,9.809,-0.02,0.0,0.01
1776535596.8268144,91.02,0.2,-0.47,0.043,-0.228,9.808,-0.01,-0.01,0.02
1776535596.836794,90.99,0.2,-0.51,0.038,-0.166,9.808,-0.01,-0.01,0.02
1776535596.8468719,90.98,0.21,-0.48,0.067,-0.042,9.809,-0.02,-0.01,0.02
1776535596.8567784,90.95,0.22,-0.43,0.067,0.066,9.808,0.0,-0.01,0.01
1776535596.8667722,90.93,0.22,-0.39,0.042,0.188,9.808,0.02,-0.01,0.02
1776535596.8768117,90.93,0.2,-0.33,0.067,0.325,9.809,0.01,0.0,0.01
1776535596.8868165,90.95,0.2,-0.3,0.024,0.423,9.808,0.0,0.0,-0.01
1776535596.8967767,90.98,0.18,-0.31,0.0,0.359,9.808,-0.01,0.0,-0.02
1776535596.9068077,91.02,0.16,-0.38,-0.043,0.314,9.808,-0.03,0.01,-0.02
1776535596.9169931,91.05,0.15,-0.47,-0.066,0.334,9.808,-0.05,0.0,-0.02
1776535596.9267683,91.1,0.13,-0.52,-0.044,0.333,9.809,-0.05,0.0,-0.02
1776535596.9369838,91.14,0.12,-0.59,0.004,0.222,9.809,-0.05,0.0,-0.03
1776535596.9467716,91.19,0.11,-0.66,0.019,0.158,9.809,-0.05,0.0,-0.03
1776535596.9567704,91.23,0.11,-0.67,0.122,0.18,9.81,-0.04,0.01,-0.02
1776535596.9667692,91.26,0.16,-0.61,0.192,0.012,9.81,-0.01,0.0,-0.02
1776535596.9769835,91.26,0.19,-0.56,0.154,-0.156,9.809,0.03,-0.02,-0.02
1776535596.986795,91.24,0.21,-0.5,0.133,-0.259,9.809,0.04,-0.02,-0.01
1776535596.9967904,91.19,0.23,-0.46,0.128,-0.301,9.809,0.04,-0.02,0.02
1776535597.0067737,91.13,0.24,-0.41,0.114,-0.237,9.809,0.03,-0.01,0.02
1776535597.0168028,91.07,0.25,-0.35,0.096,-0.193,9.809,0.03,-0.01,0.03
1776535597.0267951,91.03,0.26,-0.32,0.043,-0.06,9.809,0.02,-0.01,0.03
1776535597.036794,91.01,0.24,-0.28,0.031,0.067,9.808,0.01,-0.01,0.02
1776535597.0467598,91.03,0.25,-0.27,-0.008,0.188,9.809,0.0,0.0,0.0
1776535597.0567598,91.05,0.23,-0.26,-0.053,0.186,9.809,-0.01,-0.02,-0.02
1776535597.0667424,91.07,0.23,-0.28,-0.008,0.116,9.808,-0.01,0.0,-0.02
1776535597.0767262,91.09,0.23,-0.33,-0.057,0.066,9.809,-0.02,0.0,-0.02
1776535597.086738,91.09,0.21,-0.39,-0.048,0.06,9.808,-0.03,-0.01,-0.01
1776535597.0967412,91.1,0.2,-0.43,-0.017,0.108,9.809,-0.04,0.01,-0.01
1776535597.1067276,91.13,0.19,-0.45,0.01,0.201,9.809,-0.03,0.0,-0.01
1776535597.1167083,91.19,0.19,-0.46,0.065,0.164,9.809,-0.02,0.0,-0.02
1776535597.1267133,91.24,0.21,-0.45,0.038,0.198,9.809,-0.02,-0.01,-0.04
1776535597.1367786,91.27,0.22,-0.42,0.128,0.072,9.809,0.0,-0.01,-0.03
1776535597.1467707,91.26,0.26,-0.41,0.126,-0.046,9.809,0.02,-0.01,-0.02
1776535597.1567986,91.2,0.26,-0.39,0.162,0.011,9.809,0.01,-0.02,0.02
1776535597.1667497,91.13,0.28,-0.33,0.226,0.095,9.809,0.01,0.0,0.03
1776535597.1767454,91.07,0.3,-0.27,0.198,0.141,9.809,0.02,-0.01,0.03
1776535597.1867387,91.03,0.3,-0.23,0.171,0.182,9.808,0.02,-0.01,0.02
1776535597.1967454,91.04,0.29,-0.21,0.139,0.195,9.808,0.01,0.0,0.01
1776535597.2067,91.06,0.28,-0.21,0.087,0.132,9.809,0.0,0.0,-0.01
1776535597.2166958,91.08,0.26,-0.23,0.004,0.025,9.809,-0.01,0.0,-0.02
1776535597.226742,91.09,0.23,-0.24,-0.036,-0.022,9.809,-0.01,0.0,-0.02
1776535597.236743,91.09,0.22,-0.25,-0.078,-0.079,9.809,-0.01,0.0,-0.01
1776535597.2467415,91.09,0.21,-0.28,-0.126,-0.129,9.809,-0.01,0.0,-0.01
1776535597.2567346,91.08,0.19,-0.3,-0.103,-0.098,9.808,-0.02,0.0,0.0
1776535597.2667096,91.09,0.19,-0.32,-0.079,-0.065,9.808,-0.02,0.0,-0.01
1776535597.2767122,91.12,0.2,-0.33,-0.067,0.007,9.809,-0.02,-0.01,-0.01
1776535597.286729,91.15,0.21,-0.33,-0.002,0.004,9.809,-0.01,-0.01,-0.02
1776535597.2968132,91.18,0.23,-0.33,0.036,-0.008,9.809,-0.01,-0.01,-0.02
1776535597.3067293,91.18,0.24,-0.33,0.096,-0.019,9.809,-0.01,-0.01,-0.02
1776535597.3167298,91.17,0.26,-0.32,0.139,0.051,9.809,-0.01,-0.01,-0.01
1776535597.3266902,91.13,0.27,-0.29,0.202,0.117,9.808,0.0,-0.01,0.01
1776535597.3366995,91.1,0.29,-0.26,0.207,0.18,9.809,0.01,-0.01,0.02
1776535597.346698,91.08,0.29,-0.23,0.204,0.242,9.809,0.0,-0.01,0.02
1776535597.3567302,91.07,0.29,-0.2,0.196,0.277,9.808,0.0,0.0,0.01
1776535597.3666973,91.07,0.28,-0.17,0.111,0.223,9.808,0.01,0.0,0.0
1776535597.3766944,91.08,0.26,-0.17,0.055,0.145,9.808,0.0,0.0,-0.01
1776535597.3866923,91.09,0.25,-0.18,0.01,0.08,9.809,-0.01,0.0,-0.01
1776535597.3967276,91.09,0.23,-0.19,-0.035,0.011,9.808,-0.01,0.0,-0.01
1776535597.4067152,91.09,0.22,-0.2,-0.066,-0.037,9.808,-0.01,0.0,-0.01
1776535597.4166906,91.09,0.21,-0.21,-0.09,-0.095,9.809,-0.01,-0.01,0.0
1776535597.426699,91.1,0.21,-0.23,-0.079,-0.119,9.809,-0.01,-0.01,-0.01
1776535597.436692,91.11,0.21,-0.23,-0.046,-0.098,9.809,-0.01,-0.01,-0.01
1776535597.4466987,91.12,0.23,-0.22,-0.014,-0.074,9.808,0.0,-0.01,-0.01
1776535597.4566958,91.14,0.24,-0.2,0.025,-0.108,9.809,0.01,-0.01,-0.02
1776535597.4667177,91.15,0.25,-0.21,0.062,-0.116,9.809,0.01,-0.01,-0.02
1776535597.476695,91.14,0.26,-0.22,0.127,-0.01,9.809,-0.01,-0.01,-0.01
1776535597.4867864,91.13,0.27,-0.21,0.132,0.055,9.809,-0.01,-0.01,0.0
1776535597.4966629,91.12,0.27,-0.21,0.137,0.08,9.809,-0.01,0.0,0.0
1776535597.5067003,91.12,0.27,-0.2,0.114,0.122,9.809,-0.01,0.0,0.0
1776535597.516698,91.12,0.26,-0.18,0.117,0.138,9.809,-0.01,0.0,-0.01
1776535597.526666,91.12,0.27,-0.17,0.084,0.122,9.809,0.0,0.0,-0.01
1776535597.5367079,91.11,0.26,-0.16,0.055,0.127,9.808,0.0,0.0,0.0
1776535597.5466657,91.1,0.26,-0.14,0.057,0.145,9.809,0.0,0.0,0.0
1776535597.5566478,91.09,0.25,-0.12,0.011,0.143,9.808,0.0,-0.01,0.0
1776535597.5666785,91.1,0.25,-0.11,0.006,0.113,9.809,0.0,-0.01,0.0
1776535597.5766664,91.1,0.26,-0.1,0.014,0.081,9.808,0.0,-0.01,-0.01
1776535597.586646,91.11,0.26,-0.1,0.013,0.005,9.809,0.0,-0.01,-0.01
1776535597.5966332,91.11,0.26,-0.11,0.036,-0.066,9.808,0.0,-0.01,-0.01
1776535597.6066318,91.11,0.27,-0.14,0.031,-0.099,9.808,-0.01,-0.01,-0.01
1776535597.6167016,91.11,0.26,-0.15,0.055,-0.104,9.809,-0.01,-0.01,0.0
1776535597.6266646,91.11,0.26,-0.15,0.059,-0.12,9.808,-0.01,0.0,0.0
1776535597.6366594,91.12,0.26,-0.16,0.053,-0.129,9.809,0.0,0.0,-0.01
1776535597.6466496,91.12,0.26,-0.17,0.056,-0.098,9.808,-0.01,0.0,-0.01
1776535597.65664,91.13,0.25,-0.16,0.043,-0.046,9.809,-0.01,0.0,-0.01
1776535597.6666646,91.13,0.25,-0.15,0.029,-0.001,9.809,0.0,0.0,-0.01
1776535597.6766512,91.12,0.25,-0.15,0.037,0.032,9.808,-0.01,0.0,0.0
1776535597.6866155,91.12,0.25,-0.15,0.042,0.105,9.809,-0.01,0.0,0.0
1776535597.696665,91.11,0.25,-0.14,0.061,0.121,9.808,-0.01,0.0,0.0
1776535597.7066562,91.1,0.26,-0.13,0.06,0.147,9.808,-0.01,-0.01,0.0
1776535597.715842,91.1,0.26,-0.09,0.085,0.156,9.809,0.0,-0.01,0.0
1776535597.7258015,91.09,0.27,-0.08,0.068,0.156,9.809,0.01,-0.01,0.0
1776535597.7366304,91.09,0.27,-0.07,0.073,0.15,9.809,0.0,-0.01,0.0
1776535597.746642,91.1,0.27,-0.06,0.061,0.132,9.809,-0.01,0.0,-0.01
1776535597.7557952,91.11,0.27,-0.06,0.035,0.049,9.809,0.0,0.0,-0.01
1776535597.7666495,91.12,0.26,-0.06,0.026,-0.031,9.809,0.0,-0.01,-0.01
1776535597.7766337,91.12,0.26,-0.08,0.018,-0.108,9.809,0.0,0.0,-0.01
1776535597.785825,91.11,0.26,-0.1,0.017,-0.166,9.808,-0.01,0.0,0.0
1776535597.796045,91.1,0.25,-0.12,0.013,-0.158,9.808,-0.01,0.0,0.0
1776535597.806659,91.1,0.25,-0.13,0.024,-0.116,9.809,-0.01,0.0,0.0
1776535597.815791,91.1,0.25,-0.12,0.029,-0.108,9.808,0.0,0.0,0.0
1776535597.8259056,91.11,0.25,-0.11,0.043,-0.078,9.808,0.0,-0.01,-0.01
1776535597.8368526,91.12,0.26,-0.11,0.061,-0.031,9.808,0.0,-0.01,-0.01
1776535597.8461826,91.13,0.26,-0.09,0.062,0.048,9.809,0.0,0.0,-0.01
1776535597.8557298,91.13,0.26,-0.06,0.086,0.091,9.809,0.0,-0.01,-0.01
1776535597.8658001,91.12,0.27,-0.06,0.093,0.091,9.809,0.01,0.0,0.0
1776535597.8766036,91.1,0.27,-0.06,0.091,0.125,9.808,-0.01,-0.01,0.0
1776535597.8858194,91.09,0.27,-0.06,0.101,0.145,9.809,-0.01,0.0,0.01
1776535597.89571,91.08,0.27,-0.06,0.085,0.104,9.809,-0.01,0.0,0.01
1776535597.9057608,91.08,0.26,-0.06,0.071,0.063,9.809,-0.01,0.0,0.0
1776535597.9156895,91.08,0.26,-0.07,0.059,0.03,9.808,-0.01,0.0,-0.01
1776535597.925749,91.09,0.26,-0.07,0.019,-0.017,9.808,0.0,0.0,-0.01
1776535597.9357197,91.1,0.25,-0.06,0.001,-0.05,9.808,0.0,-0.01,-0.01
1776535597.9457462,91.11,0.25,-0.05,0.002,-0.105,9.809,0.01,0.0,-0.01
1776535597.9557314,91.11,0.25,-0.06,-0.011,-0.107,9.809,0.0,-0.01,-0.01
1776535597.9658263,91.1,0.25,-0.06,0.005,-0.074,9.809,-0.01,-0.01,0.0
1776535597.9757695,91.09,0.26,-0.05,0.03,-0.036,9.808,-0.01,-0.01,0.0
1776535597.9857674,91.09,0.27,-0.05,0.051,-0.036,9.808,0.0,-0.01,0.0
1776535597.9957516,91.09,0.27,-0.05,0.077,0.0,9.808,-0.01,-0.01,0.0
1776535598.0057464,91.1,0.27,-0.04,0.101,0.025,9.809,-0.01,0.0,-0.01
1776535598.0157049,91.11,0.28,-0.03,0.108,0.01,9.809,0.0,0.0,-0.01
1776535598.025725,91.11,0.28,-0.05,0.089,-0.008,9.809,0.0,-0.01,-0.01
1776535598.0357363,91.11,0.27,-0.06,0.09,0.0,9.809,-0.01,0.0,-0.01
1776535598.0457187,91.1,0.27,-0.06,0.073,0.005,9.809,-0.01,0.0,0.0
1776535598.055729,91.08,0.26,-0.05,0.067,-0.012,9.808,0.0,0.0,0.0
1776535598.065707,91.08,0.26,-0.06,0.05,-0.028,9.809,0.0,0.0,0.0
1776535598.0757215,91.07,0.25,-0.06,0.038,0.056,9.808,-0.01,-0.01,0.0
1776535598.0857189,91.08,0.26,-0.04,0.038,0.065,9.809,0.0,0.0,0.0
1776535598.09569,91.08,0.26,-0.02,0.0,0.053,9.809,0.01,-0.01,-0.01
1776535598.10569,91.09,0.26,-0.02,0.018,0.0,9.809,0.0,-0.01,-0.01
1776535598.1156912,91.1,0.26,-0.03,0.013,-0.002,9.809,-0.01,-0.01,-0.01
1776535598.1256924,91.09,0.26,-0.02,0.029,-0.007,9.808,-0.01,-0.01,-0.01
1776535598.135712,91.09,0.26,-0.02,0.037,-0.025,9.809,0.0,-0.01,0.0
1776535598.1457257,91.08,0.27,-0.03,0.061,-0.06,9.808,0.0,-0.01,0.0
1776535598.1557148,91.08,0.27,-0.04,0.066,-0.025,9.808,-0.01,-0.01,0.0
1776535598.1656864,91.09,0.28,-0.04,0.077,-0.02,9.808,-0.01,0.0,-0.01
1776535598.1756902,91.1,0.27,-0.03,0.067,-0.036,9.808,0.0,0.0,-0.01
1776535598.1857314,91.11,0.28,-0.03,0.069,-0.092,9.809,0.0,-0.01,-0.01
1776535598.1956856,91.11,0.27,-0.04,0.05,-0.066,9.809,0.0,-0.01,-0.01
1776535598.2056842,91.09,0.27,-0.05,0.065,-0.038,9.808,-0.01,0.0,0.0
1776535598.21567,91.08,0.27,-0.04,0.056,-0.012,9.809,-0.01,0.0,0.01
1776535598.225759,91.07,0.27,-0.03,0.068,0.017,9.808,0.0,0.0,0.01
1776535598.2358022,91.07,0.27,-0.02,0.056,0.042,9.809,0.0,-0.01,0.0
1776535598.2457154,91.08,0.26,-0.02,0.044,0.038,9.809,-0.01,0.0,0.0
1776535598.2558956,91.08,0.26,-0.02,0.035,0.04,9.809,-0.01,0.0,-0.01
1776535598.2656953,91.09,0.26,-0.02,0.012,-0.036,9.809,0.0,0.0,-0.01
1776535598.275816,91.09,0.26,-0.03,0.0,-0.05,9.808,0.0,-0.01,-0.01
1776535598.2857413,91.09,0.26,-0.04,0.01,-0.043,9.809,-0.01,-0.01,-0.01
1776535598.2957132,91.09,0.26,-0.03,0.025,-0.06,9.809,0.0,-0.01,0.0
1776535598.3056996,91.08,0.27,-0.03,0.038,-0.026,9.809,0.0,-0.01,0.0
1776535598.3156533,91.08,0.27,-0.02,0.067,0.005,9.808,0.0,-0.01,0.0
1776535598.3257005,91.09,0.28,-0.02,0.063,-0.016,9.809,0.0,-0.01,-0.01
1776535598.3356588,91.09,0.27,-0.02,0.069,-0.025,9.809,-0.01,-0.01,-0.01
1776535598.3456836,91.09,0.27,-0.03,0.081,-0.024,9.809,-0.01,0.0,-0.01
1776535598.3556423,91.08,0.27,-0.02,0.066,-0.008,9.809,0.0,0.0,0.0
1776535598.3656805,91.07,0.27,-0.01,0.067,-0.008,9.808,0.0,-0.01,0.0
1776535598.3756394,91.07,0.27,-0.02,0.035,0.029,9.809,0.0,0.0,0.0
1776535598.385663,91.07,0.26,-0.01,0.011,0.089,9.808,-0.01,0.0,0.0
1776535598.3956683,91.09,0.25,0.03,-0.014,0.105,9.809,0.0,0.0,-0.01
1776535598.4063945,91.1,0.25,0.05,0.0,0.059,9.809,0.01,0.0,-0.02
1776535598.4158742,91.11,0.26,0.04,0.004,-0.032,9.809,0.01,-0.01,-0.02
1776535598.4256837,91.1,0.26,0.01,0.028,-0.083,9.809,-0.01,-0.01,-0.01
1776535598.4356878,91.08,0.26,-0.0,0.074,-0.081,9.809,-0.02,0.0,0.01
1776535598.4456987,91.06,0.28,-0.0,0.084,-0.111,9.809,-0.01,-0.01,0.01
1776535598.4556813,91.05,0.28,-0.01,0.099,-0.079,9.809,0.0,-0.01,0.01
1776535598.465679,91.05,0.29,-0.01,0.108,-0.059,9.808,-0.01,0.0,0.0
1776535598.4756997,91.08,0.28,-0.01,0.073,-0.055,9.809,0.0,0.0,-0.01
1776535598.4856837,91.09,0.27,-0.01,0.066,-0.092,9.809,0.0,0.0,-0.02
1776535598.4956985,91.1,0.26,-0.02,0.019,-0.17,9.809,0.0,0.0,-0.02
1776535598.5057118,91.09,0.25,-0.05,-0.002,-0.16,9.809,-0.01,0.0,-0.01
1776535598.5158892,91.08,0.24,-0.05,-0.004,-0.075,9.809,-0.01,0.0,0.0
1776535598.5256388,91.06,0.25,-0.03,-0.011,0.02,9.809,0.0,-0.01,0.01
1776535598.5356565,91.04,0.25,0.01,0.014,0.078,9.808,0.01,-0.01,0.01
1776535598.5456605,91.04,0.26,0.02,0.017,0.074,9.809,0.01,-0.01,0.0
1776535598.5556898,91.05,0.26,0.02,0.017,0.12,9.809,-0.01,-0.01,-0.01
1776535598.5656633,91.06,0.26,0.04,0.057,0.168,9.809,-0.01,0.0,-0.01
1776535598.5756383,91.06,0.27,0.07,0.066,0.087,9.808,0.0,-0.01,-0.01
1776535598.5856705,91.06,0.28,0.05,0.085,0.018,9.808,0.01,-0.01,-0.01
1776535598.5956628,91.07,0.28,0.05,0.093,0.131,9.809,-0.01,-0.01,-0.01
1776535598.6056573,91.07,0.29,0.1,0.12,0.063,9.809,0.0,0.0,-0.01
1776535598.6156528,91.07,0.3,0.09,0.074,-0.091,9.809,0.02,-0.01,-0.01
1776535598.6257122,91.06,0.29,0.05,0.096,-0.188,9.808,0.0,0.0,0.0
1776535598.635713,91.05,0.3,-0.01,0.104,-0.201,9.809,-0.02,-0.01,0.0
1776535598.6456637,91.04,0.29,-0.06,0.007,-0.099,9.808,-0.02,-0.01,0.0
1776535598.6556413,91.06,0.24,-0.05,0.013,-0.093,9.785,-0.02,0.01,0.0
1776535598.6656828,91.07,0.25,-0.06,-0.01,-0.196,9.773,-0.01,0.01,-0.02
1776535598.6761508,91.09,0.24,-0.06,-0.067,-0.274,9.782,0.0,-0.01,-0.02
1776535598.6856763,91.09,0.24,-0.06,-0.05,-0.36,9.79,0.02,0.0,-0.02
1776535598.6957037,91.06,0.25,-0.06,-0.04,-0.357,9.793,0.02,-0.01,0.0
1776535598.7057707,91.01,0.25,-0.07,-0.001,-0.24,9.798,0.0,-0.01,0.02
1776535598.7147992,90.97,0.26,-0.07,0.051,0.028,9.8,-0.01,-0.01,0.02
1776535598.7256758,90.97,0.27,-0.04,0.046,0.284,9.803,-0.02,-0.01,0.02
1776535598.7356539,91.0,0.28,0.0,0.075,0.418,9.805,-0.01,-0.01,-0.01
1776535598.745957,91.04,0.29,0.05,0.089,0.404,9.806,0.0,0.0,-0.02
1776535598.755632,91.06,0.27,0.08,0.051,0.232,9.805,0.01,-0.01,-0.02
1776535598.7656524,91.05,0.27,0.05,0.078,0.069,9.806,0.01,0.01,-0.02
1776535598.7748022,91.02,0.27,0.02,0.063,0.031,9.806,-0.01,0.0,0.01
1776535598.7848089,90.98,0.26,-0.0,0.057,0.018,9.806,-0.02,0.0,0.02
1776535598.7946882,90.97,0.25,-0.02,0.035,0.023,9.806,-0.02,0.0,0.02
1776535598.8056273,90.99,0.24,-0.01,0.001,0.024,9.809,-0.01,0.0,0.0
1776535598.8156073,91.02,0.23,0.01,-0.025,-0.089,9.809,0.0,0.0,-0.02
1776535598.82575,91.04,0.23,0.0,-0.055,-0.228,9.808,0.02,-0.01,-0.02
1776535598.834742,91.04,0.21,-0.0,-0.028,-0.206,9.808,0.01,0.0,-0.02
1776535598.844785,91.02,0.22,0.04,0.019,-0.123,9.808,0.01,0.0,0.0
1776535598.8547485,91.0,0.25,0.08,0.03,-0.093,9.809,0.02,-0.01,0.01
1776535598.8647478,90.98,0.26,0.07,0.074,0.016,9.808,0.02,-0.02,0.01
1776535598.875602,90.98,0.27,0.12,0.105,0.187,9.809,-0.01,-0.01,0.0
1776535598.8847778,90.98,0.29,0.18,0.147,0.131,9.808,0.01,-0.01,0.0
1776535598.8947792,90.99,0.31,0.18,0.128,0.101,9.808,0.02,-0.01,-0.01
1776535598.904744,91.02,0.29,0.2,0.133,0.12,9.809,0.0,-0.01,-0.02
1776535598.914699,91.05,0.29,0.22,0.114,-0.025,9.809,0.0,0.01,-0.02
1776535598.9247675,91.06,0.29,0.19,0.018,-0.18,9.809,0.01,0.0,-0.02
1776535598.9347374,91.06,0.27,0.15,0.005,-0.228,9.809,-0.01,0.0,-0.01
1776535598.944764,91.06,0.26,0.12,-0.022,-0.289,9.809,-0.02,0.0,0.0
1776535598.9546983,91.05,0.25,0.09,-0.071,-0.352,9.809,-0.01,0.0,0.0
1776535598.964744,91.03,0.23,0.07,-0.065,-0.36,9.808,-0.01,0.0,0.0
1776535598.9747403,91.02,0.24,0.05,-0.044,-0.335,9.809,-0.01,0.0,0.01
1776535598.9847145,91.0,0.24,0.05,-0.04,-0.243,9.808,0.0,-0.01,0.01
1776535598.994739,91.0,0.24,0.05,0.001,-0.125,9.808,-0.01,-0.01,0.0
1776535599.0047283,91.01,0.25,0.05,0.065,0.032,9.809,-0.01,0.0,0.0
1776535599.0147188,91.02,0.26,0.08,0.083,0.131,9.809,-0.01,-0.01,-0.01
1776535599.02472,91.03,0.27,0.1,0.132,0.171,9.809,0.0,0.0,-0.01
1776535599.03475,91.02,0.27,0.11,0.122,0.143,9.808,0.0,0.0,-0.01
1776535599.0447168,91.01,0.27,0.09,0.128,0.128,9.809,-0.01,0.0,0.0
1776535599.054695,90.99,0.26,0.07,0.128,0.072,9.809,-0.02,0.0,0.01
1776535599.0647914,90.97,0.25,0.04,0.081,-0.017,9.809,-0.02,0.0,0.01
1776535599.0747266,90.96,0.25,-0.02,0.057,-0.09,9.808,-0.02,0.0,0.01
1776535599.0847142,90.97,0.23,-0.07,0.008,-0.139,9.808,-0.02,0.0,0.0
1776535599.09472,91.01,0.21,-0.11,-0.01,-0.169,9.809,-0.03,0.0,-0.02
1776535599.1046915,91.05,0.21,-0.12,-0.065,-0.22,9.809,-0.02,0.01,-0.02
1776535599.1147175,91.08,0.2,-0.09,-0.075,-0.267,9.808,0.0,-0.01,-0.02
1776535599.1247263,91.08,0.22,-0.08,-0.035,-0.378,9.808,0.02,-0.01,-0.02
1776535599.1347284,91.05,0.22,-0.12,-0.012,-0.345,9.808,0.01,-0.02,0.0
1776535599.1447623,91.0,0.21,-0.17,0.054,-0.14,9.809,-0.02,0.0,0.02
1776535599.1546962,90.95,0.22,-0.17,0.133,0.133,9.808,-0.03,0.0,0.03
1776535599.1646698,90.94,0.23,-0.11,0.163,0.363,9.809,-0.02,0.0,0.02
1776535599.1747177,90.96,0.25,-0.04,0.135,0.423,9.809,0.01,-0.01,0.0
1776535599.1846862,90.98,0.25,0.0,0.122,0.362,9.808,0.02,-0.01,-0.02
1776535599.1946828,91.0,0.26,-0.01,0.128,0.172,9.808,0.0,0.0,-0.02
1776535599.2046847,91.01,0.25,-0.04,0.071,0.176,9.808,-0.02,-0.01,-0.02
1776535599.2146904,91.01,0.24,-0.01,0.093,0.16,9.809,-0.02,0.0,-0.01
1776535599.2248561,90.99,0.25,-0.01,0.01,-0.089,9.808,0.01,0.0,0.0
1776535599.2346945,90.98,0.22,-0.06,-0.032,-0.014,9.808,-0.01,-0.02,0.0
1776535599.2447026,90.99,0.23,0.01,0.023,0.153,9.809,-0.02,0.01,0.0
1776535599.2547143,90.99,0.25,0.1,-0.036,0.005,9.809,0.03,-0.01,-0.01
1776535599.264696,90.98,0.25,0.12,0.002,-0.117,9.808,0.05,-0.02,0.0
1776535599.2746372,90.98,0.27,0.11,0.06,-0.084,9.809,0.02,-0.01,0.0
1776535599.2846816,90.98,0.28,0.11,0.054,-0.042,9.808,-0.01,-0.02,0.0
1776535599.2947092,91.0,0.27,0.12,0.068,-0.095,9.809,0.0,-0.01,-0.01
1776535599.304692,91.01,0.27,0.1,0.096,-0.278,9.809,0.0,0.0,-0.02
1776535599.314669,91.0,0.27,0.04,0.066,-0.278,9.808,-0.01,0.0,-0.01
1776535599.3246782,90.99,0.25,0.03,0.08,-0.245,9.808,-0.02,0.0,0.0
1776535599.3346581,90.98,0.25,0.02,0.06,-0.254,9.808,0.0,0.01,0.0
1776535599.3446658,90.98,0.24,0.01,-0.02,-0.2,9.808,0.0,0.0,0.0
1776535599.354731,90.99,0.23,0.01,0.083,-0.19,9.809,-0.01,0.0,0.0
1776535599.3646917,90.99,0.26,0.01,-0.011,-0.066,9.808,0.0,0.0,-0.01
1776535599.3746767,90.99,0.25,0.03,0.016,-0.081,9.808,0.0,-0.02,-0.01
1776535599.3846812,90.99,0.25,0.06,0.046,0.063,9.808,0.01,0.0,0.0
1776535599.3947039,90.98,0.27,0.09,0.036,0.086,9.808,0.01,-0.01,0.0
1776535599.4046836,90.97,0.26,0.09,0.025,0.093,9.808,0.0,-0.02,0.0
1776535599.4146852,90.97,0.26,0.08,0.081,0.117,9.809,-0.02,0.0,0.0
1776535599.4246693,90.96,0.26,0.07,0.056,0.08,9.808,-0.02,0.0,0.0
1776535599.4346921,90.95,0.25,0.07,0.08,0.011,9.808,0.0,0.0,0.0
1776535599.4446833,90.94,0.26,0.04,0.078,-0.075,9.808,-0.01,0.0,0.0
1776535599.454709,90.94,0.24,-0.0,0.066,-0.152,9.809,-0.02,-0.01,0.0
1776535599.464722,90.94,0.25,-0.04,0.051,-0.188,9.808,-0.02,0.0,-0.01
1776535599.4746888,90.96,0.25,-0.04,0.047,-0.212,9.809,-0.01,-0.01,-0.01
1776535599.48462,90.97,0.24,-0.01,0.029,-0.2,9.808,0.01,-0.01,-0.01
1776535599.4946642,90.98,0.25,0.01,0.043,-0.244,9.809,0.02,-0.01,-0.01
1776535599.504661,90.97,0.25,-0.02,0.0,-0.176,9.809,0.01,-0.01,-0.01
1776535599.5146928,90.96,0.25,0.01,0.042,0.067,9.809,-0.02,0.0,0.0
1776535599.524621,90.95,0.26,0.08,0.051,0.115,9.808,0.01,0.0,0.0
1776535599.5346544,90.94,0.26,0.09,0.047,0.134,9.808,0.02,-0.01,0.0
1776535599.5446968,90.94,0.26,0.09,0.072,0.196,9.808,-0.01,0.0,0.0
1776535599.5546496,90.94,0.27,0.11,0.066,0.199,9.808,-0.01,0.0,0.0
1776535599.564609,90.94,0.26,0.12,0.043,0.048,9.808,0.0,-0.01,0.0
1776535599.574707,90.94,0.26,0.07,0.047,-0.083,9.808,0.0,0.0,0.0
1776535599.5846465,90.95,0.26,0.02,0.03,-0.146,9.808,-0.02,0.0,-0.01
1776535599.594639,90.96,0.25,-0.01,0.019,-0.241,9.808,-0.02,0.0,-0.01
1776535599.604641,90.97,0.24,-0.03,0.016,-0.308,9.808,-0.01,0.0,-0.01
1776535599.6147432,90.97,0.24,-0.04,0.022,-0.35,9.808,0.0,0.0,-0.01
1776535599.6246548,90.97,0.24,-0.07,0.026,-0.325,9.809,0.0,0.0,0.0
1776535599.6346526,90.95,0.24,-0.08,0.047,-0.251,9.808,-0.01,-0.01,0.0
1776535599.6446233,90.94,0.24,-0.08,0.054,-0.117,9.808,-0.01,0.0,0.0
1776535599.6546721,90.94,0.25,-0.05,0.069,0.016,9.808,0.0,0.0,0.0
1776535599.6646404,90.94,0.26,-0.02,0.071,0.091,9.808,0.01,0.0,0.0
1776535599.674641,90.95,0.26,0.0,0.075,0.163,9.809,0.0,-0.01,-0.01
1776535599.6847591,90.95,0.26,0.01,0.061,0.182,9.809,-0.01,-0.01,-0.01
1776535599.6946704,90.95,0.25,0.01,0.057,0.193,9.809,-0.01,0.0,-0.01
1776535599.7037785,90.95,0.25,0.02,0.056,0.154,9.808,-0.01,0.0,-0.01
1776535599.7137926,90.95,0.25,0.01,0.038,0.059,9.808,-0.01,-0.01,-0.01
1776535599.724767,90.95,0.24,-0.01,0.044,-0.035,9.808,-0.01,0.0,-0.01
1776535599.734643,90.95,0.25,-0.03,0.03,-0.116,9.808,-0.01,0.0,0.0
1776535599.7437806,90.95,0.24,-0.04,0.036,-0.187,9.809,0.0,-0.01,0.0
1776535599.7546551,90.95,0.24,-0.05,0.036,-0.211,9.809,0.0,0.0,0.0
1776535599.7638018,90.95,0.25,-0.07,0.035,-0.217,9.808,0.0,0.0,-0.01
1776535599.7746096,90.96,0.25,-0.07,0.047,-0.176,9.809,0.0,0.0,-0.01
1776535599.7846317,90.96,0.25,-0.05,0.049,-0.126,9.808,0.0,-0.01,-0.01
1776535599.7946467,90.96,0.25,-0.04,0.043,-0.079,9.809,0.01,-0.01,-0.01
1776535599.8047554,90.95,0.25,-0.04,0.046,-0.004,9.808,0.0,0.0,0.0
1776535599.8137674,90.95,0.25,-0.03,0.053,0.061,9.809,-0.01,0.0,0.0
1776535599.823762,90.94,0.25,-0.02,0.056,0.099,9.808,-0.01,0.0,0.0
1776535599.8338394,90.94,0.25,-0.01,0.053,0.09,9.808,0.0,0.0,0.0
1776535599.8437781,90.94,0.25,-0.01,0.046,0.057,9.808,-0.01,-0.01,-0.01
1776535599.8537238,90.94,0.25,-0.02,0.044,0.001,9.808,-0.01,0.0,-0.01
1776535599.8646317,90.94,0.25,-0.03,0.046,-0.059,9.808,-0.01,0.0,0.0
1776535599.8746235,90.94,0.25,-0.05,0.038,-0.105,9.808,-0.01,-0.01,0.0
1776535599.88376,90.94,0.25,-0.06,0.038,-0.116,9.808,-0.01,0.0,0.0
1776535599.8937795,90.94,0.25,-0.06,0.046,-0.143,9.808,0.0,0.0,-0.01
1776535599.9037771,90.95,0.25,-0.07,0.042,-0.145,9.809,0.0,-0.01,-0.01
1776535599.9138083,90.95,0.25,-0.07,0.049,-0.119,9.808,0.0,0.0,-0.01
1776535599.9237485,90.95,0.25,-0.07,0.048,-0.081,9.808,0.0,0.0,-0.01
1776535599.9346223,90.94,0.24,-0.06,0.047,-0.037,9.808,0.0,0.0,0.0
1776535599.9439816,90.94,0.24,-0.05,0.043,0.022,9.808,0.0,0.0,0.0
1776535599.9537697,90.94,0.24,-0.04,0.04,0.059,9.809,0.0,-0.01,0.0
1776535599.9639199,90.94,0.25,-0.04,0.042,0.069,9.808,0.0,0.0,-0.01
1776535599.9738247,90.94,0.24,-0.03,0.047,0.048,9.808,0.0,0.0,-0.01
1776535599.9837801,90.95,0.25,-0.04,0.049,0.017,9.809,-0.01,-0.01,-0.01
1776535599.9937649,90.95,0.24,-0.04,0.06,-0.029,9.809,-0.01,0.0,-0.01
1776535600.0037518,90.94,0.25,-0.05,0.061,-0.072,9.808,-0.01,0.0,0.0
1776535600.0142019,90.94,0.25,-0.06,0.069,-0.096,9.808,-0.01,0.0,0.0
1776535600.023882,90.94,0.25,-0.07,0.062,-0.111,9.809,-0.01,0.0,0.0
1776535600.033733,90.94,0.25,-0.08,0.055,-0.111,9.809,0.0,0.0,0.0
1776535600.04376,90.94,0.25,-0.08,0.047,-0.095,9.808,-0.01,0.0,-0.01
1776535600.0537815,90.95,0.25,-0.08,0.034,-0.091,9.808,0.0,0.0,-0.01
1776535600.0637357,90.95,0.24,-0.08,0.031,-0.08,9.808,0.0,0.0,-0.01
1776535600.0737405,90.95,0.24,-0.08,0.036,-0.041,9.809,-0.01,0.0,0.0
1776535600.0837724,90.94,0.24,-0.07,0.031,-0.007,9.808,-0.01,-0.01,0.0
1776535600.0937665,90.94,0.24,-0.07,0.04,0.019,9.809,0.0,-0.01,0.0
1776535600.103717,90.94,0.25,-0.07,0.046,0.02,9.809,-0.01,0.0,0.0
1776535600.1137724,90.94,0.24,-0.07,0.062,0.014,9.808,-0.01,-0.01,0.0
1776535600.123783,90.94,0.25,-0.08,0.073,-0.014,9.808,-0.01,0.0,-0.01
1776535600.1337543,90.95,0.25,-0.09,0.066,-0.074,9.809,-0.01,0.0,-0.01
1776535600.1437395,90.95,0.25,-0.11,0.061,-0.103,9.809,-0.01,0.0,-0.01
1776535600.1537428,90.94,0.24,-0.11,0.059,-0.102,9.808,-0.01,0.0,0.0
1776535600.1642113,90.94,0.24,-0.11,0.055,-0.067,9.809,-0.01,0.0,0.0
1776535600.1737387,90.94,0.25,-0.1,0.049,-0.062,9.809,0.0,-0.01,0.0
1776535600.1836765,90.94,0.24,-0.1,0.04,-0.055,9.809,0.0,-0.01,0.0
1776535600.193739,90.94,0.24,-0.11,0.048,0.011,9.809,-0.01,0.0,-0.01
1776535600.2037277,90.94,0.24,-0.09,0.04,0.06,9.809,-0.01,0.0,0.0
1776535600.2137032,90.94,0.24,-0.06,0.041,0.066,9.809,0.0,-0.01,0.0
1776535600.223677,90.94,0.25,-0.06,0.053,0.079,9.808,0.0,-0.01,-0.01
1776535600.2337205,90.94,0.25,-0.05,0.046,0.046,9.809,0.0,-0.01,-0.01
1776535600.2436907,90.93,0.25,-0.05,0.061,0.005,9.808,0.0,-0.01,0.0
1776535600.2537243,90.93,0.26,-0.07,0.066,-0.043,9.809,-0.01,-0.01,0.0
1776535600.2636936,90.93,0.25,-0.09,0.054,-0.063,9.808,-0.01,-0.01,0.0
1776535600.2737668,90.93,0.25,-0.09,0.063,-0.086,9.808,-0.01,0.0,-0.01
1776535600.2837236,90.94,0.25,-0.09,0.062,-0.12,9.809,0.0,0.0,-0.01
1776535600.2937183,90.94,0.25,-0.09,0.053,-0.15,9.808,0.0,-0.01,-0.01
1776535600.303715,90.94,0.25,-0.11,0.055,-0.151,9.808,0.0,0.0,-0.01
1776535600.3137012,90.94,0.24,-0.11,0.043,-0.134,9.808,-0.01,0.0,-0.01
1776535600.3237062,90.93,0.24,-0.13,0.034,-0.097,9.808,-0.01,0.0,0.0
1776535600.3337371,90.93,0.24,-0.12,0.036,-0.037,9.809,-0.01,0.0,0.0
1776535600.3437085,90.93,0.24,-0.12,0.02,0.017,9.808,-0.01,-0.01,0.0
1776535600.3539097,90.93,0.24,-0.11,0.031,0.057,9.808,0.0,-0.01,-0.01
1776535600.3636858,90.94,0.24,-0.09,0.054,0.081,9.809,0.0,0.0,-0.01
1776535600.373745,90.94,0.25,-0.08,0.066,0.09,9.808,0.0,-0.01,-0.01
1776535600.383861,90.94,0.25,-0.07,0.086,0.071,9.808,0.0,-0.01,-0.01
1776535600.393719,90.94,0.25,-0.07,0.08,0.03,9.809,0.0,0.0,0.0
1776535600.4037309,90.93,0.25,-0.09,0.086,0.01,9.808,-0.01,0.0,0.0
1776535600.413725,90.93,0.25,-0.09,0.069,-0.022,9.809,-0.01,0.0,0.0
1776535600.4237201,90.93,0.25,-0.1,0.048,-0.037,9.808,-0.01,-0.01,0.0
1776535600.433666,90.94,0.24,-0.09,0.041,-0.057,9.809,-0.01,0.0,-0.01
1776535600.4436908,90.94,0.24,-0.09,0.019,-0.105,9.808,0.0,0.0,-0.01
1776535600.4537792,90.95,0.24,-0.1,0.025,-0.123,9.809,0.0,-0.01,-0.01
1776535600.4637039,90.94,0.24,-0.1,0.031,-0.116,9.808,0.0,0.0,-0.01
1776535600.4736962,90.94,0.24,-0.11,0.034,-0.089,9.809,-0.01,-0.01,0.0
1776535600.4836981,90.93,0.25,-0.12,0.038,-0.062,9.808,-0.01,0.0,0.0
1776535600.49401,90.93,0.24,-0.12,0.042,-0.03,9.808,-0.01,-0.01,0.0
1776535600.5036612,90.94,0.24,-0.11,0.036,0.005,9.809,-0.01,-0.01,-0.01
1776535600.5137835,90.94,0.24,-0.1,0.054,0.017,9.808,0.0,0.0,-0.01
1776535600.5237074,90.95,0.25,-0.09,0.062,0.016,9.809,0.0,0.0,-0.01
1776535600.5337126,90.95,0.25,-0.08,0.073,0.005,9.809,0.0,-0.01,-0.01
1776535600.5436893,90.94,0.25,-0.09,0.073,-0.001,9.808,-0.01,-0.01,0.0
1776535600.5536296,90.93,0.25,-0.1,0.065,-0.014,9.808,-0.01,0.0,0.0
1776535600.563687,90.92,0.25,-0.11,0.057,0.001,9.808,-0.01,0.0,0.0
1776535600.573678,90.93,0.25,-0.1,0.048,0.025,9.809,-0.01,0.0,0.0
1776535600.5836554,90.93,0.25,-0.08,0.042,-0.002,9.808,0.0,-0.01,-0.01
1776535600.5936704,90.94,0.25,-0.08,0.028,-0.055,9.808,0.01,-0.01,-0.01
1776535600.603866,90.95,0.25,-0.09,0.025,-0.102,9.809,0.0,-0.01,-0.01
1776535600.6136768,90.94,0.24,-0.11,0.025,-0.122,9.808,-0.01,0.0,-0.01
1776535600.623652,90.94,0.24,-0.13,0.029,-0.104,9.809,-0.02,-0.01,0.0
1776535600.633711,90.93,0.24,-0.14,0.025,-0.063,9.808,-0.02,0.0,0.0
1776535600.6436794,90.93,0.24,-0.12,0.041,-0.019,9.808,-0.01,0.0,0.0
1776535600.6536872,90.94,0.25,-0.1,0.048,-0.012,9.809,0.0,-0.01,-0.01
1776535600.663685,90.94,0.25,-0.1,0.065,-0.019,9.808,0.01,-0.01,-0.01
1776535600.6736796,90.94,0.25,-0.11,0.065,-0.011,9.808,0.0,0.0,-0.01
1776535600.683627,90.94,0.25,-0.11,0.061,0.02,9.808,-0.01,0.0,-0.01
1776535600.6936886,90.93,0.25,-0.11,0.065,0.044,9.808,-0.01,0.0,0.0
1776535600.7036574,90.93,0.25,-0.09,0.057,0.043,9.808,0.0,-0.01,0.0
1776535600.7136724,90.93,0.25,-0.08,0.053,0.023,9.809,0.0,-0.01,0.0
1776535600.7236314,90.92,0.25,-0.09,0.049,-0.006,9.808,0.0,-0.01,0.0
1776535600.7336535,90.92,0.24,-0.09,0.038,-0.014,9.808,0.0,0.0,0.0
1776535600.7427979,90.93,0.24,-0.09,0.024,-0.029,9.809,-0.01,0.0,0.0
1776535600.753677,90.94,0.24,-0.09,0.024,-0.061,9.809,0.0,0.0,-0.01
1776535600.7636423,90.94,0.24,-0.1,0.024,-0.11,9.808,0.0,-0.01,-0.01
1776535600.7736497,90.94,0.24,-0.11,0.032,-0.146,9.808,0.0,-0.01,-0.01
1776535600.7827997,90.93,0.24,-0.13,0.038,-0.144,9.808,-0.01,-0.01,0.0
1776535600.7928047,90.93,0.24,-0.14,0.05,-0.111,9.809,-0.01,0.0,0.0
1776535600.8036582,90.93,0.24,-0.14,0.059,-0.068,9.809,-0.01,0.0,0.0
1776535600.8136828,90.93,0.25,-0.14,0.063,-0.037,9.809,-0.01,0.0,0.0
1776535600.8229713,90.93,0.25,-0.13,0.062,-0.02,9.809,0.0,-0.01,-0.01
1776535600.8327963,90.93,0.25,-0.13,0.066,0.002,9.808,0.0,-0.01,-0.01
1776535600.8427987,90.94,0.24,-0.12,0.062,0.044,9.809,-0.01,0.0,-0.01
1776535600.8536494,90.93,0.24,-0.11,0.067,0.066,9.808,0.0,0.0,-0.01
1776535600.8627887,90.93,0.24,-0.09,0.06,0.072,9.808,0.0,-0.01,0.0
1776535600.8728006,90.93,0.25,-0.09,0.051,0.085,9.809,0.0,-0.01,0.0
1776535600.8833911,90.93,0.25,-0.08,0.05,0.057,9.809,0.0,-0.01,0.0
1776535600.8927693,90.93,0.25,-0.09,0.037,0.026,9.809,-0.01,0.0,0.0
1776535600.9027677,90.93,0.24,-0.09,0.04,0.006,9.809,-0.01,0.0,-0.01
1776535600.9127965,90.93,0.25,-0.1,0.031,-0.035,9.808,-0.01,-0.01,-0.01
1776535600.9227748,90.94,0.25,-0.1,0.03,-0.11,9.809,0.0,-0.01,-0.01
1776535600.9328222,90.94,0.24,-0.12,0.036,-0.162,9.809,0.0,0.0,-0.01
1776535600.9427748,90.93,0.25,-0.14,0.057,-0.176,9.808,-0.01,0.0,0.0
1776535600.952789,90.93,0.25,-0.15,0.061,-0.152,9.809,-0.01,0.0,0.0
1776535600.9628093,90.93,0.25,-0.15,0.072,-0.104,9.809,-0.01,0.0,0.0
1776535600.972784,90.93,0.25,-0.13,0.068,-0.051,9.809,0.0,0.0,0.0
1776535600.9827406,90.93,0.25,-0.12,0.073,-0.01,9.808,0.0,0.0,-0.01
1776535600.9927986,90.93,0.25,-0.12,0.066,-0.014,9.808,0.0,0.0,-0.01
1776535601.002773,90.93,0.25,-0.13,0.049,0.042,9.809,-0.01,-0.01,0.0
1776535601.0127673,90.92,0.24,-0.12,0.042,0.095,9.808,-0.01,0.0,0.0
1776535601.0227368,90.92,0.23,-0.1,0.035,0.108,9.809,-0.01,0.0,0.0
1776535601.0327764,90.92,0.23,-0.09,0.02,0.097,9.809,0.0,0.0,0.0
1776535601.0427544,90.92,0.24,-0.09,0.02,0.044,9.809,0.0,-0.01,-0.01
1776535601.0527294,90.92,0.24,-0.09,0.025,0.0,9.808,0.0,-0.01,-0.01
1776535601.062752,90.92,0.24,-0.1,0.054,-0.025,9.808,-0.01,-0.01,-0.01
1776535601.0727284,90.93,0.25,-0.11,0.066,-0.031,9.808,-0.01,-0.01,-0.01
1776535601.0827684,90.94,0.25,-0.1,0.08,-0.066,9.809,-0.01,-0.01,-0.01
1776535601.0928547,90.94,0.26,-0.11,0.091,-0.095,9.809,0.0,-0.01,-0.01
1776535601.102789,90.93,0.26,-0.11,0.089,-0.096,9.808,0.0,-0.01,0.0
1776535601.112829,90.92,0.25,-0.11,0.077,-0.071,9.808,0.0,0.0,0.0
1776535601.1227362,90.92,0.24,-0.11,0.049,-0.044,9.809,-0.01,0.0,0.0
1776535601.1327567,90.91,0.24,-0.11,0.029,-0.03,9.808,-0.01,0.0,0.0
1776535601.1427555,90.92,0.24,-0.11,0.008,-0.043,9.809,-0.01,0.0,0.0
1776535601.2111614,90.92,0.24,-0.12,0.013,-0.038,9.808,-0.01,-0.01,-0.01
1776535601.2125807,90.93,0.24,-0.13,0.022,-0.035,9.809,-0.01,0.0,-0.01
1776535601.213997,90.93,0.24,-0.12,0.042,-0.032,9.809,-0.01,0.0,-0.01
1776535601.2153625,90.92,0.25,-0.12,0.067,-0.019,9.808,0.0,-0.01,0.0
1776535601.2167177,90.92,0.25,-0.11,0.077,0.0,9.808,0.0,-0.01,0.0
1776535601.2181094,90.92,0.25,-0.1,0.09,0.022,9.808,0.0,-0.01,0.0
1776535601.219456,90.92,0.25,-0.1,0.081,0.038,9.809,0.0,0.0,0.0
1776535601.2227528,90.92,0.25,-0.09,0.067,0.054,9.808,-0.01,0.0,0.0
1776535601.2327874,90.92,0.25,-0.09,0.049,0.041,9.808,0.0,0.0,-0.01
1776535601.2860625,90.92,0.24,-0.08,0.04,0.022,9.808,0.0,-0.01,-0.01
1776535601.3022146,90.92,0.24,-0.08,0.035,-0.011,9.808,0.0,0.0,0.0
1776535601.3148928,90.92,0.24,-0.09,0.029,-0.051,9.808,0.0,-0.01,0.0
1776535601.3180473,90.92,0.24,-0.1,0.031,-0.083,9.808,-0.01,-0.01,-0.01
1776535601.3199272,90.92,0.25,-0.11,0.036,-0.102,9.808,-0.01,-0.01,-0.01
1776535601.321491,90.93,0.25,-0.12,0.051,-0.12,9.809,-0.01,-0.01,-0.01
1776535601.3245437,90.93,0.25,-0.12,0.056,-0.135,9.808,0.0,-0.01,-0.01
1776535601.327336,90.92,0.25,-0.13,0.069,-0.12,9.808,0.0,0.0,0.0
1776535601.329121,90.92,0.25,-0.13,0.071,-0.08,9.809,-0.01,0.0,0.0
1776535601.3330104,90.91,0.25,-0.12,0.068,-0.024,9.808,0.0,0.0,0.0
1776535601.342714,90.91,0.25,-0.11,0.062,0.028,9.809,0.0,0.0,0.0
1776535601.3527436,90.91,0.25,-0.1,0.054,0.051,9.808,0.0,0.0,-0.01
1776535601.362819,90.92,0.25,-0.09,0.054,0.06,9.809,0.0,0.0,-0.01
1776535601.3727129,90.92,0.25,-0.09,0.043,0.057,9.808,0.0,0.0,-0.01
1776535601.3827295,90.92,0.25,-0.09,0.04,0.042,9.808,0.0,-0.01,-0.01
1776535601.392714,90.92,0.25,-0.09,0.042,0.012,9.808,-0.01,0.0,-0.01
1776535601.4029565,90.92,0.25,-0.1,0.031,-0.016,9.808,-0.01,-0.01,-0.01
1776535601.412715,90.92,0.25,-0.1,0.043,-0.051,9.808,-0.01,0.0,0.0
1776535601.4226952,90.92,0.25,-0.11,0.043,-0.075,9.809,-0.01,0.0,0.0
1776535601.4329994,90.91,0.24,-0.11,0.044,-0.095,9.808,-0.01,-0.01,0.0
1776535601.4427085,90.91,0.25,-0.12,0.046,-0.097,9.808,-0.01,0.0,0.0
1776535601.4527066,90.92,0.25,-0.12,0.041,-0.091,9.809,0.0,-0.01,-0.01
1776535601.4627116,90.92,0.24,-0.12,0.055,-0.081,9.809,-0.01,0.0,-0.01
1776535601.4727511,90.92,0.25,-0.12,0.051,-0.06,9.809,-0.01,0.0,-0.01
1776535601.4826753,90.92,0.25,-0.12,0.056,-0.032,9.809,0.0,-0.01,0.0
1776535601.4927084,90.91,0.25,-0.12,0.054,-0.005,9.808,0.0,0.0,0.0
1776535601.5026786,90.91,0.25,-0.11,0.05,0.017,9.808,-0.01,0.0,0.0
1776535601.512724,90.91,0.24,-0.1,0.049,0.025,9.809,-0.01,0.0,0.0
1776535601.522699,90.91,0.25,-0.1,0.041,0.034,9.809,0.0,0.0,0.0
1776535601.5326607,90.91,0.25,-0.1,0.038,0.035,9.808,-0.01,0.0,0.0
1776535601.542649,90.91,0.25,-0.1,0.03,0.004,9.808,-0.01,-0.01,-0.01
1776535601.552768,90.92,0.24,-0.1,0.034,-0.02,9.809,0.0,-0.01,-0.01
1776535601.5626736,90.92,0.24,-0.1,0.044,-0.046,9.809,0.0,0.0,-0.01
1776535601.5726624,90.91,0.24,-0.1,0.049,-0.057,9.808,0.0,-0.01,0.0
1776535601.5827074,90.91,0.25,-0.11,0.055,-0.062,9.808,0.0,0.0,0.0
1776535601.5926898,90.91,0.25,-0.11,0.055,-0.062,9.808,0.0,0.0,0.0
1776535601.6027334,90.91,0.25,-0.11,0.056,-0.061,9.808,0.0,0.0,-0.01
1776535601.6126618,90.91,0.24,-0.11,0.057,-0.042,9.808,-0.01,0.0,0.0
1776535601.622728,90.91,0.24,-0.11,0.049,-0.043,9.808,-0.01,0.0,0.0
1776535601.6327333,90.91,0.24,-0.11,0.048,-0.029,9.809,0.0,0.0,0.0
1776535601.6426616,90.9,0.24,-0.11,0.048,-0.012,9.808,-0.01,0.0,0.0
1776535601.652703,90.9,0.25,-0.11,0.044,0.002,9.808,-0.01,0.0,0.0
1776535601.6627333,90.91,0.24,-0.1,0.046,0.006,9.809,0.0,-0.01,-0.01
1776535601.6726632,90.91,0.24,-0.1,0.042,0.001,9.808,0.0,0.0,-0.01
1776535601.6826332,90.91,0.24,-0.1,0.048,-0.002,9.808,0.0,0.0,-0.01
1776535601.692698,90.91,0.25,-0.1,0.051,-0.019,9.808,0.0,-0.01,-0.01
1776535601.7026632,90.91,0.25,-0.1,0.061,-0.031,9.808,0.0,0.0,0.0
1776535601.7126853,90.9,0.25,-0.1,0.067,-0.029,9.808,0.0,0.0,0.0
1776535601.7226663,90.9,0.25,-0.1,0.063,-0.018,9.809,-0.01,0.0,0.0
1776535601.7318294,90.9,0.25,-0.1,0.066,-0.013,9.809,0.0,0.0,0.0
1776535601.7426689,90.9,0.25,-0.1,0.056,-0.013,9.808,0.0,0.0,-0.01
1776535601.7526393,90.91,0.25,-0.1,0.044,-0.037,9.809,-0.01,0.0,-0.01
1776535601.7618015,90.91,0.24,-0.1,0.041,-0.055,9.808,0.0,0.0,-0.01
1776535601.7726789,90.91,0.24,-0.11,0.037,-0.068,9.808,-0.01,0.0,-0.01
1776535601.7826672,90.9,0.24,-0.11,0.04,-0.061,9.808,-0.01,-0.01,0.0
1776535601.7926443,90.9,0.24,-0.11,0.047,-0.034,9.809,0.0,-0.01,0.0
1776535601.8018606,90.9,0.24,-0.1,0.041,-0.005,9.809,0.0,-0.01,0.0
1776535601.8118346,90.9,0.24,-0.1,0.044,0.001,9.808,0.0,-0.01,-0.01
1776535601.8227088,90.91,0.24,-0.1,0.051,0.007,9.809,0.0,0.0,-0.01
1776535601.8318279,90.91,0.24,-0.09,0.056,0.005,9.808,-0.01,0.0,-0.01
1776535601.8418055,90.91,0.24,-0.09,0.051,-0.007,9.809,0.0,0.0,-0.01
1776535601.8518476,90.9,0.24,-0.09,0.05,-0.014,9.808,0.0,0.0,0.0
1776535601.8619483,90.9,0.24,-0.09,0.055,-0.008,9.808,0.0,0.0,0.0
1776535601.8718183,90.9,0.24,-0.09,0.053,-0.012,9.809,0.0,0.0,0.0
1776535601.8827126,90.9,0.24,-0.09,0.049,-0.026,9.808,0.0,0.0,0.0
1776535601.8918173,90.9,0.24,-0.1,0.036,-0.043,9.808,0.0,0.0,-0.01
1776535601.901852,90.91,0.24,-0.1,0.025,-0.065,9.809,-0.01,0.0,-0.01
1776535601.9118288,90.91,0.24,-0.11,0.035,-0.065,9.808,0.0,0.0,-0.01
1776535601.9218316,90.91,0.24,-0.11,0.035,-0.067,9.809,0.0,-0.01,0.0
1776535601.932052,90.9,0.24,-0.11,0.037,-0.053,9.808,0.0,-0.01,0.0
1776535601.9417956,90.9,0.24,-0.11,0.054,-0.036,9.808,0.0,0.0,0.0
1776535601.9518223,90.9,0.24,-0.1,0.062,-0.017,9.809,-0.01,0.0,0.0
1776535601.9618194,90.9,0.25,-0.1,0.057,0.0,9.809,0.0,-0.01,0.0
1776535601.9720802,90.9,0.25,-0.1,0.061,0.008,9.808,0.0,0.0,-0.01
1776535601.9818504,90.9,0.24,-0.09,0.056,0.0,9.808,-0.01,0.0,-0.01
1776535601.9918144,90.9,0.24,-0.09,0.055,-0.011,9.808,-0.01,0.0,-0.01
1776535602.0017877,90.9,0.24,-0.09,0.049,-0.018,9.808,0.0,0.0,0.0
1776535602.0118482,90.9,0.24,-0.1,0.047,-0.023,9.809,0.0,-0.01,0.0
1776535602.021769,90.9,0.24,-0.09,0.05,-0.025,9.809,0.0,0.0,0.0
1776535602.0318038,90.9,0.24,-0.1,0.043,-0.036,9.808,0.0,0.0,0.0
1776535602.0421886,90.9,0.24,-0.1,0.043,-0.049,9.808,0.0,0.0,-0.01
1776535602.0517714,90.9,0.24,-0.1,0.046,-0.055,9.808,0.0,0.0,-0.01
1776535602.061826,90.9,0.24,-0.1,0.051,-0.053,9.808,-0.01,-0.01,0.0
1776535602.0717995,90.89,0.24,-0.1,0.054,-0.043,9.808,-0.01,-0.01,0.0
1776535602.0817444,90.89,0.24,-0.1,0.056,-0.026,9.808,0.0,0.0,0.0
1776535602.091785,90.9,0.25,-0.1,0.056,-0.02,9.809,0.0,0.0,0.0
1776535602.1017787,90.9,0.25,-0.1,0.059,-0.02,9.808,0.0,0.0,-0.01
1776535602.1118093,90.9,0.25,-0.1,0.062,-0.024,9.808,0.0,0.0,-0.01
1776535602.121746,90.9,0.24,-0.1,0.057,-0.031,9.808,-0.01,0.0,-0.01
1776535602.1317632,90.9,0.24,-0.1,0.06,-0.025,9.809,-0.01,0.0,0.0
1776535602.141776,90.89,0.24,-0.1,0.049,-0.023,9.808,0.0,0.0,0.0
1776535602.1517432,90.89,0.24,-0.1,0.044,-0.018,9.808,0.0,0.0,0.0
1776535602.161776,90.89,0.24,-0.1,0.04,-0.016,9.808,0.0,0.0,0.0
1776535602.1717923,90.89,0.24,-0.1,0.038,-0.017,9.808,0.0,0.0,-0.01
1776535602.1818283,90.9,0.24,-0.1,0.038,-0.034,9.808,0.0,0.0,-0.01
1776535602.191757,90.9,0.24,-0.1,0.046,-0.046,9.808,0.0,-0.01,-0.01
1776535602.201798,90.9,0.24,-0.1,0.057,-0.05,9.808,0.0,0.0,-0.01
1776535602.2120705,90.9,0.24,-0.1,0.065,-0.048,9.809,0.0,-0.01,0.0
1776535602.221741,90.89,0.25,-0.11,0.068,-0.04,9.808,-0.01,-0.01,0.0
1776535602.2319014,90.89,0.25,-0.11,0.068,-0.022,9.808,-0.01,0.0,0.0
1776535602.2417884,90.89,0.24,-0.1,0.059,-0.014,9.808,-0.01,0.0,0.0
1776535602.2517073,90.89,0.24,-0.1,0.051,-0.018,9.808,0.0,0.0,-0.01
1776535602.261855,90.9,0.24,-0.1,0.043,-0.025,9.808,0.0,0.0,-0.01
1776535602.271721,90.9,0.24,-0.1,0.037,-0.041,9.808,0.0,0.0,-0.01
1776535602.281756,90.9,0.24,-0.1,0.046,-0.051,9.808,0.0,0.0,-0.01
1776535602.2917323,90.89,0.25,-0.11,0.054,-0.036,9.808,-0.01,-0.01,0.0
1776535602.3017497,90.89,0.25,-0.11,0.056,-0.023,9.808,-0.01,-0.01,0.0
1776535602.3117168,90.89,0.25,-0.1,0.061,-0.01,9.808,0.0,-0.01,0.0
1776535602.3217719,90.89,0.25,-0.1,0.055,-0.01,9.808,0.0,0.0,-0.01
1776535602.3317227,90.9,0.25,-0.1,0.047,-0.022,9.808,0.0,0.0,-0.01
1776535602.3417006,90.9,0.24,-0.1,0.041,-0.043,9.808,0.0,0.0,-0.01
1776535602.3517356,90.9,0.25,-0.11,0.048,-0.05,9.808,-0.01,0.0,-0.01
1776535602.3617501,90.9,0.25,-0.11,0.048,-0.057,9.808,-0.01,0.0,0.0
1776535602.3716977,90.89,0.25,-0.11,0.054,-0.054,9.808,0.0,-0.01,0.0
1776535602.3817194,90.89,0.25,-0.11,0.057,-0.048,9.808,-0.01,0.0,0.0
1776535602.3917158,90.89,0.25,-0.11,0.051,-0.038,9.808,-0.01,-0.01,0.0
1776535602.401717,90.9,0.25,-0.11,0.048,-0.032,9.809,0.0,0.0,-0.01
1776535602.4119956,90.9,0.25,-0.11,0.041,-0.036,9.808,0.0,0.0,-0.01
1776535602.4217215,90.9,0.24,-0.11,0.04,-0.038,9.808,0.0,0.0,-0.01
1776535602.4317286,90.89,0.24,-0.11,0.051,-0.024,9.808,-0.01,0.0,0.0
1776535602.4417138,90.89,0.25,-0.11,0.05,-0.008,9.808,-0.01,-0.01,0.0
1776535602.4517236,90.89,0.24,-0.1,0.051,0.004,9.809,0.0,-0.01,0.0
1776535602.4617307,90.89,0.25,-0.1,0.049,0.004,9.808,0.0,0.0,0.0
1776535602.4717114,90.9,0.24,-0.1,0.051,-0.01,9.809,-0.01,-0.01,-0.01
1776535602.481713,90.9,0.24,-0.1,0.056,-0.038,9.808,0.0,0.0,-0.01
1776535602.4916801,90.9,0.25,-0.11,0.044,-0.044,9.809,-0.01,0.0,-0.01
1776535602.5017123,90.89,0.24,-0.11,0.046,-0.047,9.808,-0.01,0.0,0.0
1776535602.511713,90.89,0.24,-0.11,0.043,-0.035,9.809,0.0,0.0,0.0
1776535602.5216832,90.89,0.25,-0.11,0.04,-0.025,9.809,0.0,-0.01,0.0
1776535602.531825,90.89,0.24,-0.1,0.038,-0.019,9.808,0.0,-0.01,-0.01
1776535602.5416682,90.89,0.24,-0.1,0.043,-0.019,9.808,0.0,-0.01,-0.01
1776535602.551715,90.9,0.25,-0.11,0.046,-0.024,9.809,-0.01,0.0,-0.01
1776535602.5616996,90.89,0.25,-0.11,0.046,-0.02,9.808,0.0,-0.01,0.0
1776535602.571719,90.89,0.24,-0.1,0.053,-0.008,9.808,0.0,0.0,0.0
1776535602.5819957,90.88,0.24,-0.1,0.049,0.001,9.808,0.0,0.0,0.0
1776535602.5920146,90.88,0.24,-0.1,0.044,0.01,9.808,-0.01,0.0,0.0
1776535602.601674,90.88,0.24,-0.1,0.042,0.004,9.808,0.0,0.0,0.0
1776535602.611664,90.89,0.24,-0.1,0.041,-0.01,9.808,-0.01,0.0,-0.01
1776535602.6217124,90.89,0.24,-0.1,0.032,-0.032,9.808,0.0,0.0,-0.01
1776535602.6316776,90.89,0.24,-0.1,0.042,-0.037,9.808,-0.01,0.0,-0.01
1776535602.641689,90.89,0.24,-0.1,0.04,-0.043,9.808,0.0,-0.01,-0.01
1776535602.651664,90.89,0.24,-0.1,0.049,-0.03,9.809,0.0,-0.01,0.0
1776535602.661701,90.89,0.24,-0.1,0.055,-0.013,9.809,-0.01,0.0,0.0
1776535602.6716752,90.89,0.24,-0.09,0.062,-0.004,9.809,0.0,-0.01,0.0
1776535602.6816494,90.89,0.24,-0.09,0.065,-0.004,9.808,0.0,0.0,-0.01
1776535602.6908565,90.89,0.24,-0.09,0.056,-0.012,9.808,0.0,-0.01,-0.01
1776535602.7016907,90.89,0.24,-0.09,0.065,-0.017,9.808,-0.01,0.0,-0.01
1776535602.7116678,90.89,0.24,-0.09,0.054,-0.022,9.809,-0.01,0.0,0.0
1776535602.7216485,90.88,0.24,-0.09,0.056,-0.016,9.808,0.0,-0.01,0.0
1776535602.7316656,90.88,0.24,-0.09,0.057,-0.011,9.808,0.0,0.0,0.0
1776535602.7419984,90.89,0.24,-0.09,0.053,-0.012,9.809,0.0,-0.01,-0.01
1776535602.7516549,90.89,0.25,-0.09,0.054,-0.018,9.808,-0.01,0.0,-0.01
1776535602.7616527,90.89,0.24,-0.09,0.046,-0.034,9.808,0.0,-0.01,-0.01
1776535602.7708368,90.89,0.24,-0.09,0.049,-0.041,9.808,0.0,-0.01,-0.01
1776535602.7816625,90.88,0.25,-0.1,0.044,-0.041,9.808,0.0,0.0,0.0
1776535602.790857,90.88,0.25,-0.1,0.047,-0.032,9.808,-0.01,0.0,0.0
1776535602.8008022,90.88,0.24,-0.09,0.047,-0.024,9.808,0.0,-0.01,0.0
1776535602.8116276,90.88,0.24,-0.09,0.048,-0.022,9.808,0.0,0.0,0.0
1776535602.8208299,90.89,0.24,-0.09,0.047,-0.024,9.808,-0.01,0.0,-0.01
1776535602.8308265,90.89,0.24,-0.09,0.047,-0.029,9.808,-0.01,0.0,-0.01
1776535602.8407903,90.89,0.25,-0.1,0.043,-0.048,9.808,0.0,-0.01,-0.01
1776535602.8508153,90.89,0.24,-0.1,0.055,-0.049,9.808,0.0,0.0,0.0
1776535602.8607907,90.88,0.24,-0.1,0.06,-0.037,9.808,-0.01,0.0,0.0
1776535602.8716419,90.87,0.25,-0.1,0.065,-0.008,9.808,-0.01,0.0,0.0
1776535602.8808136,90.86,0.25,-0.1,0.055,0.01,9.808,-0.01,0.0,0.0
1776535602.8916354,90.87,0.25,-0.09,0.05,0.017,9.809,0.0,0.0,0.0
1776535602.9008117,90.88,0.25,-0.09,0.041,0.002,9.809,0.0,0.0,-0.01
1776535602.9108272,90.89,0.24,-0.09,0.031,-0.02,9.809,0.0,-0.01,-0.01
1776535602.9216526,90.89,0.24,-0.09,0.026,-0.059,9.808,0.0,0.0,-0.01
1776535602.9308016,90.89,0.24,-0.1,0.028,-0.075,9.808,0.0,-0.01,-0.01
1776535602.9408128,90.88,0.24,-0.1,0.038,-0.072,9.808,0.0,-0.01,0.0
1776535602.9510891,90.88,0.25,-0.11,0.049,-0.056,9.809,0.0,-0.01,0.0
1776535602.960956,90.87,0.25,-0.1,0.065,-0.029,9.808,-0.01,0.0,0.0
1776535602.9708025,90.87,0.25,-0.1,0.071,-0.008,9.808,-0.01,0.0,0.0
1776535602.9809043,90.88,0.25,-0.09,0.072,0.0,9.809,0.0,0.0,-0.01
1776535602.99081,90.88,0.25,-0.09,0.057,-0.011,9.808,-0.01,0.0,-0.01
1776535603.0007913,90.89,0.25,-0.1,0.046,-0.022,9.809,-0.01,0.0,-0.01
1776535603.010917,90.89,0.25,-0.1,0.036,-0.044,9.808,0.0,0.0,-0.01
1776535603.0208201,90.89,0.24,-0.1,0.038,-0.054,9.809,0.0,0.0,0.0
1776535603.0308135,90.88,0.24,-0.1,0.032,-0.047,9.808,0.0,-0.01,0.0
1776535603.0409093,90.88,0.24,-0.1,0.04,-0.029,9.809,-0.01,0.0,0.0
1776535603.0508063,90.88,0.25,-0.1,0.04,-0.018,9.809,0.0,0.0,0.0
1776535603.0609398,90.88,0.24,-0.09,0.037,-0.012,9.808,0.0,-0.01,-0.01
1776535603.0707664,90.88,0.24,-0.09,0.041,-0.016,9.808,0.0,0.0,-0.01
1776535603.08076,90.89,0.24,-0.09,0.046,-0.032,9.809,0.0,-0.01,-0.01
1776535603.090813,90.89,0.25,-0.1,0.053,-0.051,9.809,0.0,-0.01,-0.01
1776535603.100907,90.88,0.25,-0.1,0.067,-0.049,9.808,-0.01,0.0,0.0
1776535603.1109226,90.87,0.25,-0.1,0.079,-0.034,9.808,-0.01,0.0,0.0
1776535603.121202,90.87,0.25,-0.1,0.071,-0.031,9.808,0.0,0.0,0.0
1776535603.1307895,90.87,0.25,-0.1,0.061,-0.018,9.808,0.0,0.0,0.0
1776535603.1407807,90.88,0.25,-0.1,0.044,-0.02,9.809,-0.01,0.0,-0.01
1776535603.1507626,90.88,0.24,-0.1,0.028,-0.032,9.808,0.0,0.0,-0.01
1776535603.160746,90.89,0.24,-0.1,0.018,-0.042,9.808,0.0,0.0,-0.01
1776535603.1709428,90.89,0.24,-0.1,0.023,-0.044,9.809,0.0,-0.01,-0.01
1776535603.1807861,90.88,0.24,-0.1,0.047,-0.032,9.808,-0.01,-0.01,0.0
1776535603.1911368,90.87,0.25,-0.1,0.061,-0.024,9.808,-0.01,-0.01,0.0
1776535603.2007456,90.87,0.25,-0.1,0.069,-0.011,9.808,0.0,-0.01,0.0
1776535603.2110684,90.87,0.25,-0.1,0.073,-0.004,9.808,0.0,0.0,0.0
1776535603.2207582,90.88,0.25,-0.09,0.079,-0.006,9.808,-0.01,0.0,-0.01
1776535603.230751,90.88,0.25,-0.1,0.077,-0.029,9.808,-0.01,0.0,-0.01
1776535603.2407825,90.88,0.25,-0.1,0.067,-0.05,9.808,0.0,0.0,-0.01
1776535603.250799,90.87,0.25,-0.11,0.057,-0.046,9.808,-0.01,0.0,0.0
1776535603.2607152,90.87,0.25,-0.11,0.044,-0.036,9.808,0.0,0.0,0.0
1776535603.2707446,90.87,0.24,-0.1,0.035,-0.037,9.808,0.0,-0.01,0.0
1776535603.2807312,90.87,0.24,-0.1,0.035,-0.019,9.808,0.0,0.0,-0.01
1776535603.2907162,90.88,0.24,-0.1,0.041,-0.018,9.808,-0.01,0.0,-0.01
1776535603.3007457,90.88,0.24,-0.1,0.037,-0.02,9.808,0.0,-0.01,-0.01
1776535603.3110304,90.88,0.25,-0.1,0.046,-0.03,9.808,0.0,0.0,-0.01
1776535603.3210225,90.88,0.25,-0.1,0.044,-0.03,9.808,0.0,-0.01,0.0
1776535603.3307166,90.87,0.25,-0.1,0.06,-0.017,9.808,0.0,-0.01,0.0
1776535603.3407516,90.87,0.25,-0.1,0.068,-0.008,9.808,-0.01,0.0,0.0
1776535603.3507156,90.87,0.25,-0.1,0.065,-0.011,9.808,0.0,-0.01,0.0
1776535603.360711,90.87,0.25,-0.1,0.065,-0.019,9.808,-0.01,0.0,-0.01
1776535603.3707466,90.88,0.25,-0.1,0.057,-0.036,9.808,0.0,0.0,-0.01
1776535603.380761,90.88,0.25,-0.1,0.048,-0.046,9.808,0.0,0.0,-0.01
1776535603.3907206,90.88,0.24,-0.1,0.031,-0.059,9.809,0.0,0.0,-0.01
1776535603.400859,90.87,0.24,-0.1,0.034,-0.053,9.808,0.0,0.0,0.0
1776535603.4107187,90.87,0.24,-0.1,0.032,-0.042,9.809,0.0,0.0,0.0
1776535603.4207323,90.86,0.24,-0.1,0.04,-0.014,9.808,-0.01,0.0,0.0
1776535603.430721,90.86,0.24,-0.1,0.038,-0.008,9.808,-0.01,-0.01,0.0
1776535603.4407232,90.87,0.24,-0.1,0.048,-0.002,9.808,0.0,-0.01,-0.01
1776535603.4507167,90.88,0.25,-0.1,0.05,-0.022,9.809,0.0,0.0,-0.01
1776535603.4607284,90.88,0.25,-0.1,0.05,-0.036,9.808,0.0,-0.01,-0.01
1776535603.4708004,90.88,0.25,-0.11,0.057,-0.042,9.808,0.0,0.0,-0.01
1776535603.4807093,90.88,0.25,-0.11,0.05,-0.044,9.809,0.0,-0.01,0.0
1776535603.4907618,90.87,0.25,-0.11,0.053,-0.032,9.808,0.0,0.0,0.0
1776535603.5006847,90.87,0.25,-0.1,0.053,-0.017,9.808,0.0,0.0,0.0
1776535603.5107353,90.87,0.25,-0.1,0.047,-0.011,9.808,-0.01,0.0,0.0
1776535603.5207093,90.87,0.25,-0.1,0.043,-0.025,9.808,0.0,0.0,-0.01
1776535603.5306802,90.87,0.24,-0.1,0.043,-0.019,9.808,0.0,0.0,-0.01
1776535603.540715,90.87,0.24,-0.1,0.04,-0.023,9.808,-0.01,0.0,-0.01
1776535603.5507286,90.87,0.24,-0.1,0.042,-0.031,9.808,0.0,-0.01,-0.01
1776535603.5606818,90.87,0.24,-0.1,0.042,-0.031,9.808,0.0,0.0,0.0
1776535603.5707276,90.87,0.24,-0.1,0.043,-0.037,9.808,0.0,-0.01,-0.01
1776535603.5808556,90.88,0.24,-0.1,0.051,-0.038,9.809,0.0,0.0,-0.01
1776535603.5907016,90.87,0.25,-0.11,0.06,-0.035,9.808,-0.01,0.0,-0.01
1776535603.600695,90.87,0.25,-0.11,0.067,-0.025,9.808,-0.01,0.0,0.0
1776535603.6106834,90.87,0.25,-0.1,0.068,-0.02,9.809,0.0,0.0,0.0
1776535603.6206622,90.86,0.25,-0.1,0.061,-0.008,9.808,0.0,0.0,0.0
1776535603.6306884,90.87,0.25,-0.1,0.051,-0.005,9.809,0.0,0.0,0.0
1776535603.640669,90.87,0.24,-0.09,0.043,-0.013,9.808,0.0,0.0,-0.01
1776535603.6506827,90.88,0.25,-0.1,0.03,-0.032,9.809,0.0,0.0,-0.01
1776535603.6606655,90.87,0.24,-0.1,0.032,-0.044,9.808,0.0,0.0,-0.01
1776535603.670671,90.87,0.24,-0.1,0.041,-0.048,9.809,-0.01,0.0,0.0
1776535603.6807067,90.86,0.24,-0.1,0.047,-0.026,9.808,-0.01,-0.01,0.0
1776535603.690661,90.86,0.24,-0.1,0.055,-0.012,9.809,0.0,0.0,0.0
1776535603.6998444,90.86,0.25,-0.1,0.059,0.001,9.808,-0.01,0.0,0.0
1776535603.711255,90.86,0.25,-0.1,0.053,-0.008,9.808,-0.01,0.0,-0.01
1776535603.7206497,90.87,0.25,-0.1,0.044,-0.026,9.808,0.0,0.0,-0.01
1776535603.730684,90.87,0.24,-0.1,0.042,-0.038,9.808,0.0,0.0,-0.01
1776535603.7406726,90.87,0.24,-0.1,0.042,-0.049,9.808,0.0,-0.01,-0.01
1776535603.7498622,90.87,0.24,-0.1,0.048,-0.046,9.808,0.0,0.0,0.0
1776535603.7606506,90.86,0.24,-0.1,0.05,-0.03,9.808,0.0,0.0,0.0
1776535603.7698753,90.86,0.24,-0.1,0.05,-0.004,9.808,0.0,-0.01,0.0
1776535603.780657,90.86,0.25,-0.1,0.047,-0.006,9.808,0.0,0.0,0.0
1776535603.7898564,90.87,0.24,-0.1,0.044,-0.018,9.809,0.0,0.0,-0.01
1776535603.7998304,90.87,0.24,-0.1,0.044,-0.02,9.808,-0.01,0.0,-0.01
1776535603.8098388,90.87,0.24,-0.1,0.031,-0.029,9.808,-0.01,-0.01,-0.01
1776535603.820732,90.87,0.24,-0.1,0.038,-0.031,9.809,0.0,-0.01,0.0
1776535603.830208,90.87,0.24,-0.1,0.037,-0.029,9.809,0.0,-0.01,0.0
1776535603.8398209,90.87,0.24,-0.1,0.048,-0.023,9.809,0.0,-0.01,0.0
1776535603.8506677,90.87,0.25,-0.1,0.047,-0.029,9.809,-0.01,0.0,-0.01
1776535603.859843,90.87,0.24,-0.1,0.043,-0.034,9.809,0.0,-0.01,0.0
1776535603.8697994,90.86,0.24,-0.1,0.049,-0.03,9.808,-0.01,0.0,0.0
1776535603.8806581,90.86,0.24,-0.1,0.04,-0.03,9.808,-0.01,-0.01,0.0
1776535603.889844,90.86,0.24,-0.1,0.047,-0.026,9.808,0.0,0.0,0.0
1776535603.8998363,90.86,0.24,-0.1,0.036,-0.019,9.808,-0.01,0.0,0.0
1776535603.9106374,90.86,0.24,-0.1,0.038,-0.008,9.808,0.0,-0.01,-0.01
1776535603.919818,90.87,0.24,-0.09,0.044,-0.014,9.809,0.0,0.0,-0.01
1776535603.929825,90.87,0.24,-0.1,0.046,-0.024,9.808,0.0,-0.01,-0.01
1776535603.939792,90.87,0.24,-0.1,0.06,-0.031,9.808,-0.01,0.0,-0.01
1776535603.94982,90.86,0.24,-0.1,0.06,-0.036,9.808,0.0,0.0,0.0
1776535603.9600646,90.86,0.24,-0.1,0.071,-0.022,9.809,-0.01,0.0,0.0
1776535603.969819,90.85,0.24,-0.1,0.061,-0.014,9.808,0.0,0.0,0.0
1776535603.9797778,90.85,0.24,-0.1,0.051,-0.008,9.808,0.0,0.0,0.0
1776535603.989801,90.86,0.24,-0.1,0.036,-0.016,9.808,-0.01,0.0,-0.01
1776535603.999836,90.87,0.24,-0.1,0.025,-0.032,9.808,0.0,-0.01,-0.01
1776535604.0098035,90.87,0.24,-0.1,0.025,-0.048,9.808,0.0,0.0,-0.01
1776535604.019757,90.87,0.24,-0.11,0.025,-0.065,9.808,0.0,-0.01,-0.01
1776535604.0298128,90.87,0.24,-0.11,0.048,-0.042,9.808,-0.01,0.0,0.0
1776535604.0398204,90.86,0.24,-0.1,0.051,-0.04,9.808,0.0,-0.01,0.0
1776535604.0497868,90.86,0.24,-0.1,0.071,-0.022,9.808,0.0,0.0,0.0
1776535604.0601175,90.86,0.24,-0.1,0.069,-0.011,9.808,-0.01,0.0,0.0
1776535604.0697784,90.86,0.24,-0.1,0.062,-0.006,9.808,-0.01,0.0,-0.01
1776535604.079762,90.86,0.24,-0.1,0.067,-0.011,9.808,0.0,0.0,-0.01
1776535604.0897925,90.87,0.24,-0.1,0.05,-0.031,9.809,0.0,0.0,-0.01
1776535604.0997748,90.87,0.24,-0.1,0.042,-0.041,9.808,0.0,0.0,-0.01
1776535604.109812,90.87,0.24,-0.1,0.032,-0.042,9.809,-0.01,0.0,-0.01
1776535604.1197672,90.86,0.24,-0.1,0.031,-0.046,9.808,0.0,-0.01,0.0
1776535604.1300762,90.86,0.24,-0.11,0.043,-0.035,9.808,0.0,0.0,0.0
1776535604.1397781,90.86,0.24,-0.11,0.048,-0.023,9.809,-0.01,0.0,0.0
1776535604.1497672,90.85,0.24,-0.1,0.053,-0.019,9.808,-0.01,0.0,0.0
1776535604.1597707,90.85,0.24,-0.1,0.061,-0.014,9.808,0.0,0.0,0.0
1776535604.169759,90.85,0.24,-0.1,0.055,-0.013,9.808,-0.01,0.0,0.0
1776535604.1798995,90.85,0.24,-0.1,0.047,-0.018,9.808,-0.01,0.0,-0.01
1776535604.1897957,90.86,0.24,-0.1,0.041,-0.024,9.808,0.0,0.0,-0.01
1776535604.19979,90.86,0.23,-0.1,0.037,-0.048,9.808,0.0,0.0,-0.01
1776535604.2097883,90.86,0.24,-0.11,0.038,-0.059,9.808,0.0,0.0,-0.01
1776535604.2201724,90.86,0.24,-0.11,0.042,-0.056,9.808,0.0,0.0,-0.01
1776535604.2297556,90.86,0.24,-0.11,0.048,-0.041,9.808,0.0,-0.01,-0.01
1776535604.2397695,90.86,0.24,-0.11,0.048,-0.036,9.808,0.0,-0.01,0.0
1776535604.249791,90.86,0.24,-0.1,0.048,-0.025,9.808,0.0,-0.01,0.0
1776535604.2597518,90.86,0.24,-0.1,0.057,-0.013,9.808,0.0,0.0,0.0
1776535604.2697787,90.86,0.24,-0.1,0.067,-0.006,9.808,-0.01,0.0,0.0
1776535604.279751,90.86,0.24,-0.1,0.066,-0.006,9.808,-0.01,0.0,0.0
1776535604.289745,90.86,0.24,-0.1,0.072,-0.01,9.808,0.0,0.0,0.0
1776535604.299771,90.86,0.24,-0.1,0.057,-0.017,9.808,0.0,0.0,-0.01
1776535604.309721,90.86,0.24,-0.1,0.044,-0.031,9.808,0.0,0.0,-0.01
1776535604.3197494,90.86,0.23,-0.1,0.038,-0.048,9.808,0.0,0.0,-0.01
1776535604.3297493,90.86,0.24,-0.11,0.022,-0.059,9.808,0.0,0.0,-0.01
1776535604.3397486,90.86,0.23,-0.11,0.03,-0.046,9.808,0.0,0.0,0.0
1776535604.349728,90.86,0.23,-0.1,0.023,-0.038,9.809,0.0,0.0,0.0
1776535604.3597448,90.86,0.23,-0.1,0.035,-0.016,9.809,0.0,-0.01,0.0
1776535604.3697968,90.86,0.24,-0.1,0.048,-0.001,9.808,0.0,-0.01,0.0
1776535604.3797505,90.86,0.24,-0.1,0.051,-0.006,9.808,-0.01,-0.01,-0.01
1776535604.389741,90.87,0.24,-0.1,0.067,-0.022,9.808,-0.01,0.0,-0.01
1776535604.3997295,90.87,0.24,-0.1,0.069,-0.043,9.809,0.0,-0.01,-0.01
1776535604.4097703,90.86,0.24,-0.11,0.083,-0.038,9.808,-0.01,0.0,0.0
1776535604.4197373,90.85,0.25,-0.11,0.074,-0.028,9.808,-0.01,0.0,0.0
1776535604.429734,90.84,0.24,-0.11,0.065,-0.014,9.808,0.0,0.0,0.0
1776535604.4397461,90.84,0.24,-0.11,0.051,-0.005,9.808,0.0,0.0,0.0
1776535604.4497285,90.85,0.23,-0.1,0.03,-0.005,9.808,-0.01,0.0,-0.01
1776535604.459732,90.86,0.23,-0.1,0.02,-0.025,9.808,0.0,0.0,-0.01
1776535604.4697633,90.86,0.23,-0.1,0.011,-0.053,9.808,0.0,-0.01,-0.01
1776535604.4797673,90.86,0.23,-0.1,0.016,-0.051,9.808,0.0,-0.01,-0.01
1776535604.489709,90.86,0.24,-0.11,0.034,-0.042,9.808,-0.01,-0.01,0.0
1776535604.49973,90.86,0.24,-0.11,0.049,-0.023,9.809,0.0,-0.01,0.0
1776535604.5097504,90.85,0.24,-0.1,0.071,-0.018,9.808,0.0,-0.01,0.0
1776535604.519702,90.85,0.24,-0.1,0.084,-0.018,9.808,-0.01,0.0,0.0
1776535604.5297282,90.85,0.24,-0.1,0.089,-0.016,9.808,-0.01,0.0,0.0
1776535604.5397136,90.85,0.24,-0.1,0.075,-0.025,9.808,-0.01,0.0,0.0
1776535604.5496905,90.85,0.24,-0.1,0.062,-0.031,9.808,0.0,0.0,0.0
1776535604.5599089,90.85,0.24,-0.11,0.044,-0.026,9.808,-0.01,0.0,0.0
1776535604.5697167,90.85,0.24,-0.11,0.019,-0.037,9.808,0.0,0.0,-0.01
1776535604.5797057,90.85,0.23,-0.1,0.011,-0.048,9.808,0.0,0.0,-0.01
1776535604.5898242,90.86,0.23,-0.11,0.011,-0.047,9.808,0.0,-0.01,-0.01
1776535604.5997372,90.86,0.23,-0.11,0.019,-0.044,9.808,0.0,-0.01,-0.01
1776535604.6097085,90.86,0.24,-0.11,0.032,-0.037,9.808,0.0,-0.01,-0.01
1776535604.6196942,90.86,0.24,-0.11,0.048,-0.031,9.808,0.0,-0.01,0.0
1776535604.629742,90.86,0.24,-0.1,0.062,-0.022,9.809,0.0,-0.01,0.0
1776535604.6396952,90.85,0.24,-0.1,0.081,-0.013,9.808,-0.01,0.0,0.0
1776535604.6497054,90.85,0.25,-0.11,0.102,-0.011,9.809,-0.01,0.0,0.0
1776535604.6596751,90.84,0.25,-0.11,0.102,-0.013,9.808,-0.01,0.0,0.0
1776535604.6697063,90.84,0.25,-0.11,0.085,-0.022,9.809,-0.01,0.0,0.0
1776535604.6796594,90.84,0.24,-0.1,0.067,-0.035,9.809,0.0,0.0,0.0
1776535604.6897082,90.84,0.24,-0.11,0.041,-0.038,9.808,0.0,0.0,-0.01
1776535604.6997705,90.84,0.23,-0.11,0.018,-0.048,9.808,0.0,0.0,-0.01
1776535604.7096577,90.85,0.23,-0.11,0.0,-0.054,9.808,0.0,0.0,-0.01
1776535604.7197008,90.85,0.23,-0.11,-0.005,-0.051,9.808,0.0,-0.01,-0.01
1776535604.7296925,90.85,0.23,-0.11,0.007,-0.034,9.808,0.0,-0.01,-0.01
1776535604.739683,90.85,0.24,-0.11,0.031,-0.016,9.808,0.0,-0.01,0.0
1776535604.7489896,90.85,0.24,-0.1,0.055,-0.001,9.808,0.0,-0.01,0.0
1776535604.7596667,90.85,0.25,-0.1,0.078,0.0,9.808,0.0,-0.01,-0.01
1776535604.769731,90.86,0.25,-0.1,0.087,-0.005,9.809,-0.01,-0.01,-0.01
1776535604.7796652,90.86,0.25,-0.1,0.102,-0.023,9.809,-0.01,0.0,-0.01
1776535604.7908835,90.85,0.25,-0.1,0.097,-0.042,9.808,-0.01,0.0,0.0
1776535604.8068776,90.84,0.25,-0.11,0.083,-0.042,9.808,-0.01,0.0,0.0
1776535604.8096473,90.84,0.25,-0.11,0.056,-0.037,9.808,0.0,0.0,0.0
1776535604.8188226,90.84,0.24,-0.11,0.031,-0.029,9.808,0.0,0.0,0.0
1776535604.8296616,90.84,0.24,-0.11,0.011,-0.028,9.808,0.0,0.0,-0.01
1776535604.8388484,90.85,0.23,-0.1,-0.004,-0.034,9.808,0.0,0.0,-0.01
1776535604.8488514,90.86,0.23,-0.1,-0.006,-0.043,9.808,0.0,-0.01,-0.01
1776535604.8588207,90.86,0.23,-0.1,0.004,-0.042,9.808,0.0,-0.01,-0.01
1776535604.868838,90.86,0.24,-0.11,0.022,-0.03,9.808,0.0,-0.01,-0.01
1776535604.8788624,90.85,0.24,-0.1,0.048,-0.026,9.808,0.0,-0.01,0.0
1776535604.8888226,90.85,0.25,-0.11,0.078,-0.011,9.808,0.0,-0.01,0.0
1776535604.8988018,90.85,0.25,-0.1,0.096,-0.011,9.809,-0.01,0.0,0.0
1776535604.9088502,90.84,0.25,-0.1,0.103,-0.014,9.808,-0.01,0.0,0.0
1776535604.9188411,90.84,0.25,-0.1,0.095,-0.031,9.808,-0.01,0.0,0.0
1776535604.9296854,90.84,0.25,-0.11,0.077,-0.032,9.808,0.0,0.0,0.0
1776535604.938826,90.85,0.25,-0.11,0.046,-0.042,9.809,-0.01,0.0,-0.01
1776535604.9488165,90.85,0.24,-0.11,0.016,-0.05,9.809,0.0,0.0,-0.01
1776535604.9588218,90.85,0.23,-0.11,-0.001,-0.049,9.808,0.0,0.0,-0.01
1776535604.9688182,90.85,0.23,-0.11,-0.006,-0.042,9.808,0.0,-0.01,-0.01
1776535604.9787898,90.85,0.24,-0.11,-0.002,-0.029,9.808,0.0,-0.01,-0.01
1776535604.988811,90.85,0.24,-0.11,0.014,-0.025,9.808,0.0,-0.01,-0.01
1776535604.9988425,90.85,0.24,-0.11,0.031,-0.019,9.808,0.0,-0.01,-0.01
1776535605.0088573,90.85,0.24,-0.1,0.061,-0.014,9.808,-0.01,-0.01,0.0
1776535605.0188522,90.85,0.25,-0.11,0.068,-0.017,9.808,-0.01,-0.01,0.0
1776535605.0288014,90.85,0.25,-0.11,0.084,-0.016,9.808,-0.01,0.0,0.0
1776535605.0387769,90.85,0.25,-0.11,0.08,-0.024,9.808,-0.01,0.0,0.0
1776535605.048802,90.85,0.25,-0.11,0.073,-0.036,9.808,-0.01,0.0,0.0
1776535605.0587711,90.85,0.25,-0.11,0.051,-0.05,9.808,0.0,0.0,-0.01
1776535605.0688136,90.85,0.24,-0.11,0.03,-0.055,9.808,0.0,0.0,-0.01
1776535605.0787604,90.86,0.24,-0.12,0.018,-0.05,9.809,0.0,0.0,-0.01
1776535605.088769,90.86,0.23,-0.11,0.007,-0.044,9.809,0.0,0.0,-0.01
1776535605.0994086,90.85,0.23,-0.11,0.017,-0.031,9.808,0.0,-0.01,0.0
1776535605.108841,90.85,0.24,-0.11,0.028,-0.013,9.808,-0.01,0.0,0.0
1776535605.1187208,90.85,0.24,-0.11,0.041,-0.004,9.808,0.0,-0.01,0.0
1776535605.128887,90.85,0.24,-0.1,0.059,-0.006,9.809,0.0,-0.01,0.0
1776535605.1387913,90.85,0.25,-0.11,0.073,-0.012,9.808,-0.01,0.0,-0.01
1776535605.148784,90.85,0.25,-0.11,0.08,-0.025,9.808,-0.01,-0.01,-0.01
1776535605.159009,90.85,0.25,-0.11,0.083,-0.051,9.808,-0.01,0.0,-0.01
1776535605.1687872,90.85,0.25,-0.12,0.068,-0.053,9.809,0.0,0.0,0.0
1776535605.178772,90.84,0.25,-0.12,0.059,-0.051,9.808,-0.01,0.0,0.0
1776535605.1889093,90.84,0.24,-0.11,0.04,-0.049,9.808,0.0,0.0,0.0
1776535605.1987832,90.84,0.24,-0.12,0.029,-0.032,9.808,0.0,0.0,0.0
1776535605.2087836,90.85,0.24,-0.11,0.01,-0.018,9.809,0.0,0.0,-0.01
1776535605.2187412,90.85,0.24,-0.11,0.017,-0.004,9.808,0.0,-0.01,-0.01
1776535605.228819,90.85,0.24,-0.11,0.028,-0.012,9.808,0.0,-0.01,-0.01
1776535605.2387607,90.85,0.24,-0.11,0.041,-0.024,9.808,0.0,-0.01,-0.01
1776535605.2487574,90.85,0.24,-0.11,0.068,-0.016,9.808,-0.01,-0.01,0.0
1776535605.2587523,90.85,0.25,-0.11,0.081,-0.016,9.809,-0.01,-0.01,0.0
1776535605.2687368,90.84,0.25,-0.11,0.091,-0.013,9.808,0.0,-0.01,0.0
1776535605.2787385,90.84,0.25,-0.11,0.086,-0.019,9.808,-0.01,0.0,0.0
1776535605.2887244,90.85,0.25,-0.11,0.067,-0.026,9.808,-0.01,0.0,-0.01
1776535605.2987225,90.86,0.25,-0.11,0.054,-0.047,9.809,0.0,0.0,-0.01
1776535605.3087978,90.86,0.24,-0.11,0.036,-0.051,9.809,0.0,0.0,-0.01
1776535605.318723,90.85,0.24,-0.11,0.032,-0.055,9.808,0.0,0.0,0.0
1776535605.328761,90.84,0.24,-0.11,0.035,-0.032,9.808,0.0,0.0,0.0
1776535605.3387191,90.84,0.25,-0.11,0.04,-0.001,9.809,0.0,-0.01,0.0
1776535605.3487203,90.83,0.24,-0.1,0.047,0.017,9.808,0.0,-0.01,0.0
1776535605.3587193,90.84,0.25,-0.1,0.048,0.023,9.808,0.0,0.0,-0.01
1776535605.3687224,90.85,0.25,-0.1,0.038,0.008,9.808,-0.01,0.0,-0.01
1776535605.3788333,90.86,0.24,-0.1,0.037,-0.022,9.809,-0.01,0.0,-0.01
1776535605.38872,90.86,0.25,-0.11,0.035,-0.053,9.808,-0.01,-0.01,-0.01
1776535605.3988595,90.86,0.24,-0.11,0.042,-0.067,9.809,-0.01,-0.01,-0.01
1776535605.4087274,90.85,0.25,-0.12,0.047,-0.071,9.808,0.0,-0.01,0.0
1776535605.4187367,90.85,0.25,-0.12,0.054,-0.056,9.808,0.0,-0.01,0.0
1776535605.4287295,90.85,0.25,-0.11,0.061,-0.043,9.809,0.0,0.0,0.0
1776535605.438742,90.84,0.25,-0.11,0.071,-0.031,9.808,0.0,0.0,0.0
1776535605.448719,90.84,0.25,-0.11,0.062,-0.022,9.808,-0.01,0.0,0.0
1776535605.4587207,90.84,0.25,-0.11,0.051,-0.023,9.808,0.0,0.0,0.0
1776535605.4687295,90.84,0.24,-0.1,0.046,-0.004,9.808,0.0,0.0,0.0
1776535605.4786959,90.84,0.24,-0.1,0.031,0.0,9.808,0.0,0.0,0.0
1776535605.4887683,90.84,0.24,-0.1,0.028,-0.008,9.808,-0.01,-0.01,-0.01
1776535605.498708,90.84,0.24,-0.1,0.035,-0.025,9.808,0.0,-0.01,-0.01
1776535605.508706,90.85,0.24,-0.11,0.032,-0.042,9.809,-0.01,-0.01,-0.01
1776535605.518691,90.85,0.24,-0.11,0.043,-0.056,9.808,-0.01,0.0,-0.01
1776535605.5291815,90.84,0.25,-0.12,0.053,-0.062,9.808,0.0,-0.01,0.0
1776535605.5387275,90.84,0.25,-0.12,0.067,-0.037,9.808,-0.01,0.0,0.0
1776535605.548706,90.84,0.25,-0.11,0.067,-0.032,9.809,-0.01,-0.01,0.0
1776535605.5587227,90.83,0.25,-0.11,0.073,-0.008,9.808,0.0,0.0,0.0
1776535605.568725,90.84,0.25,-0.11,0.062,0.004,9.808,-0.01,0.0,-0.01
1776535605.5787008,90.84,0.25,-0.11,0.049,-0.002,9.808,0.0,0.0,-0.01
1776535605.588741,90.84,0.25,-0.11,0.05,-0.017,9.808,0.0,0.0,-0.01
1776535605.5987337,90.84,0.25,-0.11,0.044,-0.03,9.808,-0.01,0.0,-0.01
1776535605.6086848,90.84,0.25,-0.11,0.047,-0.04,9.808,0.0,0.0,0.0
1776535605.6187115,90.84,0.25,-0.11,0.04,-0.037,9.809,0.0,0.0,0.0
1776535605.6286933,90.83,0.24,-0.11,0.044,-0.029,9.808,-0.01,-0.01,0.0
1776535605.6386845,90.83,0.24,-0.11,0.043,-0.026,9.808,-0.01,0.0,0.0
1776535605.6488473,90.83,0.25,-0.11,0.054,-0.029,9.808,-0.01,0.0,-0.01
1776535605.6587098,90.83,0.25,-0.11,0.062,-0.032,9.808,0.0,-0.01,-0.01
1776535605.6687245,90.84,0.25,-0.11,0.055,-0.038,9.809,0.0,0.0,-0.01
1776535605.6789703,90.84,0.25,-0.11,0.056,-0.036,9.809,0.0,-0.01,-0.01
1776535605.6886625,90.84,0.25,-0.11,0.055,-0.026,9.809,0.0,0.0,0.0
1776535605.6988852,90.84,0.25,-0.11,0.054,-0.019,9.809,-0.01,-0.01,-0.01
1776535605.7086978,90.84,0.25,-0.11,0.044,-0.023,9.808,0.0,0.0,-0.01
1776535605.7187493,90.84,0.25,-0.11,0.04,-0.026,9.808,-0.01,0.0,-0.01
1776535605.7286508,90.84,0.25,-0.11,0.042,-0.028,9.809,0.0,0.0,-0.01
1776535605.7386434,90.83,0.25,-0.11,0.054,-0.013,9.808,-0.01,0.0,0.0
1776535605.7486339,90.83,0.25,-0.11,0.057,-0.011,9.808,-0.01,-0.01,0.0
1776535605.758675,90.83,0.25,-0.11,0.061,-0.01,9.808,0.0,0.0,0.0
1776535605.7686524,90.83,0.25,-0.11,0.056,-0.02,9.808,0.0,0.0,0.0
1776535605.7777584,90.83,0.25,-0.11,0.054,-0.023,9.808,-0.01,0.0,-0.01
1776535605.7887113,90.84,0.25,-0.11,0.051,-0.038,9.809,0.0,0.0,-0.01
1776535605.798644,90.84,0.25,-0.11,0.042,-0.037,9.809,0.0,0.0,-0.01
1776535605.8077443,90.83,0.25,-0.11,0.037,-0.034,9.808,-0.01,0.0,0.0
1776535605.8186429,90.83,0.25,-0.11,0.048,-0.025,9.808,-0.01,0.0,0.0
1776535605.8286247,90.83,0.25,-0.11,0.042,-0.018,9.808,0.0,-0.01,0.0
1776535605.8377318,90.83,0.25,-0.11,0.059,-0.004,9.809,0.0,0.0,0.0
1776535605.8486385,90.83,0.25,-0.1,0.056,-0.006,9.808,-0.01,-0.01,0.0
1776535605.8577523,90.83,0.25,-0.1,0.06,-0.018,9.808,0.0,-0.01,-0.01
1776535605.8679576,90.83,0.25,-0.1,0.065,-0.028,9.808,0.0,0.0,-0.01
1776535605.8777282,90.83,0.25,-0.11,0.056,-0.031,9.808,-0.01,-0.01,-0.01
1776535605.8877332,90.83,0.25,-0.11,0.056,-0.035,9.808,-0.01,0.0,-0.01
1776535605.897751,90.83,0.25,-0.11,0.051,-0.034,9.808,0.0,0.0,0.0
1776535605.9077375,90.83,0.25,-0.11,0.051,-0.032,9.808,0.0,-0.01,0.0
1776535605.9177265,90.83,0.25,-0.11,0.057,-0.022,9.808,-0.01,0.0,0.0
1776535605.927732,90.83,0.25,-0.1,0.053,-0.018,9.809,0.0,0.0,0.0
1776535605.937762,90.82,0.25,-0.1,0.051,-0.01,9.808,0.0,-0.01,0.0
1776535605.9477332,90.82,0.25,-0.1,0.048,-0.011,9.808,0.0,0.0,0.0
1776535605.9577463,90.82,0.25,-0.1,0.048,-0.014,9.808,-0.01,0.0,-0.01
1776535605.9677286,90.83,0.25,-0.1,0.04,-0.031,9.809,-0.01,0.0,-0.01
1776535605.977751,90.83,0.25,-0.11,0.034,-0.044,9.808,0.0,0.0,-0.01
1776535605.9877822,90.83,0.25,-0.11,0.042,-0.044,9.809,-0.01,0.0,-0.01
1776535605.99778,90.82,0.25,-0.11,0.047,-0.055,9.808,0.0,-0.01,0.0
1776535606.0077708,90.82,0.25,-0.11,0.05,-0.038,9.808,0.0,-0.01,0.0
1776535606.0178967,90.82,0.25,-0.1,0.049,-0.024,9.808,0.0,0.0,0.0
1776535606.027762,90.83,0.25,-0.1,0.046,-0.017,9.809,0.0,-0.01,-0.01
1776535606.0377953,90.83,0.25,-0.1,0.048,-0.028,9.808,0.0,0.0,-0.01
1776535606.0477848,90.83,0.25,-0.1,0.054,-0.023,9.808,0.0,0.0,-0.01
1776535606.057764,90.83,0.25,-0.1,0.049,-0.024,9.808,-0.01,0.0,-0.01
1776535606.067741,90.82,0.25,-0.1,0.061,-0.024,9.808,0.0,0.0,0.0
1776535606.0777698,90.82,0.25,-0.1,0.066,-0.014,9.808,-0.01,0.0,0.0
1776535606.0877311,90.82,0.25,-0.1,0.056,-0.02,9.809,0.0,0.0,0.0
1776535606.0977638,90.82,0.25,-0.1,0.054,-0.022,9.808,-0.01,0.0,0.0
1776535606.107755,90.82,0.25,-0.1,0.04,-0.032,9.808,0.0,0.0,-0.01
1776535606.1187513,90.83,0.25,-0.11,0.038,-0.048,9.808,0.0,-0.01,-0.01
1776535606.1277235,90.83,0.25,-0.11,0.032,-0.061,9.808,0.0,0.0,-0.01
1776535606.1377861,90.83,0.25,-0.11,0.036,-0.05,9.809,0.0,-0.01,0.0
1776535606.1479313,90.82,0.25,-0.11,0.046,-0.038,9.808,0.0,-0.01,0.0
1776535606.1577392,90.82,0.26,-0.11,0.053,-0.025,9.808,0.0,-0.01,0.0
1776535606.1677296,90.82,0.25,-0.1,0.061,-0.007,9.808,-0.01,0.0,0.0
1776535606.17772,90.82,0.25,-0.1,0.061,0.0,9.808,0.0,0.0,-0.01
1776535606.1877105,90.82,0.25,-0.1,0.059,-0.002,9.808,-0.01,0.0,-0.01
1776535606.1977153,90.82,0.25,-0.1,0.05,-0.022,9.808,-0.01,0.0,-0.01
1776535606.207728,90.82,0.25,-0.1,0.049,-0.028,9.808,-0.01,0.0,0.0
1776535606.2177236,90.82,0.25,-0.11,0.049,-0.036,9.808,-0.01,0.0,0.0
1776535606.227715,90.81,0.25,-0.11,0.048,-0.034,9.808,0.0,0.0,0.0
1776535606.2379823,90.81,0.25,-0.1,0.043,-0.034,9.808,0.0,0.0,0.0
1776535606.247736,90.81,0.25,-0.11,0.041,-0.031,9.808,0.0,-0.01,0.0
1776535606.2578282,90.82,0.25,-0.11,0.038,-0.03,9.808,0.0,0.0,-0.01
1776535606.267817,90.82,0.25,-0.11,0.04,-0.035,9.808,0.0,-0.01,-0.01
1776535606.277893,90.82,0.25,-0.11,0.04,-0.038,9.808,0.0,-0.01,-0.01
1776535606.2877636,90.82,0.25,-0.11,0.044,-0.036,9.808,-0.01,0.0,-0.01
1776535606.2977345,90.82,0.25,-0.11,0.057,-0.031,9.808,0.0,-0.01,0.0
1776535606.3079596,90.82,0.26,-0.11,0.069,-0.029,9.809,-0.01,0.0,0.0
1776535606.3177075,90.81,0.26,-0.11,0.078,-0.017,9.808,-0.01,0.0,0.0
1776535606.3276732,90.81,0.26,-0.11,0.072,-0.013,9.808,0.0,0.0,0.0
1776535606.3376975,90.81,0.26,-0.11,0.062,-0.019,9.808,-0.01,0.0,0.0
1776535606.3476844,90.81,0.25,-0.1,0.047,-0.018,9.808,-0.01,0.0,-0.01
1776535606.3576782,90.81,0.25,-0.11,0.035,-0.026,9.808,0.0,0.0,-0.01
1776535606.3677092,90.81,0.25,-0.11,0.022,-0.04,9.808,0.0,0.0,-0.01
1776535606.3780184,90.81,0.25,-0.11,0.023,-0.044,9.808,0.0,-0.01,0.0
1776535606.3877032,90.81,0.25,-0.11,0.025,-0.031,9.808,0.0,-0.01,0.0
1776535606.3977215,90.82,0.25,-0.11,0.04,-0.031,9.809,0.0,-0.01,-0.01
1776535606.4077153,90.82,0.25,-0.1,0.043,-0.036,9.808,0.0,-0.01,-0.01
1776535606.4177008,90.82,0.25,-0.1,0.054,-0.04,9.808,0.0,-0.01,-0.01
1776535606.4277089,90.82,0.25,-0.1,0.068,-0.034,9.808,0.0,0.0,-0.01
1776535606.4377177,90.81,0.25,-0.1,0.065,-0.029,9.808,-0.01,0.0,0.0
1776535606.4477005,90.81,0.25,-0.1,0.069,-0.018,9.808,-0.01,0.0,0.0
1776535606.4577167,90.81,0.25,-0.1,0.06,-0.008,9.808,-0.01,0.0,0.0
1776535606.467691,90.81,0.25,-0.1,0.046,-0.013,9.808,0.0,0.0,0.0
1776535606.4777255,90.82,0.25,-0.1,0.035,-0.022,9.809,0.0,0.0,-0.01
1776535606.4877355,90.82,0.24,-0.1,0.024,-0.04,9.808,0.0,0.0,-0.01
1776535606.497712,90.82,0.24,-0.1,0.023,-0.059,9.808,0.0,0.0,-0.01
1776535606.5077994,90.82,0.25,-0.11,0.035,-0.05,9.809,0.0,0.0,0.0
1776535606.5178492,90.81,0.25,-0.11,0.036,-0.03,9.808,-0.01,-0.01,0.0
1776535606.5277066,90.81,0.25,-0.11,0.042,-0.008,9.808,0.0,-0.01,0.0
1776535606.5378895,90.81,0.25,-0.1,0.05,-0.006,9.808,0.0,-0.01,0.0
1776535606.5477378,90.82,0.25,-0.1,0.062,-0.007,9.809,0.0,-0.01,-0.01
1776535606.5578685,90.82,0.25,-0.1,0.068,-0.016,9.808,-0.01,0.0,-0.01
1776535606.5676866,90.82,0.25,-0.1,0.065,-0.034,9.808,0.0,0.0,-0.01
1776535606.5777419,90.81,0.25,-0.1,0.066,-0.032,9.808,-0.01,0.0,0.0
1776535606.5876968,90.81,0.25,-0.11,0.047,-0.032,9.808,-0.01,0.0,0.0
1776535606.5977402,90.81,0.24,-0.1,0.044,-0.025,9.808,0.0,0.0,0.0
1776535606.6076822,90.81,0.24,-0.1,0.034,-0.03,9.808,0.0,0.0,0.0
1776535606.6176898,90.81,0.24,-0.1,0.032,-0.024,9.808,0.0,-0.01,-0.01
1776535606.6276658,90.81,0.24,-0.1,0.03,-0.026,9.808,-0.01,0.0,-0.01
1776535606.6377275,90.81,0.24,-0.1,0.029,-0.028,9.808,0.0,-0.01,-0.01
1776535606.6476834,90.81,0.24,-0.1,0.041,-0.025,9.808,0.0,-0.01,0.0
1776535606.6576738,90.81,0.25,-0.1,0.056,-0.023,9.808,0.0,-0.01,0.0
1776535606.667701,90.81,0.25,-0.1,0.067,-0.025,9.808,0.0,-0.01,0.0
1776535606.6776717,90.81,0.25,-0.1,0.071,-0.026,9.808,0.0,0.0,0.0
1776535606.6876702,90.81,0.25,-0.1,0.067,-0.031,9.808,-0.01,0.0,-0.01
1776535606.6968615,90.81,0.25,-0.11,0.063,-0.031,9.808,-0.01,0.0,-0.01
1776535606.7076833,90.81,0.25,-0.11,0.051,-0.049,9.808,-0.01,0.0,0.0
1776535606.7176547,90.81,0.25,-0.11,0.047,-0.041,9.809,0.0,0.0,0.0
1776535606.7276926,90.8,0.25,-0.11,0.042,-0.034,9.808,-0.01,0.0,0.0
1776535606.737671,90.8,0.24,-0.1,0.031,-0.025,9.808,0.0,-0.01,0.0
1776535606.7476912,90.8,0.24,-0.1,0.032,-0.017,9.808,0.0,0.0,0.0
1776535606.7580636,90.81,0.24,-0.1,0.031,-0.023,9.809,0.0,-0.01,-0.01
1776535606.7678747,90.81,0.24,-0.1,0.037,-0.026,9.808,-0.01,-0.01,-0.01
1776535606.7777724,90.81,0.24,-0.1,0.042,-0.035,9.808,0.0,-0.01,-0.01
1776535606.7877235,90.81,0.25,-0.11,0.049,-0.04,9.808,0.0,-0.01,-0.01
1776535606.7969553,90.81,0.25,-0.11,0.062,-0.029,9.808,0.0,-0.01,0.0
1776535606.8077483,90.8,0.25,-0.1,0.065,-0.02,9.808,-0.01,0.0,0.0
1776535606.8169293,90.8,0.25,-0.1,0.077,-0.016,9.808,0.0,0.0,0.0
1776535606.8276875,90.8,0.25,-0.1,0.067,-0.013,9.808,-0.01,0.0,0.0
1776535606.837675,90.8,0.25,-0.11,0.067,-0.026,9.808,0.0,0.0,-0.01
1776535606.8476572,90.81,0.25,-0.11,0.055,-0.025,9.809,-0.01,0.0,-0.01
1776535606.856864,90.8,0.25,-0.11,0.04,-0.041,9.808,0.0,-0.01,-0.01
1776535606.866827,90.8,0.25,-0.11,0.036,-0.034,9.808,-0.01,0.0,0.0
1776535606.8778217,90.8,0.25,-0.11,0.028,-0.034,9.808,-0.01,0.0,0.0
1776535606.886866,90.8,0.24,-0.11,0.025,-0.032,9.808,0.0,-0.01,0.0
1776535606.896791,90.8,0.25,-0.11,0.037,-0.031,9.808,-0.01,0.0,-0.01
1776535606.9067783,90.8,0.25,-0.11,0.04,-0.025,9.808,0.0,-0.01,-0.01
1776535606.9168773,90.8,0.25,-0.11,0.047,-0.017,9.808,0.0,0.0,-0.01
1776535606.927098,90.8,0.25,-0.11,0.056,-0.014,9.808,0.0,0.0,-0.01
1776535606.9368298,90.8,0.25,-0.11,0.06,-0.019,9.808,-0.01,0.0,-0.01
1776535606.9467998,90.8,0.25,-0.11,0.06,-0.03,9.808,0.0,0.0,0.0
1776535606.9567976,90.8,0.25,-0.11,0.065,-0.028,9.808,0.0,0.0,0.0
1776535606.9668376,90.8,0.25,-0.11,0.056,-0.03,9.808,-0.01,0.0,0.0
1776535606.9768078,90.8,0.25,-0.11,0.048,-0.031,9.808,0.0,0.0,0.0
1776535606.9867768,90.8,0.24,-0.1,0.034,-0.026,9.808,-0.01,0.0,0.0
1776535606.9968214,90.8,0.24,-0.11,0.02,-0.024,9.808,0.0,-0.01,0.0
1776535607.0068052,90.8,0.24,-0.11,0.026,-0.028,9.808,0.0,0.0,-0.01
1776535607.01676,90.8,0.24,-0.11,0.029,-0.037,9.808,0.0,-0.01,-0.01
1776535607.0277286,90.8,0.24,-0.11,0.042,-0.036,9.808,0.0,-0.01,-0.01
1776535607.0369608,90.8,0.25,-0.11,0.056,-0.034,9.808,-0.01,0.0,0.0
1776535607.046877,90.79,0.25,-0.11,0.066,-0.03,9.808,0.0,-0.01,0.0
1776535607.0568504,90.79,0.25,-0.11,0.074,-0.023,9.808,0.0,0.0,0.0
1776535607.0669918,90.8,0.25,-0.11,0.072,-0.025,9.808,0.0,0.0,0.0
1776535607.0770302,90.8,0.25,-0.11,0.06,-0.019,9.808,0.0,0.0,-0.01
1776535607.0869637,90.8,0.25,-0.11,0.038,-0.035,9.808,0.0,0.0,-0.01
1776535607.0969462,90.8,0.25,-0.11,0.031,-0.036,9.808,0.0,-0.01,-0.01
1776535607.1068017,90.8,0.25,-0.11,0.034,-0.041,9.808,-0.01,0.0,0.0
1776535607.1167898,90.8,0.25,-0.11,0.036,-0.028,9.808,0.0,-0.01,0.0
1776535607.1268075,90.79,0.25,-0.11,0.048,-0.006,9.808,-0.01,0.0,0.0
1776535607.1368067,90.79,0.25,-0.1,0.043,-0.004,9.808,-0.01,-0.01,0.0
1776535607.1467648,90.79,0.25,-0.1,0.057,-0.005,9.808,0.0,0.0,0.0
1776535607.1567874,90.79,0.25,-0.1,0.056,-0.014,9.808,0.0,0.0,-0.01
1776535607.1668036,90.8,0.24,-0.1,0.049,-0.026,9.808,-0.01,0.0,-0.01
1776535607.1767623,90.8,0.24,-0.1,0.049,-0.043,9.808,0.0,0.0,-0.01
1776535607.1868057,90.8,0.25,-0.11,0.041,-0.047,9.808,0.0,0.0,-0.01
1776535607.1967757,90.8,0.25,-0.11,0.046,-0.048,9.809,0.0,-0.01,0.0
1776535607.2067962,90.8,0.25,-0.11,0.046,-0.043,9.809,0.0,0.0,0.0
1776535607.2167826,90.8,0.25,-0.11,0.044,-0.032,9.808,0.0,0.0,0.0
1776535607.2268736,90.8,0.24,-0.1,0.041,-0.022,9.808,0.0,0.0,-0.01
1776535607.2367373,90.8,0.24,-0.1,0.053,-0.018,9.808,0.0,-0.01,-0.01
1776535607.2469141,90.8,0.24,-0.1,0.059,-0.019,9.808,-0.01,0.0,-0.01
1776535607.2567632,90.8,0.25,-0.11,0.06,-0.019,9.808,0.0,-0.01,0.0
1776535607.2667425,90.8,0.25,-0.1,0.066,-0.013,9.808,-0.01,0.0,0.0
1776535607.276968,90.8,0.25,-0.1,0.062,-0.02,9.808,0.0,-0.01,-0.01
1776535607.2869022,90.8,0.25,-0.1,0.059,-0.022,9.808,0.0,-0.01,-0.01
1776535607.2969394,90.8,0.25,-0.11,0.053,-0.025,9.808,0.0,0.0,-0.01
1776535607.3067353,90.8,0.25,-0.11,0.048,-0.031,9.808,0.0,0.0,-0.01
1776535607.3167663,90.8,0.25,-0.11,0.044,-0.036,9.808,0.0,0.0,-0.01
1776535607.3267646,90.8,0.25,-0.11,0.038,-0.036,9.808,0.0,-0.01,0.0
1776535607.3367333,90.8,0.25,-0.11,0.043,-0.029,9.808,-0.01,0.0,0.0
1776535607.3468,90.79,0.25,-0.11,0.056,-0.014,9.808,-0.01,0.0,0.0
1776535607.356724,90.79,0.25,-0.11,0.063,-0.006,9.808,0.0,-0.01,0.0
1776535607.3667288,90.79,0.25,-0.11,0.067,-0.011,9.809,0.0,0.0,0.0
1776535607.376744,90.79,0.25,-0.1,0.059,-0.006,9.808,-0.01,0.0,0.0
1776535607.3867292,90.79,0.25,-0.11,0.049,-0.018,9.808,-0.01,0.0,-0.01
1776535607.396884,90.8,0.25,-0.11,0.038,-0.038,9.809,0.0,0.0,-0.01
1776535607.40673,90.8,0.24,-0.11,0.036,-0.05,9.808,-0.01,-0.01,-0.01
1776535607.4167333,90.8,0.24,-0.11,0.04,-0.056,9.808,0.0,-0.01,-0.01
1776535607.4267375,90.8,0.25,-0.11,0.037,-0.047,9.809,0.0,-0.01,0.0
1776535607.4367328,90.79,0.25,-0.11,0.04,-0.028,9.808,0.0,-0.01,0.0
1776535607.4467468,90.79,0.25,-0.11,0.047,-0.013,9.808,0.0,-0.01,0.0
1776535607.4567027,90.8,0.25,-0.11,0.051,-0.006,9.809,-0.01,-0.01,-0.01
1776535607.4667287,90.79,0.25,-0.11,0.066,-0.008,9.808,-0.01,0.0,-0.01
1776535607.4767346,90.79,0.25,-0.11,0.067,-0.016,9.808,-0.01,0.0,0.0
1776535607.4867215,90.79,0.25,-0.11,0.071,-0.006,9.809,-0.01,0.0,0.0
1776535607.4967308,90.78,0.25,-0.11,0.059,-0.007,9.809,0.0,0.0,0.0
1776535607.5067317,90.78,0.25,-0.11,0.046,-0.01,9.809,0.0,0.0,0.0
1776535607.5167234,90.79,0.25,-0.11,0.032,-0.013,9.808,-0.01,0.0,-0.01
1776535607.5267737,90.79,0.25,-0.11,0.029,-0.034,9.808,0.0,-0.01,-0.01
1776535607.5368407,90.8,0.24,-0.11,0.024,-0.038,9.808,-0.01,-0.01,-0.01
1776535607.54696,90.8,0.25,-0.12,0.022,-0.042,9.809,0.0,-0.01,-0.01
1776535607.557079,90.79,0.25,-0.11,0.029,-0.03,9.808,0.0,-0.01,0.0
1776535607.5670862,90.79,0.25,-0.11,0.037,-0.016,9.808,0.0,-0.01,0.0
1776535607.5767417,90.79,0.25,-0.11,0.061,-0.004,9.808,-0.01,-0.01,0.0
1776535607.5867567,90.79,0.26,-0.11,0.075,0.004,9.809,-0.01,0.0,0.0
1776535607.5967205,90.79,0.26,-0.11,0.073,0.001,9.808,0.0,-0.01,0.0
1776535607.6067197,90.79,0.26,-0.11,0.066,-0.023,9.808,-0.01,0.0,-0.01
1776535607.616696,90.79,0.25,-0.11,0.048,-0.036,9.808,-0.01,0.0,-0.01
1776535607.6266823,90.79,0.25,-0.11,0.034,-0.042,9.808,0.0,0.0,-0.01
1776535607.6367345,90.79,0.25,-0.12,0.022,-0.054,9.808,0.0,0.0,-0.01
1776535607.646704,90.79,0.25,-0.12,0.019,-0.049,9.808,0.0,-0.01,-0.01
1776535607.6566818,90.79,0.25,-0.12,0.024,-0.038,9.808,-0.01,0.0,0.0
1776535607.6666644,90.79,0.25,-0.12,0.036,-0.032,9.808,0.0,-0.01,0.0
1776535607.6766958,90.79,0.25,-0.11,0.049,-0.006,9.808,0.0,-0.01,0.0
1776535607.6866825,90.79,0.25,-0.11,0.061,-0.001,9.808,0.0,-0.01,0.0
1776535607.6966646,90.79,0.25,-0.11,0.077,0.006,9.808,-0.01,0.0,-0.01
1776535607.7066898,90.79,0.26,-0.11,0.073,-0.014,9.808,-0.01,-0.01,-0.01
1776535607.7166643,90.79,0.25,-0.11,0.074,-0.02,9.808,-0.01,0.0,-0.01
1776535607.726699,90.79,0.26,-0.12,0.057,-0.029,9.808,-0.01,0.0,0.0
1776535607.736667,90.79,0.26,-0.12,0.053,-0.036,9.808,0.0,-0.01,0.0
1776535607.7466989,90.79,0.25,-0.11,0.043,-0.041,9.808,0.0,0.0,0.0
1776535607.7566822,90.79,0.25,-0.12,0.026,-0.038,9.808,0.0,-0.01,0.0
1776535607.7669082,90.79,0.25,-0.12,0.017,-0.04,9.808,-0.01,0.0,-0.01
1776535607.7766676,90.79,0.25,-0.12,0.016,-0.035,9.808,0.0,-0.01,-0.01
1776535607.7868247,90.79,0.25,-0.12,0.03,-0.031,9.808,0.0,-0.01,-0.01
1776535607.7966735,90.79,0.25,-0.12,0.038,-0.025,9.808,0.0,-0.01,-0.01
1776535607.8059251,90.79,0.25,-0.11,0.055,-0.022,9.808,0.0,-0.01,0.0
1776535607.815941,90.79,0.26,-0.12,0.077,-0.013,9.808,-0.01,-0.01,0.0
1776535607.8266907,90.79,0.26,-0.12,0.081,-0.02,9.808,-0.01,-0.01,0.0
1776535607.8366723,90.79,0.26,-0.12,0.084,-0.025,9.808,-0.01,0.0,0.0
1776535607.8458643,90.79,0.26,-0.12,0.077,-0.031,9.808,-0.01,0.0,0.0
1776535607.8558266,90.78,0.25,-0.12,0.057,-0.031,9.809,-0.01,0.0,0.0
1776535607.8666675,90.78,0.25,-0.12,0.043,-0.025,9.809,0.0,0.0,0.0
1776535607.875846,90.78,0.25,-0.12,0.03,-0.024,9.809,0.0,0.0,0.0
1776535607.8858657,90.79,0.25,-0.12,0.024,-0.024,9.808,-0.01,-0.01,-0.01
1776535607.8964732,90.79,0.25,-0.12,0.024,-0.026,9.808,0.0,-0.01,-0.01
1776535607.9058409,90.8,0.25,-0.12,0.02,-0.028,9.809,0.0,-0.01,-0.01
1776535607.915887,90.8,0.25,-0.12,0.035,-0.03,9.808,0.0,-0.01,-0.01
1776535607.9258378,90.8,0.25,-0.12,0.054,-0.029,9.809,0.0,-0.01,0.0
1776535607.9358344,90.79,0.26,-0.12,0.063,-0.023,9.808,0.0,-0.01,0.0
1776535607.9458306,90.79,0.26,-0.12,0.084,-0.007,9.808,-0.01,0.0,0.0
1776535607.9558334,90.79,0.26,-0.12,0.079,-0.007,9.808,-0.01,-0.01,0.0
1776535607.9658184,90.79,0.26,-0.12,0.068,-0.005,9.809,-0.01,0.0,0.0
1776535607.975977,90.79,0.26,-0.12,0.055,-0.011,9.809,0.0,0.0,0.0
1776535607.9858603,90.79,0.26,-0.12,0.04,-0.017,9.808,0.0,0.0,-0.01
1776535607.995963,90.79,0.25,-0.12,0.019,-0.029,9.808,-0.01,0.0,-0.01
1776535608.005844,90.79,0.25,-0.12,0.012,-0.038,9.808,0.0,-0.01,-0.01
1776535608.015931,90.79,0.25,-0.12,0.01,-0.038,9.808,0.0,-0.01,-0.01
1776535608.025854,90.79,0.25,-0.12,0.007,-0.037,9.808,0.0,-0.01,-0.01
1776535608.0359619,90.79,0.25,-0.12,0.026,-0.028,9.808,0.0,-0.01,0.0
