timestamp,yaw,pitch,roll,accel_x,accel_y,accel_z,gyro_x,gyro_y,gyro_z
1777319392.2806182,-21.72,-0.02,0.48,-0.018,0.114,9.798,0.0,0.0,0.0
1777319392.2906144,-21.72,-0.02,0.49,-0.016,0.104,9.8,0.0,-0.01,-0.01
1777319392.3006482,-21.7,-0.02,0.49,0.001,0.087,9.803,0.0,-0.01,-0.01
1777319392.3106651,-21.7,-0.02,0.48,0.011,0.096,9.804,-0.01,-0.01,-0.01
1777319392.320583,-21.7,-0.02,0.48,0.019,0.079,9.796,-0.01,0.0,-0.01
1777319392.3306715,-21.71,-0.01,0.48,0.019,0.065,9.796,0.0,0.0,0.0
1777319392.3406997,-21.72,-0.02,0.47,0.01,0.071,9.793,-0.01,-0.01,0.0
1777319392.3506315,-21.72,-0.02,0.47,0.002,0.073,9.797,-0.01,0.0,0.0
1777319392.3605657,-21.72,-0.02,0.47,-0.007,0.069,9.794,0.0,0.0,0.0
1777319392.3705647,-21.72,-0.02,0.47,-0.014,0.075,9.793,-0.01,0.0,-0.01
1777319392.3805687,-21.71,-0.02,0.47,-0.016,0.075,9.798,-0.01,0.0,-0.01
1777319392.3906295,-21.71,-0.02,0.47,-0.013,0.062,9.802,0.0,0.0,-0.01
1777319392.4005682,-21.72,-0.02,0.47,-0.01,0.067,9.798,-0.01,-0.01,0.0
1777319392.410568,-21.72,-0.02,0.47,-0.005,0.085,9.797,-0.01,-0.01,0.0
1777319392.4205666,-21.72,-0.02,0.47,-0.002,0.086,9.798,-0.01,-0.01,0.0
1777319392.4305575,-21.72,-0.02,0.48,0.0,0.111,9.791,-0.01,-0.01,0.0
1777319392.4406195,-21.72,-0.02,0.48,-0.008,0.097,9.793,-0.01,-0.01,-0.01
1777319392.450589,-21.71,-0.02,0.48,-0.002,0.069,9.798,0.0,-0.01,-0.01
1777319392.4605772,-21.7,-0.02,0.47,-0.002,0.068,9.802,-0.01,0.0,-0.01
1777319392.4705472,-21.7,-0.02,0.47,0.0,0.059,9.798,-0.01,0.0,-0.01
1777319392.4805765,-21.71,-0.02,0.47,0.001,0.048,9.793,0.0,0.0,0.0
1777319392.490574,-21.72,-0.02,0.47,-0.004,0.065,9.79,0.0,-0.01,0.0
1777319392.5005655,-21.72,-0.02,0.47,-0.012,0.091,9.793,-0.01,0.0,0.0
1777319392.5105798,-21.72,-0.02,0.47,-0.011,0.105,9.794,0.0,0.0,0.0
1777319392.5205827,-21.72,-0.02,0.48,-0.011,0.115,9.796,-0.01,0.0,0.0
1777319392.530582,-21.71,-0.03,0.48,-0.008,0.11,9.79,-0.01,0.0,-0.01
1777319392.5405996,-21.71,-0.02,0.48,-0.001,0.105,9.793,-0.01,0.0,-0.01
1777319392.5505807,-21.71,-0.02,0.47,0.004,0.092,9.791,-0.01,-0.01,-0.01
1777319392.5605607,-21.71,-0.02,0.47,0.008,0.081,9.79,-0.01,0.0,0.0
1777319392.5705533,-21.72,-0.02,0.47,-0.002,0.068,9.781,-0.01,0.0,0.0
1777319392.5805883,-21.72,-0.02,0.47,-0.002,0.072,9.779,-0.01,0.0,0.0
1777319392.5905912,-21.72,-0.02,0.47,-0.007,0.066,9.784,-0.01,0.0,0.0
1777319392.6005564,-21.72,-0.02,0.47,-0.007,0.077,9.784,0.0,0.0,0.0
1777319392.6105464,-21.72,-0.02,0.47,-0.01,0.074,9.79,0.0,0.0,-0.01
1777319392.620549,-21.72,-0.02,0.47,-0.013,0.079,9.782,0.0,-0.01,-0.01
1777319392.630596,-21.72,-0.02,0.47,-0.006,0.078,9.784,0.0,0.0,-0.01
1777319392.6405942,-21.72,-0.02,0.47,-0.01,0.09,9.79,0.0,-0.01,-0.01
1777319392.6505644,-21.72,-0.02,0.48,-0.002,0.097,9.792,0.0,0.0,0.0
1777319392.6605268,-21.72,-0.02,0.48,0.0,0.099,9.792,0.0,-0.01,0.0
1777319392.6705706,-21.72,-0.02,0.48,-0.004,0.116,9.787,-0.01,0.0,0.0
1777319392.680524,-21.72,-0.02,0.49,-0.01,0.129,9.784,-0.01,-0.01,-0.01
1777319392.6905706,-21.71,-0.03,0.48,-0.002,0.091,9.787,0.0,-0.01,-0.01
1777319392.7005887,-21.7,-0.02,0.48,-0.004,0.079,9.788,-0.01,0.0,-0.01
1777319392.710584,-21.7,-0.02,0.47,0.002,0.06,9.784,-0.01,-0.01,-0.01
1777319392.720557,-21.71,-0.02,0.47,0.004,0.046,9.77,0.0,0.0,0.0
1777319392.730548,-21.72,-0.02,0.47,-0.001,0.042,9.779,0.0,0.0,0.0
1777319392.7405276,-21.72,-0.02,0.47,-0.002,0.066,9.786,-0.01,-0.01,0.0
1777319392.7505598,-21.72,-0.02,0.47,-0.004,0.072,9.792,0.0,0.0,0.0
1777319392.760528,-21.72,-0.02,0.47,-0.006,0.097,9.788,0.0,0.0,0.0
1777319392.7697108,-21.72,-0.02,0.48,-0.008,0.107,9.792,-0.01,0.0,-0.01
1777319392.7796865,-21.71,-0.02,0.48,-0.007,0.085,9.791,0.0,0.0,-0.01
1777319392.7905586,-21.71,-0.02,0.47,-0.005,0.09,9.793,0.0,-0.01,-0.01
1777319392.7996967,-21.72,-0.02,0.48,-0.006,0.086,9.797,-0.01,-0.01,0.0
1777319392.8096895,-21.72,-0.02,0.47,-0.002,0.085,9.797,-0.01,-0.01,0.0
1777319392.8205402,-21.72,-0.02,0.47,-0.01,0.083,9.796,-0.01,0.0,0.0
1777319392.8305464,-21.72,-0.02,0.47,-0.007,0.09,9.797,-0.01,-0.01,0.0
1777319392.8405461,-21.72,-0.02,0.47,-0.01,0.087,9.799,-0.01,0.0,-0.01
1777319392.8505418,-21.72,-0.02,0.47,-0.011,0.063,9.797,0.0,-0.01,-0.01
1777319392.8597078,-21.71,-0.02,0.47,-0.004,0.065,9.793,0.0,0.0,-0.01
1777319392.8705325,-21.71,-0.02,0.47,-0.004,0.075,9.79,-0.01,-0.01,-0.01
1777319392.8797073,-21.71,-0.02,0.47,0.006,0.089,9.775,0.0,0.0,-0.01
1777319392.889693,-21.72,-0.02,0.48,0.007,0.095,9.78,-0.01,-0.01,0.0
1777319392.8996904,-21.72,-0.02,0.48,0.01,0.114,9.787,0.0,-0.01,0.0
1777319392.9105291,-21.72,-0.01,0.48,0.013,0.119,9.788,-0.01,-0.01,0.0
1777319392.9196944,-21.72,-0.01,0.48,0.008,0.116,9.793,-0.01,-0.01,0.0
1777319392.929689,-21.72,-0.02,0.48,0.005,0.101,9.79,-0.01,0.0,-0.01
1777319392.939694,-21.72,-0.02,0.48,0.002,0.096,9.788,-0.01,0.0,-0.01
1777319392.9496894,-21.72,-0.02,0.47,0.006,0.086,9.786,-0.01,0.0,-0.01
1777319392.959674,-21.72,-0.02,0.47,-0.004,0.067,9.792,-0.01,0.0,-0.01
1777319392.9696898,-21.72,-0.02,0.47,-0.006,0.073,9.791,-0.01,0.0,0.0
1777319392.9796724,-21.72,-0.02,0.47,-0.014,0.059,9.796,-0.01,-0.01,0.0
1777319392.989673,-21.72,-0.02,0.47,-0.016,0.061,9.787,0.0,0.0,0.0
1777319392.9996717,-21.72,-0.02,0.47,-0.016,0.078,9.788,0.0,-0.01,0.0
1777319393.0096698,-21.72,-0.02,0.48,-0.007,0.085,9.793,0.0,0.0,-0.01
1777319393.01966,-21.72,-0.02,0.48,0.004,0.097,9.794,0.0,0.0,-0.01
1777319393.0298104,-21.71,-0.02,0.48,0.004,0.111,9.799,-0.01,-0.01,-0.01
1777319393.0398254,-21.71,-0.01,0.49,0.005,0.109,9.792,-0.01,-0.01,-0.01
1777319393.0497942,-21.71,-0.01,0.49,0.019,0.091,9.782,0.0,-0.01,-0.01
1777319393.059649,-21.72,-0.01,0.48,0.018,0.103,9.787,-0.01,0.0,0.0
1777319393.0698512,-21.72,-0.01,0.48,0.01,0.089,9.792,-0.01,-0.01,0.0
1777319393.079706,-21.72,-0.01,0.48,0.012,0.072,9.786,-0.01,0.0,0.0
1777319393.089793,-21.72,-0.02,0.47,-0.005,0.067,9.792,-0.01,0.0,0.0
1777319393.0996737,-21.72,-0.02,0.47,-0.008,0.071,9.79,-0.01,0.0,0.0
1777319393.1096709,-21.72,-0.02,0.47,-0.011,0.054,9.792,0.0,0.0,-0.01
1777319393.119664,-21.72,-0.02,0.47,-0.013,0.062,9.785,0.0,-0.01,0.0
1777319393.1296642,-21.72,-0.02,0.47,-0.014,0.068,9.781,0.0,-0.01,0.0
1777319393.1396616,-21.72,-0.02,0.47,-0.011,0.086,9.787,0.0,-0.01,0.0
1777319393.149861,-21.72,-0.02,0.48,-0.016,0.116,9.786,0.0,0.0,0.0
1777319393.159674,-21.72,-0.02,0.49,-0.016,0.123,9.788,-0.01,-0.01,-0.01
1777319393.1697836,-21.71,-0.02,0.49,-0.005,0.109,9.791,0.0,-0.01,-0.01
1777319393.1798198,-21.7,-0.02,0.49,0.0,0.111,9.793,-0.01,-0.01,-0.01
1777319393.1898105,-21.7,-0.02,0.49,0.008,0.091,9.797,-0.01,-0.01,-0.01
1777319393.1999707,-21.71,-0.01,0.48,0.007,0.069,9.796,-0.01,0.0,-0.01
1777319393.2096636,-21.72,-0.01,0.48,0.007,0.068,9.785,-0.01,-0.01,0.0
1777319393.2196314,-21.72,-0.01,0.48,0.005,0.071,9.788,-0.01,-0.01,0.0
1777319393.2296574,-21.72,-0.01,0.48,0.0,0.078,9.788,0.0,0.0,0.0
1777319393.2396562,-21.72,-0.02,0.48,-0.01,0.086,9.792,0.0,0.0,0.0
1777319393.2496595,-21.72,-0.02,0.48,-0.008,0.081,9.791,0.0,0.0,-0.01
1777319393.2596655,-21.72,-0.02,0.48,-0.006,0.092,9.792,-0.01,0.0,-0.01
1777319393.2698843,-21.72,-0.02,0.48,-0.002,0.085,9.793,-0.01,-0.01,-0.01
1777319393.2796593,-21.72,-0.02,0.48,0.002,0.08,9.794,0.0,-0.01,0.0
1777319393.2897916,-21.72,-0.01,0.48,0.001,0.086,9.797,-0.01,-0.01,0.0
1777319393.2996292,-21.73,-0.01,0.48,0.005,0.11,9.794,-0.01,-0.01,0.0
1777319393.3098142,-21.73,-0.01,0.48,0.004,0.108,9.798,-0.01,-0.01,0.0
1777319393.319684,-21.72,-0.01,0.48,0.002,0.11,9.8,-0.01,0.0,-0.01
1777319393.3296516,-21.72,-0.01,0.49,-0.001,0.114,9.797,-0.01,0.0,-0.01
1777319393.3396416,-21.71,-0.02,0.49,0.004,0.071,9.791,0.0,-0.01,-0.01
1777319393.349639,-21.7,-0.01,0.48,0.013,0.057,9.791,0.0,0.0,-0.01
1777319393.3596933,-21.71,-0.01,0.48,0.005,0.062,9.797,-0.01,-0.01,-0.01
1777319393.3696415,-21.72,-0.01,0.48,0.004,0.057,9.791,0.0,0.0,0.0
1777319393.3796778,-21.72,-0.01,0.48,0.002,0.077,9.792,0.0,0.0,0.0
1777319393.3896742,-21.73,-0.01,0.48,-0.005,0.104,9.796,-0.01,-0.01,0.0
1777319393.3996587,-21.73,-0.01,0.49,-0.006,0.113,9.797,0.0,-0.01,0.0
1777319393.4097779,-21.72,-0.01,0.49,-0.004,0.109,9.799,0.0,0.0,-0.01
1777319393.4196708,-21.72,-0.01,0.49,-0.001,0.111,9.802,-0.01,0.0,-0.01
1777319393.4298341,-21.72,-0.01,0.49,0.0,0.087,9.793,-0.01,0.0,-0.01
1777319393.4398103,-21.72,-0.01,0.48,0.006,0.077,9.794,0.0,0.0,-0.01
1777319393.449808,-21.72,-0.01,0.48,0.002,0.067,9.798,-0.01,0.0,0.0
1777319393.460151,-21.73,-0.01,0.48,0.004,0.075,9.8,-0.01,0.0,0.0
1777319393.469812,-21.73,-0.01,0.48,-0.007,0.074,9.797,0.0,0.0,0.0
1777319393.4796736,-21.72,-0.01,0.48,-0.012,0.086,9.796,-0.01,0.0,0.0
1777319393.4898045,-21.72,-0.02,0.48,-0.013,0.072,9.797,0.0,-0.01,-0.01
1777319393.4996743,-21.71,-0.01,0.48,-0.013,0.073,9.796,0.0,0.0,-0.01
1777319393.5096502,-21.71,-0.02,0.48,-0.001,0.066,9.787,0.0,-0.01,-0.01
1777319393.519672,-21.71,-0.01,0.48,-0.001,0.067,9.786,0.0,0.0,-0.01
1777319393.5296543,-21.72,-0.01,0.48,0.005,0.084,9.791,-0.01,-0.01,0.0
1777319393.5396585,-21.72,-0.01,0.48,-0.001,0.104,9.793,-0.01,-0.01,0.0
1777319393.5496197,-21.73,-0.01,0.49,-0.007,0.102,9.796,-0.01,-0.01,0.0
1777319393.559708,-21.72,-0.01,0.49,-0.004,0.095,9.797,0.0,0.0,0.0
1777319393.569657,-21.72,-0.01,0.48,-0.006,0.104,9.797,-0.01,-0.01,-0.01
1777319393.5796428,-21.71,-0.01,0.49,0.0,0.084,9.796,-0.01,0.0,-0.01
1777319393.589623,-21.71,-0.01,0.48,0.002,0.059,9.793,0.0,0.0,-0.01
1777319393.5997343,-21.72,-0.02,0.47,0.004,0.054,9.792,-0.01,0.0,0.0
1777319393.6096556,-21.72,-0.02,0.47,-0.001,0.051,9.796,-0.01,-0.01,0.0
1777319393.6196275,-21.72,-0.02,0.47,-0.012,0.053,9.793,0.0,0.0,0.0
1777319393.6296258,-21.72,-0.02,0.47,-0.024,0.073,9.798,-0.01,-0.01,0.0
1777319393.6396298,-21.72,-0.01,0.48,-0.02,0.074,9.794,-0.01,-0.01,0.0
1777319393.649608,-21.72,-0.01,0.48,-0.006,0.085,9.781,0.0,-0.01,-0.01
1777319393.659615,-21.72,-0.01,0.48,-0.006,0.096,9.787,-0.01,-0.01,-0.01
1777319393.6696289,-21.72,-0.01,0.48,-0.002,0.091,9.786,-0.01,-0.01,-0.01
1777319393.679619,-21.72,-0.01,0.48,-0.002,0.095,9.78,-0.01,0.0,-0.01
1777319393.6895967,-21.72,-0.01,0.48,0.0,0.097,9.778,-0.01,-0.01,0.0
1777319393.6996653,-21.72,-0.01,0.48,-0.006,0.087,9.779,-0.01,-0.01,0.0
1777319393.7096324,-21.72,-0.01,0.48,-0.006,0.08,9.787,-0.01,0.0,0.0
1777319393.719619,-21.72,-0.02,0.47,-0.01,0.078,9.788,-0.01,0.0,0.0
1777319393.7296166,-21.72,-0.02,0.47,-0.017,0.071,9.781,-0.01,0.0,-0.01
1777319393.7396228,-21.72,-0.02,0.47,-0.013,0.072,9.782,0.0,0.0,-0.01
1777319393.7496128,-21.72,-0.02,0.48,-0.02,0.071,9.787,0.0,-0.01,-0.01
1777319393.759679,-21.72,-0.02,0.48,-0.012,0.062,9.787,0.0,0.0,-0.01
1777319393.7695868,-21.72,-0.02,0.48,-0.019,0.071,9.793,-0.01,-0.01,-0.01
1777319393.7796817,-21.72,-0.02,0.48,-0.006,0.065,9.787,0.0,-0.01,0.0
1777319393.7896223,-21.72,-0.02,0.47,0.001,0.095,9.787,-0.01,-0.01,0.0
1777319393.7996097,-21.73,-0.01,0.48,0.005,0.105,9.793,-0.01,-0.01,0.0
1777319393.8096175,-21.73,-0.01,0.48,0.01,0.113,9.797,-0.01,-0.01,0.0
1777319393.8195972,-21.73,-0.01,0.48,0.007,0.096,9.799,-0.01,0.0,0.0
1777319393.8287692,-21.72,-0.01,0.48,0.006,0.092,9.796,-0.01,0.0,-0.01
1777319393.839633,-21.72,-0.01,0.48,0.0,0.077,9.792,-0.01,0.0,-0.01
1777319393.8496108,-21.72,-0.02,0.47,-0.005,0.059,9.796,-0.01,0.0,-0.01
1777319393.8596022,-21.72,-0.02,0.47,-0.014,0.055,9.794,-0.01,0.0,0.0
1777319393.8696225,-21.73,-0.02,0.47,-0.018,0.054,9.787,0.0,0.0,0.0
1777319393.8796003,-21.73,-0.02,0.47,-0.018,0.054,9.787,0.0,0.0,0.0
1777319393.8887742,-21.73,-0.02,0.47,-0.022,0.079,9.792,0.0,-0.01,0.0
1777319393.898772,-21.73,-0.02,0.47,-0.026,0.089,9.796,-0.01,0.0,-0.01
1777319393.9087903,-21.73,-0.02,0.47,-0.017,0.097,9.791,0.0,-0.01,-0.01
1777319393.9188418,-21.72,-0.02,0.48,-0.019,0.098,9.792,-0.01,-0.01,-0.01
1777319393.928781,-21.72,-0.02,0.48,-0.004,0.077,9.787,0.0,-0.01,-0.01
1777319393.9387648,-21.72,-0.02,0.47,0.004,0.073,9.792,-0.01,0.0,-0.01
1777319393.9487813,-21.72,-0.02,0.47,0.014,0.08,9.787,-0.01,-0.01,-0.01
1777319393.9587584,-21.72,-0.01,0.48,0.017,0.085,9.784,-0.01,0.0,0.0
1777319393.9689622,-21.73,-0.02,0.47,0.016,0.086,9.79,0.0,0.0,0.0
1777319393.9787564,-21.73,-0.02,0.47,0.002,0.097,9.794,-0.01,0.0,0.0
1777319393.9887743,-21.73,-0.02,0.48,-0.004,0.086,9.793,-0.01,0.0,0.0
1777319393.999613,-21.73,-0.02,0.47,-0.006,0.093,9.785,0.0,0.0,-0.01
1777319394.0096202,-21.72,-0.02,0.47,-0.014,0.086,9.791,-0.01,0.0,-0.01
1777319394.0189967,-21.72,-0.03,0.48,-0.013,0.067,9.787,0.0,0.0,-0.01
1777319394.028766,-21.72,-0.02,0.47,-0.013,0.071,9.787,-0.01,0.0,-0.01
1777319394.038812,-21.73,-0.02,0.47,-0.018,0.081,9.792,-0.01,-0.01,0.0
1777319394.048785,-21.73,-0.02,0.47,-0.016,0.079,9.797,-0.01,-0.01,0.0
1777319394.0588071,-21.73,-0.02,0.47,-0.01,0.097,9.8,0.0,-0.01,0.0
1777319394.0687692,-21.73,-0.02,0.48,-0.006,0.096,9.798,-0.01,-0.01,0.0
1777319394.078749,-21.73,-0.02,0.48,0.001,0.097,9.787,0.0,0.0,-0.01
1777319394.088761,-21.73,-0.02,0.47,0.0,0.091,9.788,0.0,0.0,-0.01
1777319394.098767,-21.72,-0.02,0.47,0.002,0.085,9.793,-0.01,0.0,-0.01
1777319394.108772,-21.73,-0.02,0.47,0.002,0.081,9.788,0.0,0.0,-0.01
1777319394.1187744,-21.73,-0.02,0.47,0.001,0.084,9.782,-0.01,0.0,0.0
1777319394.1287408,-21.73,-0.03,0.48,-0.005,0.071,9.788,-0.01,-0.01,0.0
1777319394.1388361,-21.73,-0.03,0.48,-0.008,0.078,9.788,0.0,0.0,-0.01
1777319394.1487815,-21.72,-0.03,0.48,-0.013,0.079,9.785,0.0,-0.01,-0.01
1777319394.1589499,-21.72,-0.03,0.48,-0.013,0.085,9.775,-0.01,-0.01,-0.01
1777319394.168732,-21.72,-0.03,0.48,-0.01,0.089,9.769,-0.01,0.0,-0.01
1777319394.178773,-21.72,-0.03,0.48,-0.008,0.096,9.773,0.0,-0.01,-0.01
1777319394.1887817,-21.72,-0.03,0.48,-0.005,0.095,9.778,-0.01,0.0,0.0
1777319394.198753,-21.73,-0.03,0.48,0.002,0.092,9.781,0.0,-0.01,0.0
1777319394.208757,-21.73,-0.02,0.47,0.001,0.095,9.784,-0.01,0.0,0.0
1777319394.2187347,-21.73,-0.02,0.48,0.002,0.079,9.78,-0.01,-0.01,0.0
1777319394.2287807,-21.72,-0.02,0.48,-0.005,0.068,9.769,0.0,0.0,-0.01
1777319394.2387671,-21.72,-0.03,0.48,-0.004,0.06,9.77,0.0,0.0,-0.01
1777319394.2487411,-21.72,-0.03,0.48,-0.008,0.083,9.78,-0.01,0.0,-0.01
1777319394.2587368,-21.72,-0.03,0.48,-0.008,0.069,9.768,0.0,0.0,-0.01
1777319394.2689312,-21.72,-0.03,0.48,-0.011,0.074,9.756,0.0,0.0,0.0
1777319394.2787564,-21.73,-0.03,0.48,-0.01,0.098,9.766,-0.01,-0.01,0.0
1777319394.2887337,-21.73,-0.03,0.48,-0.008,0.099,9.778,-0.01,-0.01,0.0
1777319394.298821,-21.73,-0.03,0.48,-0.002,0.101,9.776,-0.01,0.0,0.0
1777319394.3087432,-21.73,-0.03,0.48,-0.001,0.098,9.784,-0.01,-0.01,-0.01
1777319394.3187408,-21.72,-0.03,0.48,0.005,0.098,9.784,-0.01,0.0,-0.01
1777319394.328746,-21.72,-0.03,0.48,0.005,0.071,9.791,-0.01,0.0,-0.01
1777319394.338729,-21.72,-0.03,0.48,0.007,0.068,9.788,-0.01,0.0,-0.01
1777319394.348719,-21.73,-0.03,0.48,-0.001,0.055,9.794,-0.01,0.0,0.0
1777319394.3587554,-21.73,-0.03,0.47,-0.006,0.06,9.792,0.0,0.0,0.0
1777319394.3687403,-21.73,-0.03,0.48,-0.017,0.063,9.793,0.0,0.0,0.0
1777319394.3787415,-21.73,-0.03,0.48,-0.02,0.057,9.794,0.0,-0.01,-0.01
1777319394.3887303,-21.72,-0.03,0.48,-0.017,0.065,9.797,0.0,-0.01,-0.01
1777319394.3987577,-21.72,-0.03,0.48,-0.012,0.073,9.8,-0.01,-0.01,-0.01
1777319394.408739,-21.72,-0.03,0.48,0.001,0.08,9.791,0.0,-0.01,-0.01
1777319394.4187315,-21.73,-0.02,0.48,0.008,0.105,9.787,-0.01,-0.01,0.0
1777319394.4287302,-21.74,-0.02,0.48,0.011,0.119,9.794,-0.01,-0.01,0.0
1777319394.4387138,-21.74,-0.02,0.49,0.016,0.12,9.799,-0.01,0.0,0.0
1777319394.4487646,-21.74,-0.02,0.49,0.016,0.125,9.796,-0.01,0.0,0.0
1777319394.4587786,-21.73,-0.02,0.49,0.014,0.132,9.782,-0.01,0.0,-0.01
1777319394.4687557,-21.72,-0.02,0.48,0.001,0.091,9.788,-0.01,0.0,-0.01
1777319394.4787211,-21.72,-0.03,0.48,-0.004,0.069,9.791,-0.01,0.0,-0.01
1777319394.4889712,-21.72,-0.03,0.48,-0.014,0.044,9.793,-0.01,0.0,-0.01
1777319394.498739,-21.72,-0.03,0.47,-0.018,0.035,9.778,-0.01,0.0,0.0
1777319394.5087533,-21.73,-0.03,0.47,-0.028,0.042,9.782,0.0,0.0,0.0
1777319394.5187476,-21.74,-0.03,0.47,-0.034,0.055,9.785,0.0,-0.01,0.0
1777319394.528737,-21.74,-0.03,0.47,-0.026,0.089,9.782,0.0,-0.01,0.0
1777319394.5387533,-21.74,-0.03,0.48,-0.019,0.092,9.79,0.0,-0.01,-0.01
1777319394.5487337,-21.73,-0.03,0.48,-0.008,0.108,9.78,0.0,-0.01,-0.01
1777319394.5587263,-21.73,-0.02,0.48,-0.002,0.109,9.78,0.0,-0.01,-0.01
1777319394.5687418,-21.72,-0.02,0.48,0.002,0.11,9.779,-0.01,-0.01,-0.01
1777319394.5787258,-21.72,-0.02,0.48,0.007,0.102,9.785,0.0,-0.01,-0.01
1777319394.5887256,-21.72,-0.02,0.48,0.007,0.096,9.788,-0.01,0.0,-0.01
1777319394.5987258,-21.72,-0.02,0.48,0.008,0.087,9.79,-0.01,0.0,-0.01
1777319394.6087253,-21.72,-0.02,0.47,0.007,0.075,9.78,0.0,0.0,0.0
1777319394.6187294,-21.73,-0.02,0.47,0.008,0.072,9.781,-0.01,0.0,0.0
1777319394.628729,-21.73,-0.02,0.47,0.0,0.085,9.787,-0.01,-0.01,0.0
1777319394.6387353,-21.73,-0.02,0.47,-0.01,0.085,9.786,0.0,0.0,0.0
1777319394.6487882,-21.73,-0.03,0.48,-0.006,0.091,9.774,0.0,0.0,-0.01
1777319394.6587412,-21.73,-0.03,0.48,-0.011,0.09,9.782,-0.01,0.0,-0.01
1777319394.668858,-21.73,-0.03,0.48,-0.008,0.086,9.784,-0.01,0.0,-0.01
1777319394.6787288,-21.73,-0.03,0.48,-0.004,0.089,9.791,0.0,-0.01,-0.01
1777319394.6887329,-21.73,-0.03,0.48,0.004,0.102,9.788,-0.01,-0.01,0.0
1777319394.6987379,-21.74,-0.03,0.48,0.004,0.099,9.794,-0.01,0.0,0.0
1777319394.708752,-21.74,-0.02,0.48,0.002,0.098,9.793,-0.01,0.0,0.0
1777319394.7187753,-21.74,-0.02,0.48,-0.001,0.092,9.794,-0.01,0.0,0.0
1777319394.7288437,-21.74,-0.03,0.48,0.0,0.089,9.792,-0.01,-0.01,0.0
1777319394.7387094,-21.73,-0.03,0.48,-0.007,0.096,9.787,0.0,0.0,-0.01
1777319394.7486932,-21.72,-0.03,0.48,-0.017,0.078,9.791,0.0,0.0,-0.01
1777319394.7587407,-21.72,-0.03,0.48,-0.011,0.051,9.79,0.0,0.0,-0.01
1777319394.7687373,-21.72,-0.03,0.48,-0.006,0.055,9.79,-0.01,-0.01,-0.01
1777319394.778724,-21.72,-0.03,0.48,0.0,0.053,9.788,0.0,-0.01,-0.01
1777319394.7887073,-21.73,-0.03,0.48,0.001,0.073,9.792,0.0,-0.01,0.0
1777319394.7988174,-21.74,-0.02,0.48,0.0,0.096,9.797,-0.01,-0.01,0.0
1777319394.808697,-21.74,-0.02,0.48,0.0,0.111,9.8,-0.01,-0.01,0.0
1777319394.818679,-21.74,-0.02,0.48,0.0,0.111,9.803,-0.01,-0.01,0.0
1777319394.8287008,-21.73,-0.03,0.48,0.004,0.104,9.797,-0.01,-0.01,-0.01
1777319394.8378644,-21.73,-0.03,0.48,0.0,0.087,9.796,-0.01,0.0,-0.01
1777319394.8487296,-21.73,-0.03,0.48,0.007,0.086,9.791,-0.01,0.0,-0.01
1777319394.8586872,-21.73,-0.03,0.48,0.004,0.074,9.792,-0.01,0.0,-0.01
1777319394.8686724,-21.73,-0.03,0.48,-0.004,0.063,9.792,0.0,0.0,0.0
1777319394.878741,-21.74,-0.03,0.48,-0.018,0.078,9.793,-0.01,0.0,0.0
1777319394.888809,-21.73,-0.03,0.48,-0.026,0.085,9.781,-0.01,0.0,0.0
1777319394.8978367,-21.72,-0.04,0.48,-0.016,0.054,9.77,0.0,-0.01,-0.01
1777319394.9086797,-21.72,-0.03,0.48,-0.006,0.066,9.779,0.0,0.0,-0.01
1777319394.9186964,-21.72,-0.03,0.48,-0.001,0.079,9.786,-0.01,-0.01,-0.01
1777319394.9286797,-21.73,-0.02,0.47,0.008,0.073,9.776,0.0,-0.01,0.0
1777319394.9378638,-21.73,-0.02,0.47,0.008,0.083,9.778,0.0,-0.01,0.0
1777319394.9478526,-21.74,-0.02,0.48,0.012,0.104,9.782,-0.01,-0.01,0.0
1777319394.9578445,-21.74,-0.02,0.48,0.01,0.109,9.782,-0.01,-0.01,0.0
1777319394.9686859,-21.74,-0.02,0.48,0.008,0.107,9.785,0.0,0.0,-0.01
1777319394.9786804,-21.73,-0.02,0.48,0.0,0.105,9.784,-0.01,0.0,-0.01
1777319394.9886792,-21.73,-0.03,0.48,-0.002,0.091,9.779,-0.01,0.0,-0.01
1777319394.9978726,-21.72,-0.03,0.48,0.0,0.08,9.779,-0.01,0.0,-0.01
1777319395.0078704,-21.73,-0.03,0.48,-0.012,0.069,9.786,-0.01,0.0,-0.01
1777319395.017831,-21.73,-0.03,0.48,-0.013,0.055,9.78,-0.01,0.0,0.0
1777319395.0286887,-21.74,-0.03,0.47,-0.018,0.056,9.781,0.0,0.0,0.0
1777319395.0386913,-21.74,-0.03,0.47,-0.026,0.077,9.773,-0.01,-0.01,0.0
1777319395.0486913,-21.74,-0.03,0.48,-0.024,0.092,9.767,-0.01,-0.01,0.0
1777319395.057832,-21.73,-0.03,0.48,-0.025,0.086,9.768,0.0,-0.01,-0.01
1777319395.0678322,-21.72,-0.03,0.48,-0.013,0.095,9.779,0.0,-0.01,-0.01
1777319395.0778246,-21.72,-0.03,0.48,0.0,0.092,9.787,-0.01,-0.01,-0.01
1777319395.0886822,-21.72,-0.03,0.48,0.017,0.079,9.768,0.0,-0.01,-0.01
1777319395.0978367,-21.73,-0.02,0.48,0.018,0.078,9.772,0.0,0.0,0.0
1777319395.1078327,-21.74,-0.02,0.48,0.017,0.102,9.781,-0.01,-0.01,0.0
1777319395.1178324,-21.74,-0.03,0.48,0.008,0.113,9.784,-0.01,0.0,0.0
1777319395.1278472,-21.74,-0.03,0.48,-0.002,0.103,9.785,-0.01,0.0,0.0
1777319395.1378489,-21.74,-0.03,0.48,-0.01,0.108,9.782,-0.01,0.0,-0.01
1777319395.1478498,-21.73,-0.04,0.48,-0.014,0.091,9.788,-0.01,0.0,-0.01
1777319395.1578336,-21.72,-0.04,0.48,-0.016,0.053,9.784,0.0,0.0,-0.01
1777319395.1678371,-21.73,-0.03,0.47,-0.019,0.035,9.787,-0.01,0.0,-0.01
1777319395.177837,-21.74,-0.03,0.47,-0.018,0.053,9.792,-0.01,-0.01,0.0
1777319395.1878636,-21.74,-0.03,0.47,-0.017,0.056,9.79,-0.01,-0.01,0.0
1777319395.1978452,-21.74,-0.03,0.47,-0.013,0.075,9.792,0.0,-0.01,0.0
1777319395.207826,-21.74,-0.03,0.48,-0.007,0.097,9.792,0.0,-0.01,0.0
1777319395.2178385,-21.74,-0.03,0.48,0.002,0.099,9.782,0.0,-0.01,-0.01
1777319395.2278101,-21.74,-0.03,0.48,0.01,0.114,9.785,0.0,-0.01,-0.01
1777319395.237795,-21.73,-0.03,0.48,0.019,0.107,9.779,0.0,0.0,-0.01
1777319395.2478156,-21.73,-0.03,0.48,0.014,0.101,9.781,-0.01,0.0,-0.01
1777319395.2578287,-21.73,-0.03,0.48,0.013,0.085,9.784,-0.01,-0.01,0.0
1777319395.2678344,-21.74,-0.03,0.48,0.001,0.083,9.78,-0.01,0.0,0.0
1777319395.2778273,-21.74,-0.03,0.48,-0.005,0.071,9.78,-0.01,0.0,0.0
1777319395.2878304,-21.74,-0.03,0.48,-0.016,0.085,9.78,-0.01,0.0,0.0
1777319395.2978327,-21.74,-0.03,0.48,-0.013,0.079,9.785,0.0,-0.01,-0.01
1777319395.307817,-21.73,-0.03,0.48,-0.012,0.085,9.791,0.0,-0.01,-0.01
1777319395.3178158,-21.73,-0.03,0.48,-0.011,0.079,9.786,-0.01,0.0,-0.01
1777319395.327781,-21.73,-0.03,0.48,0.0,0.075,9.785,0.0,0.0,-0.01
1777319395.3377888,-21.74,-0.03,0.48,0.006,0.083,9.786,0.0,-0.01,0.0
1777319395.34778,-21.74,-0.03,0.48,0.006,0.105,9.79,-0.01,-0.01,0.0
1777319395.3578193,-21.74,-0.03,0.48,0.004,0.115,9.793,-0.01,0.0,0.0
1777319395.3677855,-21.74,-0.03,0.48,0.01,0.113,9.79,0.0,0.0,0.0
1777319395.3778105,-21.74,-0.03,0.48,-0.001,0.108,9.793,-0.01,0.0,-0.01
1777319395.387805,-21.73,-0.03,0.48,-0.002,0.099,9.794,-0.01,0.0,-0.01
1777319395.397787,-21.73,-0.03,0.49,-0.016,0.072,9.786,-0.01,0.0,-0.01
1777319395.4078043,-21.73,-0.03,0.48,-0.012,0.06,9.782,0.0,0.0,-0.01
1777319395.417854,-21.73,-0.03,0.48,-0.014,0.063,9.786,-0.01,-0.01,-0.01
1777319395.4278157,-21.74,-0.03,0.48,-0.01,0.062,9.778,-0.01,0.0,0.0
1777319395.4378026,-21.74,-0.03,0.48,-0.01,0.068,9.782,-0.01,0.0,0.0
1777319395.4478018,-21.74,-0.03,0.48,-0.005,0.08,9.785,-0.01,-0.01,0.0
1777319395.4578104,-21.74,-0.03,0.48,0.002,0.093,9.792,-0.01,-0.01,0.0
1777319395.4677985,-21.74,-0.03,0.48,0.008,0.092,9.797,0.0,0.0,-0.01
1777319395.4777822,-21.73,-0.03,0.48,0.014,0.101,9.793,-0.01,0.0,-0.01
1777319395.487792,-21.73,-0.03,0.48,0.012,0.085,9.786,-0.01,0.0,-0.01
1777319395.4977849,-21.73,-0.03,0.48,0.01,0.083,9.776,0.0,0.0,-0.01
1777319395.5078304,-21.74,-0.03,0.48,0.004,0.096,9.784,-0.01,0.0,0.0
1777319395.517828,-21.74,-0.03,0.48,-0.001,0.093,9.791,-0.01,0.0,0.0
1777319395.5277977,-21.74,-0.03,0.48,-0.002,0.085,9.778,-0.01,0.0,0.0
1777319395.537816,-21.74,-0.03,0.48,-0.006,0.09,9.782,-0.01,0.0,-0.01
1777319395.5478046,-21.73,-0.03,0.48,-0.005,0.074,9.776,-0.01,-0.01,-0.01
1777319395.5578194,-21.73,-0.03,0.48,-0.006,0.069,9.782,0.0,0.0,-0.01
1777319395.567824,-21.73,-0.03,0.47,-0.002,0.062,9.79,0.0,-0.01,-0.01
1777319395.577808,-21.73,-0.03,0.48,-0.008,0.084,9.794,-0.01,0.0,-0.01
1777319395.587808,-21.73,-0.03,0.48,-0.007,0.072,9.79,0.0,-0.01,-0.01
1777319395.5977879,-21.73,-0.03,0.48,-0.005,0.078,9.792,0.0,-0.01,0.0
1777319395.6077986,-21.73,-0.03,0.48,0.0,0.09,9.793,-0.01,-0.01,0.0
1777319395.6177902,-21.73,-0.03,0.48,0.005,0.095,9.79,-0.01,-0.01,0.0
1777319395.6277976,-21.74,-0.02,0.47,0.004,0.089,9.79,-0.01,0.0,0.0
1777319395.6377795,-21.74,-0.03,0.48,0.0,0.087,9.787,-0.01,-0.01,0.0
1777319395.6477923,-21.74,-0.03,0.48,-0.001,0.095,9.79,-0.01,0.0,0.0
1777319395.6577935,-21.74,-0.03,0.48,-0.006,0.079,9.796,-0.01,0.0,-0.01
1777319395.6677952,-21.74,-0.03,0.48,-0.005,0.066,9.799,-0.01,0.0,-0.01
1777319395.677797,-21.74,-0.03,0.47,-0.011,0.062,9.802,-0.01,0.0,0.0
1777319395.6878011,-21.74,-0.03,0.47,-0.016,0.059,9.802,-0.01,0.0,0.0
1777319395.697764,-21.74,-0.03,0.47,-0.013,0.065,9.803,0.0,0.0,0.0
1777319395.707798,-21.74,-0.03,0.47,-0.014,0.078,9.804,0.0,-0.01,0.0
1777319395.7178102,-21.74,-0.03,0.47,-0.013,0.084,9.805,-0.01,-0.01,0.0
1777319395.727803,-21.74,-0.03,0.48,-0.011,0.078,9.784,0.0,-0.01,-0.01
1777319395.7377985,-21.74,-0.03,0.48,-0.011,0.081,9.784,0.0,-0.01,-0.01
1777319395.7477872,-21.74,-0.03,0.48,-0.004,0.081,9.788,0.0,-0.01,-0.01
1777319395.7577684,-21.73,-0.03,0.48,-0.01,0.083,9.793,-0.01,0.0,-0.01
1777319395.7677724,-21.73,-0.03,0.48,0.005,0.074,9.785,-0.01,0.0,-0.01
1777319395.7777689,-21.73,-0.03,0.48,0.001,0.078,9.784,-0.01,-0.01,-0.01
1777319395.7877815,-21.73,-0.03,0.48,0.007,0.079,9.784,-0.01,-0.01,0.0
1777319395.797776,-21.74,-0.03,0.48,0.005,0.083,9.787,-0.01,-0.01,0.0
1777319395.8077443,-21.74,-0.03,0.48,0.0,0.087,9.791,-0.01,0.0,0.0
1777319395.8180003,-21.74,-0.03,0.48,-0.002,0.091,9.786,-0.01,0.0,0.0
1777319395.82779,-21.74,-0.03,0.48,-0.002,0.089,9.784,-0.01,0.0,-0.01
1777319395.8377907,-21.74,-0.03,0.48,-0.002,0.086,9.782,-0.01,0.0,-0.01
1777319395.8477905,-21.74,-0.03,0.48,0.005,0.077,9.786,-0.01,-0.01,-0.01
1777319395.8578076,-21.74,-0.02,0.47,0.001,0.073,9.78,-0.01,-0.01,-0.01
1777319395.86781,-21.74,-0.02,0.47,-0.001,0.085,9.779,-0.01,-0.01,0.0
1777319395.8777916,-21.74,-0.02,0.47,-0.006,0.085,9.781,-0.01,0.0,0.0
1777319395.8877754,-21.74,-0.02,0.47,-0.008,0.095,9.786,-0.01,-0.01,0.0
1777319395.8977878,-21.74,-0.02,0.47,-0.004,0.09,9.781,-0.01,-0.01,-0.01
1777319395.907778,-21.74,-0.03,0.48,0.0,0.083,9.78,0.0,-0.01,-0.01
1777319395.9177482,-21.74,-0.02,0.47,0.0,0.079,9.778,0.0,0.0,-0.01
1777319395.9277859,-21.74,-0.02,0.47,-0.004,0.081,9.778,-0.01,-0.01,-0.01
1777319395.9377885,-21.74,-0.02,0.47,0.0,0.073,9.779,-0.01,0.0,-0.01
1777319395.9477482,-21.74,-0.02,0.47,-0.001,0.073,9.786,-0.01,-0.01,0.0
1777319395.9577317,-21.74,-0.02,0.47,-0.002,0.075,9.791,-0.01,0.0,0.0
1777319395.9677653,-21.74,-0.02,0.47,0.0,0.073,9.796,0.0,-0.01,0.0
1777319395.977753,-21.74,-0.02,0.47,-0.002,0.086,9.792,0.0,0.0,-0.01
1777319395.9877524,-21.74,-0.02,0.47,-0.005,0.083,9.797,-0.01,0.0,-0.01
1777319395.9977515,-21.74,-0.03,0.47,-0.008,0.075,9.79,0.0,0.0,-0.01
1777319396.006979,-21.74,-0.02,0.47,-0.004,0.083,9.788,-0.01,0.0,0.0
1777319396.016911,-21.74,-0.03,0.47,-0.005,0.083,9.791,-0.01,-0.01,0.0
1777319396.0277607,-21.74,-0.03,0.47,0.0,0.089,9.784,-0.01,0.0,0.0
1777319396.0377593,-21.74,-0.02,0.47,-0.007,0.097,9.785,-0.01,-0.01,0.0
1777319396.0477726,-21.74,-0.03,0.48,-0.006,0.099,9.781,-0.01,-0.01,-0.01
1777319396.0577736,-21.73,-0.03,0.48,-0.006,0.066,9.784,0.0,-0.01,-0.01
1777319396.0677578,-21.73,-0.02,0.47,-0.002,0.078,9.79,-0.01,0.0,-0.01
1777319396.0777867,-21.73,-0.02,0.47,-0.004,0.075,9.787,-0.01,-0.01,-0.01
1777319396.0877547,-21.74,-0.02,0.47,0.002,0.079,9.78,0.0,0.0,0.0
1777319396.0969424,-21.74,-0.02,0.47,-0.002,0.092,9.786,-0.01,-0.01,0.0
1777319396.1070108,-21.74,-0.02,0.47,-0.001,0.113,9.788,-0.01,-0.01,0.0
1777319396.1177623,-21.74,-0.02,0.48,0.0,0.117,9.785,0.0,0.0,0.0
1777319396.1277623,-21.74,-0.02,0.47,-0.006,0.11,9.787,-0.01,-0.01,-0.01
1777319396.1378002,-21.74,-0.03,0.48,-0.002,0.093,9.793,-0.01,0.0,-0.01
1777319396.1478007,-21.74,-0.02,0.47,0.001,0.089,9.784,-0.01,0.0,-0.01
1777319396.157769,-21.74,-0.02,0.47,-0.001,0.074,9.787,-0.01,-0.01,-0.01
1777319396.1678562,-21.74,-0.02,0.47,-0.011,0.077,9.791,-0.01,-0.01,0.0
1777319396.176926,-21.74,-0.03,0.48,-0.023,0.067,9.79,0.0,0.0,0.0
1777319396.1869206,-21.74,-0.03,0.47,-0.022,0.063,9.792,0.0,0.0,-0.01
1777319396.197327,-21.73,-0.03,0.47,-0.022,0.066,9.794,-0.01,-0.01,-0.01
1777319396.2073295,-21.73,-0.03,0.47,-0.01,0.065,9.787,0.0,-0.01,-0.01
1777319396.2169886,-21.73,-0.03,0.48,-0.006,0.079,9.792,0.0,-0.01,-0.01
1777319396.2270038,-21.73,-0.02,0.47,0.005,0.085,9.792,0.0,-0.01,-0.01
1777319396.2369063,-21.73,-0.02,0.47,0.01,0.098,9.793,-0.01,0.0,0.0
1777319396.246925,-21.74,-0.02,0.47,0.014,0.099,9.797,-0.01,-0.01,0.0
1777319396.2569163,-21.74,-0.02,0.47,0.012,0.12,9.793,0.0,0.0,0.0
1777319396.2669644,-21.74,-0.02,0.48,0.012,0.11,9.797,-0.01,0.0,0.0
1777319396.2769225,-21.73,-0.02,0.48,0.012,0.115,9.786,-0.01,0.0,-0.01
1777319396.2869217,-21.73,-0.02,0.47,0.0,0.102,9.792,-0.01,0.0,-0.01
1777319396.2969048,-21.72,-0.03,0.48,-0.002,0.093,9.79,-0.01,0.0,-0.01
1777319396.3068879,-21.72,-0.03,0.48,0.0,0.068,9.784,-0.01,0.0,-0.01
1777319396.3169293,-21.72,-0.02,0.47,-0.005,0.049,9.79,-0.01,0.0,-0.01
1777319396.3269181,-21.73,-0.03,0.46,-0.011,0.042,9.786,-0.01,-0.01,0.0
1777319396.3368793,-21.74,-0.03,0.46,-0.007,0.035,9.785,0.0,-0.01,0.0
1777319396.346882,-21.74,-0.03,0.46,-0.01,0.047,9.786,0.0,-0.01,0.0
1777319396.3568714,-21.74,-0.02,0.47,-0.008,0.068,9.79,0.0,-0.01,0.0
1777319396.3669276,-21.74,-0.02,0.47,0.0,0.08,9.793,0.0,-0.01,0.0
1777319396.376894,-21.74,-0.02,0.47,0.008,0.093,9.793,0.0,-0.01,-0.01
1777319396.3869233,-21.74,-0.02,0.47,0.012,0.098,9.797,0.0,-0.01,-0.01
1777319396.3968754,-21.74,-0.02,0.47,0.016,0.105,9.799,-0.01,-0.01,0.0
1777319396.4068892,-21.74,-0.02,0.47,0.011,0.109,9.798,-0.01,0.0,-0.01
1777319396.4168665,-21.74,-0.02,0.47,0.001,0.097,9.797,-0.01,0.0,-0.01
1777319396.4268775,-21.74,-0.02,0.47,-0.002,0.09,9.794,-0.01,0.0,-0.01
1777319396.4368513,-21.73,-0.02,0.47,-0.014,0.086,9.793,-0.01,0.0,-0.01
1777319396.446877,-21.73,-0.02,0.47,-0.017,0.059,9.791,-0.01,-0.01,-0.01
1777319396.4568594,-21.73,-0.02,0.47,-0.012,0.047,9.794,0.0,0.0,-0.01
1777319396.4668782,-21.73,-0.02,0.47,-0.011,0.057,9.796,-0.01,-0.01,0.0
1777319396.4768784,-21.73,-0.02,0.47,-0.001,0.066,9.794,0.0,-0.01,0.0
1777319396.4868937,-21.74,-0.02,0.47,-0.001,0.075,9.797,0.0,-0.01,0.0
1777319396.49688,-21.74,-0.02,0.47,0.002,0.101,9.797,-0.01,-0.01,0.0
1777319396.5068822,-21.74,-0.02,0.47,0.006,0.117,9.8,-0.01,0.0,0.0
1777319396.5168705,-21.74,-0.01,0.48,0.008,0.123,9.803,-0.01,0.0,-0.01
1777319396.5268548,-21.73,-0.02,0.48,0.007,0.128,9.791,-0.01,0.0,-0.01
1777319396.5368981,-21.73,-0.02,0.47,0.004,0.104,9.781,-0.01,0.0,-0.01
1777319396.5469048,-21.73,-0.02,0.47,0.0,0.083,9.78,-0.01,0.0,-0.01
1777319396.5568666,-21.73,-0.02,0.47,-0.004,0.075,9.785,-0.01,0.0,0.0
1777319396.5668766,-21.73,-0.02,0.47,-0.006,0.072,9.786,-0.01,0.0,0.0
1777319396.5769024,-21.74,-0.03,0.46,-0.018,0.056,9.787,-0.01,0.0,0.0
1777319396.5868886,-21.73,-0.03,0.46,-0.019,0.049,9.785,0.0,-0.01,0.0
1777319396.5968745,-21.73,-0.03,0.46,-0.028,0.051,9.788,0.0,-0.01,-0.01
1777319396.6068869,-21.73,-0.03,0.46,-0.019,0.044,9.792,0.0,-0.01,-0.01
1777319396.6168878,-21.73,-0.03,0.46,-0.014,0.074,9.792,0.0,-0.01,-0.01
1777319396.626894,-21.73,-0.02,0.47,-0.001,0.086,9.792,0.0,-0.01,-0.01
1777319396.6368558,-21.73,-0.02,0.47,0.011,0.099,9.787,0.0,-0.01,0.0
1777319396.646875,-21.74,-0.02,0.47,0.011,0.123,9.79,-0.01,-0.01,0.0
1777319396.6568706,-21.74,-0.01,0.48,0.013,0.139,9.794,-0.01,-0.01,0.0
1777319396.6670003,-21.74,-0.01,0.48,0.014,0.129,9.792,-0.01,0.0,0.0
1777319396.676878,-21.74,-0.02,0.47,0.007,0.113,9.79,-0.01,0.0,-0.01
1777319396.6868825,-21.73,-0.02,0.47,0.001,0.096,9.787,-0.01,0.0,-0.01
1777319396.696866,-21.73,-0.02,0.47,-0.004,0.057,9.786,-0.01,0.0,-0.01
1777319396.7068841,-21.73,-0.02,0.47,-0.018,0.047,9.788,0.0,0.0,-0.01
1777319396.7168682,-21.73,-0.03,0.46,-0.025,0.051,9.787,-0.01,0.0,0.0
1777319396.7268806,-21.74,-0.03,0.46,-0.023,0.042,9.787,0.0,-0.01,0.0
1777319396.736896,-21.74,-0.03,0.46,-0.024,0.061,9.782,0.0,-0.01,0.0
1777319396.7468781,-21.73,-0.02,0.47,-0.011,0.069,9.788,0.0,-0.01,-0.01
1777319396.7568748,-21.74,-0.02,0.47,0.0,0.083,9.785,0.0,-0.01,-0.01
1777319396.7668934,-21.74,-0.02,0.47,0.0,0.102,9.79,0.0,-0.01,-0.01
1777319396.7768714,-21.74,-0.02,0.47,0.007,0.119,9.79,-0.01,-0.01,0.0
1777319396.786858,-21.74,-0.01,0.48,0.011,0.122,9.788,0.0,0.0,0.0
1777319396.7968817,-21.74,-0.01,0.48,0.013,0.137,9.787,-0.01,-0.01,0.0
1777319396.8068902,-21.74,-0.01,0.48,0.008,0.123,9.788,-0.01,0.0,-0.01
1777319396.816872,-21.73,-0.02,0.47,0.012,0.104,9.785,-0.01,0.0,-0.01
1777319396.8271675,-21.72,-0.02,0.47,-0.006,0.081,9.782,-0.01,0.0,-0.01
1777319396.8368874,-21.72,-0.02,0.47,-0.006,0.043,9.769,-0.01,0.0,-0.01
1777319396.846893,-21.72,-0.02,0.46,-0.014,0.04,9.773,-0.01,0.0,-0.01
1777319396.8568616,-21.73,-0.02,0.46,-0.022,0.037,9.779,-0.01,-0.01,0.0
1777319396.8668737,-21.74,-0.03,0.46,-0.02,0.046,9.775,0.0,-0.01,0.0
1777319396.876867,-21.74,-0.02,0.46,-0.023,0.068,9.781,0.0,-0.01,0.0
1777319396.8868897,-21.74,-0.02,0.47,-0.019,0.093,9.786,0.0,-0.01,0.0
1777319396.8968396,-21.74,-0.02,0.47,-0.005,0.111,9.784,0.0,-0.01,0.0
1777319396.9068537,-21.74,-0.02,0.47,0.002,0.116,9.787,0.0,-0.01,-0.01
1777319396.916905,-21.74,-0.01,0.48,0.008,0.121,9.79,-0.01,0.0,-0.01
1777319396.926845,-21.74,-0.01,0.48,0.006,0.119,9.787,-0.01,0.0,-0.01
1777319396.9368095,-21.74,-0.01,0.48,0.0,0.113,9.785,-0.01,0.0,-0.01
1777319396.946884,-21.74,-0.02,0.47,-0.008,0.109,9.785,-0.01,0.0,0.0
1777319396.9568217,-21.74,-0.02,0.47,-0.016,0.09,9.781,-0.01,0.0,0.0
1777319396.9668317,-21.73,-0.02,0.47,-0.03,0.075,9.776,-0.01,0.0,-0.01
1777319396.9768236,-21.73,-0.03,0.47,-0.031,0.042,9.77,0.0,-0.01,-0.01
1777319396.9868588,-21.72,-0.03,0.46,-0.028,0.043,9.778,0.0,0.0,-0.01
1777319396.996824,-21.72,-0.03,0.47,-0.022,0.038,9.782,-0.01,-0.01,-0.01
1777319397.0068283,-21.73,-0.02,0.47,-0.008,0.05,9.778,0.0,-0.01,0.0
1777319397.0159922,-21.74,-0.02,0.47,0.0,0.083,9.784,0.0,-0.01,0.0
1777319397.0268817,-21.74,-0.02,0.47,0.012,0.121,9.786,-0.01,-0.01,0.0
1777319397.0368443,-21.74,-0.01,0.48,0.013,0.129,9.787,0.0,-0.01,0.0
1777319397.0459929,-21.74,-0.02,0.48,0.012,0.131,9.784,0.0,0.0,0.0
1777319397.0559943,-21.74,-0.02,0.49,0.014,0.135,9.781,-0.01,0.0,-0.01
1777319397.065976,-21.74,-0.02,0.49,0.014,0.119,9.769,-0.01,0.0,-0.01
1777319397.0768323,-21.73,-0.02,0.48,0.004,0.099,9.774,-0.01,0.0,-0.01
1777319397.0868268,-21.73,-0.02,0.47,-0.005,0.085,9.779,-0.01,0.0,-0.01
1777319397.0968437,-21.73,-0.02,0.47,-0.008,0.081,9.778,-0.01,0.0,-0.01
1777319397.106839,-21.74,-0.02,0.47,-0.018,0.057,9.775,-0.01,0.0,0.0
1777319397.1168048,-21.74,-0.03,0.47,-0.025,0.056,9.78,0.0,-0.01,0.0
1777319397.1259673,-21.73,-0.03,0.47,-0.031,0.056,9.78,0.0,-0.01,0.0
1777319397.1368365,-21.73,-0.03,0.47,-0.031,0.043,9.787,0.0,-0.01,-0.01
1777319397.146852,-21.73,-0.02,0.47,-0.018,0.054,9.79,0.0,-0.01,-0.01
1777319397.1568325,-21.73,-0.02,0.47,-0.006,0.084,9.787,0.0,-0.01,-0.01
1777319397.166838,-21.73,-0.02,0.48,0.01,0.093,9.778,0.0,-0.01,0.0
1777319397.1762652,-21.74,-0.01,0.48,0.012,0.123,9.785,0.0,-0.01,0.0
1777319397.1859732,-21.74,-0.02,0.49,0.014,0.141,9.787,-0.01,0.0,0.0
1777319397.1968346,-21.74,-0.02,0.49,0.019,0.147,9.788,-0.01,0.0,0.0
1777319397.2059946,-21.74,-0.02,0.49,0.008,0.135,9.794,-0.01,0.0,-0.01
1777319397.2164068,-21.73,-0.02,0.49,0.001,0.122,9.788,-0.01,0.0,-0.01
1777319397.2285683,-21.73,-0.02,0.48,-0.006,0.084,9.792,-0.01,0.0,-0.01
1777319397.2461388,-21.73,-0.03,0.48,-0.014,0.053,9.796,-0.01,0.0,-0.01
1777319397.2483594,-21.73,-0.03,0.48,-0.023,0.034,9.793,-0.01,0.0,0.0
1777319397.2604125,-21.74,-0.03,0.47,-0.025,0.03,9.782,0.0,0.0,0.0
1777319397.2660227,-21.74,-0.03,0.47,-0.026,0.038,9.779,0.0,-0.01,0.0
1777319397.2760007,-21.74,-0.03,0.47,-0.026,0.067,9.778,0.0,-0.01,0.0
1777319397.3066704,-21.74,-0.03,0.48,-0.02,0.086,9.785,0.0,-0.01,0.0
1777319397.3090112,-21.74,-0.03,0.48,-0.008,0.107,9.79,0.0,-0.01,0.0
1777319397.3112292,-21.74,-0.03,0.48,0.008,0.126,9.786,0.0,-0.01,-0.01
1777319397.3160186,-21.74,-0.02,0.49,0.016,0.12,9.786,-0.01,0.0,0.0
1777319397.3266466,-21.74,-0.02,0.49,0.018,0.139,9.781,-0.01,0.0,-0.01
1777319397.3360097,-21.74,-0.02,0.49,0.016,0.108,9.786,-0.01,0.0,-0.01
1777319397.3460019,-21.73,-0.02,0.48,0.007,0.113,9.787,-0.01,0.0,-0.01
1777319397.3560176,-21.73,-0.03,0.48,-0.004,0.085,9.778,-0.01,0.0,-0.01
1777319397.3660004,-21.72,-0.03,0.48,-0.01,0.054,9.767,0.0,0.0,-0.01
1777319397.3762586,-21.72,-0.02,0.47,-0.016,0.042,9.776,-0.01,0.0,-0.01
1777319397.3860085,-21.73,-0.03,0.47,-0.014,0.043,9.779,-0.01,-0.01,0.0
1777319397.395982,-21.73,-0.02,0.47,-0.014,0.044,9.775,0.0,-0.01,0.0
1777319397.4060116,-21.74,-0.02,0.47,-0.013,0.053,9.781,0.0,-0.01,0.0
1777319397.4160843,-21.74,-0.02,0.47,-0.01,0.074,9.782,0.0,-0.01,0.0
1777319397.4259968,-21.74,-0.02,0.48,-0.001,0.09,9.781,0.0,-0.01,0.0
1777319397.4361658,-21.74,-0.02,0.47,0.0,0.103,9.784,0.0,0.0,-0.01
1777319397.4459414,-21.74,-0.02,0.48,0.005,0.098,9.786,-0.01,0.0,-0.01
1777319397.4568956,-21.74,-0.02,0.48,0.006,0.107,9.784,-0.01,0.0,-0.01
1777319397.4659922,-21.74,-0.02,0.48,0.014,0.11,9.788,-0.01,0.0,-0.01
1777319397.4759815,-21.74,-0.02,0.47,0.01,0.096,9.785,-0.01,0.0,0.0
1777319397.4859796,-21.74,-0.02,0.47,-0.001,0.092,9.784,-0.01,0.0,0.0
1777319397.4960115,-21.74,-0.02,0.47,-0.01,0.087,9.782,-0.01,0.0,0.0
1777319397.5060186,-21.73,-0.03,0.47,-0.014,0.074,9.775,-0.01,-0.01,-0.01
1777319397.5180373,-21.73,-0.03,0.47,-0.022,0.054,9.772,0.0,-0.01,-0.01
1777319397.5276322,-21.72,-0.03,0.47,-0.019,0.029,9.781,0.0,-0.01,-0.01
1777319397.5361295,-21.73,-0.03,0.46,-0.016,0.038,9.788,-0.01,-0.01,-0.01
1777319397.545991,-21.73,-0.02,0.47,-0.004,0.046,9.782,0.0,-0.01,0.0
1777319397.5559654,-21.74,-0.02,0.47,0.008,0.066,9.776,0.0,-0.01,0.0
1777319397.5659847,-21.74,-0.02,0.47,0.014,0.093,9.785,0.0,-0.01,0.0
1777319397.5759537,-21.74,-0.01,0.48,0.013,0.121,9.791,0.0,-0.01,0.0
1777319397.585995,-21.74,-0.01,0.48,0.013,0.123,9.796,0.0,0.0,0.0
1777319397.59902,-21.74,-0.01,0.48,0.012,0.121,9.78,-0.01,0.0,-0.01
1777319397.6059842,-21.74,-0.02,0.48,0.014,0.107,9.764,-0.01,0.0,-0.01
1777319397.6159577,-21.74,-0.02,0.47,0.011,0.091,9.762,-0.01,0.0,-0.01
1777319397.6259568,-21.74,-0.02,0.47,0.005,0.067,9.775,-0.01,0.0,-0.01
1777319397.635921,-21.74,-0.02,0.47,-0.002,0.067,9.782,-0.01,0.0,0.0
1777319397.6459343,-21.74,-0.02,0.47,-0.01,0.054,9.781,-0.01,-0.01,0.0
1777319397.655931,-21.74,-0.02,0.47,-0.018,0.059,9.766,-0.01,-0.01,0.0
1777319397.6659791,-21.74,-0.02,0.47,-0.022,0.074,9.775,0.0,-0.01,0.0
1777319397.6785266,-21.73,-0.02,0.47,-0.022,0.06,9.782,0.0,-0.01,-0.01
1777319397.6859875,-21.73,-0.02,0.47,-0.012,0.067,9.786,0.0,-0.01,-0.01
1777319397.695961,-21.73,-0.02,0.47,-0.001,0.081,9.791,0.0,-0.01,-0.01
1777319397.7059586,-21.73,-0.02,0.47,0.007,0.083,9.782,-0.01,-0.01,-0.01
1777319397.716839,-21.74,-0.02,0.47,0.008,0.086,9.786,0.0,0.0,0.0
1777319397.7259321,-21.74,-0.02,0.47,0.012,0.105,9.79,-0.01,-0.01,0.0
1777319397.7359598,-21.74,-0.02,0.47,0.008,0.14,9.793,-0.01,0.0,0.0
1777319397.7459333,-21.74,-0.02,0.48,0.001,0.122,9.797,-0.01,0.0,0.0
1777319397.7559354,-21.73,-0.02,0.47,0.0,0.11,9.785,-0.01,0.0,-0.01
1777319397.7678094,-21.73,-0.02,0.47,-0.011,0.08,9.787,-0.01,0.0,-0.01
1777319397.7759392,-21.73,-0.02,0.47,-0.011,0.05,9.792,-0.01,0.0,-0.01
1777319397.7872078,-21.73,-0.03,0.46,-0.02,0.031,9.793,0.0,0.0,-0.01
1777319397.796034,-21.74,-0.03,0.46,-0.022,0.037,9.788,-0.01,0.0,0.0
1777319397.8065064,-21.74,-0.03,0.46,-0.024,0.055,9.787,-0.01,-0.01,0.0
1777319397.816014,-21.74,-0.03,0.46,-0.024,0.079,9.79,0.0,-0.01,0.0
1777319397.8280213,-21.74,-0.02,0.47,-0.023,0.091,9.794,0.0,-0.01,-0.01
1777319397.8360357,-21.73,-0.02,0.47,-0.006,0.111,9.796,0.0,-0.01,-0.01
1777319397.8459074,-21.73,-0.02,0.47,0.002,0.113,9.799,-0.01,-0.01,-0.01
1777319397.8559551,-21.72,-0.02,0.47,0.017,0.115,9.78,0.0,-0.01,-0.01
1777319397.8659446,-21.73,-0.02,0.47,0.018,0.11,9.786,-0.01,0.0,0.0
1777319397.875944,-21.74,-0.02,0.47,0.016,0.107,9.793,-0.01,0.0,0.0
1777319397.8859227,-21.74,-0.02,0.47,0.008,0.102,9.798,-0.01,0.0,0.0
1777319397.895947,-21.74,-0.02,0.47,-0.007,0.087,9.793,-0.01,0.0,0.0
1777319397.9059374,-21.74,-0.03,0.47,-0.012,0.075,9.787,-0.01,0.0,-0.01
1777319397.9159546,-21.74,-0.03,0.47,-0.022,0.063,9.793,-0.01,0.0,-0.01
1777319397.9259424,-21.73,-0.03,0.47,-0.02,0.049,9.788,0.0,0.0,-0.01
1777319397.9363592,-21.73,-0.03,0.47,-0.012,0.046,9.785,0.0,-0.01,-0.01
1777319397.9462776,-21.74,-0.02,0.47,-0.013,0.057,9.776,0.0,-0.01,0.0
1777319397.9559393,-21.74,-0.02,0.47,-0.006,0.072,9.785,0.0,-0.01,0.0
1777319397.9659367,-21.74,-0.02,0.47,-0.011,0.102,9.791,-0.01,-0.01,0.0
1777319397.9759073,-21.74,-0.02,0.48,0.0,0.115,9.79,0.0,-0.01,0.0
1777319397.9858913,-21.74,-0.02,0.48,0.008,0.127,9.791,0.0,-0.01,-0.01
1777319397.9961693,-21.74,-0.01,0.48,0.018,0.123,9.791,-0.01,-0.01,-0.01
1777319398.0059123,-21.73,-0.01,0.48,0.022,0.119,9.793,-0.01,0.0,-0.01
1777319398.0163534,-21.73,-0.02,0.48,0.017,0.085,9.794,-0.01,0.0,-0.01
1777319398.026415,-21.73,-0.02,0.47,0.017,0.071,9.793,-0.01,0.0,-0.01
1777319398.0359125,-21.74,-0.02,0.47,0.007,0.066,9.798,-0.01,0.0,0.0
1777319398.0459108,-21.74,-0.02,0.47,-0.007,0.06,9.792,-0.01,0.0,0.0
1777319398.0559485,-21.74,-0.02,0.47,-0.02,0.062,9.784,0.0,0.0,0.0
1777319398.066786,-21.74,-0.03,0.47,-0.025,0.066,9.788,0.0,-0.01,0.0
1777319398.0759645,-21.73,-0.02,0.47,-0.028,0.06,9.775,0.0,-0.01,-0.01
1777319398.085921,-21.73,-0.02,0.47,-0.012,0.057,9.78,0.0,-0.01,-0.01
1777319398.0975153,-21.73,-0.02,0.47,-0.007,0.078,9.785,0.0,-0.01,-0.01
1777319398.1075156,-21.73,-0.02,0.48,0.005,0.087,9.788,0.0,-0.01,0.0
1777319398.1158752,-21.74,-0.01,0.48,0.01,0.096,9.791,0.0,-0.01,0.0
1777319398.125089,-21.74,-0.01,0.48,0.014,0.132,9.794,-0.01,-0.01,0.0
1777319398.135074,-21.74,-0.01,0.49,0.013,0.137,9.796,-0.01,-0.01,0.0
1777319398.1458955,-21.74,-0.02,0.49,0.012,0.109,9.793,0.0,0.0,0.0
1777319398.1558805,-21.74,-0.02,0.48,0.007,0.105,9.784,-0.01,0.0,-0.01
1777319398.1650674,-21.73,-0.02,0.48,0.001,0.073,9.774,-0.01,0.0,-0.01
1777319398.1759079,-21.73,-0.02,0.47,-0.007,0.053,9.775,0.0,0.0,-0.01
1777319398.1902742,-21.73,-0.02,0.47,-0.022,0.042,9.782,-0.01,0.0,-0.01
1777319398.1962209,-21.74,-0.03,0.47,-0.029,0.043,9.781,0.0,0.0,0.0
1777319398.2050576,-21.74,-0.03,0.47,-0.029,0.044,9.786,0.0,-0.01,0.0
1777319398.215914,-21.74,-0.03,0.47,-0.026,0.066,9.792,0.0,-0.01,0.0
1777319398.2259138,-21.74,-0.02,0.47,-0.019,0.084,9.791,0.0,-0.01,0.0
1777319398.236405,-21.74,-0.02,0.48,-0.005,0.099,9.796,0.0,-0.01,0.0
1777319398.245891,-21.74,-0.02,0.48,0.007,0.107,9.798,0.0,-0.01,-0.01
1777319398.2559013,-21.74,-0.01,0.49,0.011,0.12,9.802,-0.01,-0.01,-0.01
1777319398.265088,-21.73,-0.02,0.49,0.018,0.105,9.799,0.0,-0.01,-0.01
1777319398.275078,-21.73,-0.01,0.48,0.018,0.105,9.797,-0.01,0.0,-0.01
1777319398.2850828,-21.74,-0.02,0.48,0.008,0.09,9.798,-0.01,0.0,0.0
1777319398.296389,-21.74,-0.02,0.48,0.006,0.08,9.794,-0.01,0.0,0.0
1777319398.3050537,-21.74,-0.02,0.47,-0.002,0.081,9.786,-0.01,0.0,0.0
1777319398.3153381,-21.74,-0.02,0.47,-0.011,0.072,9.787,-0.01,0.0,0.0
1777319398.3258853,-21.74,-0.02,0.47,-0.013,0.067,9.79,0.0,0.0,-0.01
1777319398.3362718,-21.74,-0.03,0.48,-0.025,0.05,9.791,0.0,-0.01,-0.01
1777319398.3451602,-21.74,-0.03,0.48,-0.018,0.056,9.782,0.0,-0.01,-0.01
1777319398.3560076,-21.74,-0.02,0.47,-0.018,0.063,9.787,0.0,-0.01,-0.01
1777319398.365068,-21.74,-0.02,0.47,-0.011,0.068,9.793,0.0,-0.01,0.0
1777319398.375635,-21.74,-0.02,0.47,-0.002,0.068,9.797,0.0,-0.01,0.0
1777319398.3850925,-21.74,-0.02,0.48,0.004,0.091,9.797,0.0,-0.01,0.0
1777319398.395076,-21.74,-0.02,0.48,0.014,0.103,9.796,0.0,-0.01,0.0
1777319398.4050505,-21.74,-0.01,0.48,0.013,0.111,9.797,0.0,0.0,0.0
1777319398.4151053,-21.74,-0.01,0.48,0.013,0.116,9.798,-0.01,0.0,0.0
1777319398.425073,-21.74,-0.01,0.48,0.013,0.108,9.787,-0.01,0.0,0.0
1777319398.4350655,-21.74,-0.01,0.48,0.007,0.091,9.79,-0.01,0.0,0.0
1777319398.4450552,-21.74,-0.02,0.48,0.0,0.085,9.791,-0.01,0.0,-0.01
1777319398.4550352,-21.74,-0.02,0.48,-0.006,0.078,9.788,-0.01,0.0,-0.01
1777319398.465069,-21.74,-0.02,0.48,-0.01,0.074,9.793,-0.01,0.0,-0.01
1777319398.4751184,-21.74,-0.02,0.47,-0.016,0.061,9.791,0.0,0.0,-0.01
1777319398.4850767,-21.74,-0.02,0.47,-0.012,0.063,9.787,0.0,-0.01,0.0
1777319398.4950707,-21.74,-0.02,0.47,-0.011,0.071,9.79,0.0,-0.01,0.0
1777319398.5050337,-21.74,-0.02,0.47,-0.008,0.073,9.779,0.0,-0.01,0.0
1777319398.5150769,-21.74,-0.02,0.48,-0.014,0.075,9.781,0.0,-0.01,0.0
1777319398.525082,-21.74,-0.02,0.48,-0.008,0.087,9.775,0.0,-0.01,0.0
1777319398.5350537,-21.74,-0.02,0.48,-0.002,0.098,9.784,0.0,-0.01,-0.01
1777319398.5450408,-21.74,-0.02,0.49,0.006,0.096,9.79,0.0,-0.01,-0.01
1777319398.5550268,-21.74,-0.02,0.49,0.006,0.108,9.788,-0.01,0.0,-0.01
1777319398.56507,-21.74,-0.02,0.49,0.006,0.108,9.784,0.0,0.0,-0.01
1777319398.5750575,-21.74,-0.02,0.49,0.006,0.098,9.788,-0.01,0.0,0.0
1777319398.5851378,-21.74,-0.02,0.49,-0.001,0.097,9.792,-0.01,0.0,0.0
1777319398.5951056,-21.74,-0.02,0.49,-0.006,0.092,9.794,-0.01,0.0,0.0
1777319398.6050954,-21.74,-0.02,0.48,-0.007,0.083,9.79,-0.01,0.0,0.0
1777319398.61509,-21.74,-0.02,0.48,-0.011,0.072,9.782,-0.01,-0.01,-0.01
1777319398.625044,-21.74,-0.02,0.48,-0.006,0.083,9.772,0.0,-0.01,-0.01
1777319398.6350505,-21.74,-0.02,0.49,-0.008,0.068,9.776,0.0,-0.01,-0.01
1777319398.6450114,-21.74,-0.02,0.48,0.001,0.067,9.773,0.0,0.0,-0.01
1777319398.6550496,-21.74,-0.01,0.49,0.004,0.092,9.782,-0.01,-0.01,-0.01
1777319398.665015,-21.74,-0.01,0.49,0.012,0.091,9.785,0.0,-0.01,0.0
1777319398.6751742,-21.74,-0.01,0.49,0.013,0.103,9.786,0.0,-0.01,0.0
1777319398.6850593,-21.74,-0.01,0.49,0.004,0.119,9.791,-0.01,0.0,0.0
1777319398.6950443,-21.74,-0.01,0.49,0.005,0.119,9.793,-0.01,-0.01,0.0
1777319398.7049901,-21.74,-0.01,0.49,-0.004,0.109,9.797,0.0,0.0,-0.01
1777319398.7149894,-21.74,-0.02,0.49,-0.004,0.103,9.799,-0.01,0.0,-0.01
1777319398.7250519,-21.74,-0.02,0.49,-0.006,0.071,9.799,-0.01,0.0,-0.01
1777319398.734991,-21.74,-0.02,0.49,-0.013,0.055,9.79,-0.01,-0.01,-0.01
1777319398.745062,-21.74,-0.02,0.48,-0.014,0.054,9.791,0.0,0.0,-0.01
1777319398.7550404,-21.74,-0.02,0.48,-0.016,0.056,9.79,-0.01,-0.01,0.0
1777319398.7650309,-21.74,-0.02,0.49,-0.014,0.06,9.785,0.0,0.0,0.0
1777319398.7750103,-21.74,-0.02,0.48,-0.006,0.075,9.781,0.0,-0.01,0.0
1777319398.7849922,-21.74,-0.01,0.49,-0.001,0.091,9.79,-0.01,-0.01,0.0
1777319398.7950392,-21.74,-0.01,0.49,0.007,0.09,9.793,0.0,-0.01,0.0
1777319398.8050213,-21.74,-0.01,0.49,0.007,0.098,9.796,-0.01,0.0,0.0
1777319398.814995,-21.74,-0.01,0.49,0.01,0.095,9.79,0.0,0.0,-0.01
1777319398.8250308,-21.74,-0.01,0.49,0.016,0.089,9.782,0.0,0.0,-0.01
1777319398.8350513,-21.74,-0.01,0.49,0.004,0.078,9.79,-0.01,0.0,-0.01
1777319398.8449981,-21.74,-0.01,0.49,0.004,0.083,9.785,-0.01,0.0,-0.01
1777319398.8551016,-21.74,-0.01,0.49,-0.005,0.069,9.778,0.0,0.0,-0.01
1777319398.865002,-21.74,-0.02,0.49,-0.01,0.078,9.78,-0.01,-0.01,0.0
1777319398.8750017,-21.74,-0.02,0.49,-0.013,0.089,9.781,0.0,0.0,-0.01
1777319398.8850157,-21.74,-0.02,0.49,-0.018,0.09,9.788,0.0,0.0,0.0
1777319398.8950124,-21.74,-0.02,0.49,-0.022,0.077,9.784,0.0,-0.01,-0.01
1777319398.9050052,-21.74,-0.02,0.49,-0.011,0.086,9.773,0.0,-0.01,-0.01
1777319398.9150262,-21.74,-0.02,0.49,-0.011,0.084,9.781,-0.01,-0.01,-0.01
1777319398.9250028,-21.74,-0.02,0.49,0.0,0.074,9.786,0.0,-0.01,-0.01
1777319398.9349778,-21.74,-0.01,0.49,0.0,0.078,9.788,0.0,0.0,0.0
1777319398.9454973,-21.74,-0.01,0.49,0.0,0.096,9.794,-0.01,-0.01,0.0
1777319398.9556394,-21.74,-0.01,0.49,0.001,0.113,9.791,-0.01,0.0,0.0
1777319398.964975,-21.74,-0.02,0.5,-0.002,0.098,9.788,0.0,0.0,-0.01
1777319398.9750183,-21.74,-0.02,0.49,-0.01,0.086,9.787,0.0,0.0,-0.01
1777319398.9850018,-21.74,-0.02,0.49,-0.014,0.08,9.79,-0.01,0.0,-0.01
1777319398.9950068,-21.74,-0.02,0.49,-0.022,0.069,9.787,0.0,-0.01,-0.01
1777319399.0050123,-21.74,-0.02,0.49,-0.028,0.061,9.787,0.0,-0.01,0.0
1777319399.0149758,-21.74,-0.02,0.48,-0.025,0.067,9.779,0.0,-0.01,0.0
1777319399.0249572,-21.75,-0.02,0.49,-0.019,0.081,9.77,0.0,-0.01,0.0
1777319399.0350344,-21.75,-0.02,0.49,-0.019,0.087,9.775,0.0,-0.01,0.0
1777319399.045009,-21.75,-0.02,0.5,-0.012,0.104,9.781,0.0,-0.01,0.0
1777319399.055024,-21.75,-0.02,0.5,-0.005,0.111,9.785,0.0,-0.01,-0.01
1777319399.064996,-21.75,-0.02,0.5,0.004,0.098,9.78,-0.01,-0.01,-0.01
1777319399.0749762,-21.75,-0.02,0.5,-0.002,0.104,9.779,0.0,-0.01,-0.01
1777319399.0857024,-21.75,-0.02,0.5,0.0,0.099,9.778,-0.01,0.0,0.0
1777319399.0950189,-21.75,-0.02,0.5,-0.004,0.108,9.782,-0.01,0.0,0.0
1777319399.1049967,-21.75,-0.02,0.5,-0.011,0.09,9.79,-0.01,0.0,0.0
1777319399.11497,-21.75,-0.03,0.5,-0.008,0.09,9.775,0.0,0.0,-0.01
1777319399.1249554,-21.74,-0.03,0.5,-0.02,0.086,9.773,-0.01,0.0,-0.01
1777319399.1349535,-21.74,-0.03,0.5,-0.022,0.089,9.774,0.0,-0.01,-0.01
1777319399.145066,-21.74,-0.03,0.49,-0.019,0.059,9.782,0.0,0.0,-0.01
1777319399.155351,-21.74,-0.03,0.49,-0.017,0.066,9.787,0.0,-0.01,-0.01
1777319399.1650393,-21.74,-0.02,0.5,-0.005,0.056,9.784,0.0,-0.01,0.0
1777319399.1749718,-21.74,-0.02,0.49,0.008,0.074,9.782,0.0,-0.01,0.0
1777319399.1849592,-21.75,-0.02,0.5,0.016,0.095,9.788,-0.01,-0.01,0.0
1777319399.195012,-21.76,-0.01,0.49,0.017,0.107,9.793,0.0,-0.01,0.0
1777319399.2049763,-21.75,-0.01,0.5,0.012,0.111,9.791,0.0,0.0,0.0
1777319399.2170544,-21.75,-0.02,0.5,0.007,0.111,9.787,-0.01,0.0,-0.01
1777319399.2249541,-21.74,-0.02,0.5,0.008,0.091,9.791,-0.01,0.0,-0.01
1777319399.234956,-21.74,-0.02,0.5,-0.001,0.079,9.794,-0.01,0.0,-0.01
1777319399.2449408,-21.74,-0.02,0.5,-0.005,0.067,9.796,-0.01,0.0,-0.01
1777319399.254135,-21.75,-0.02,0.49,-0.008,0.06,9.791,-0.01,0.0,0.0
1777319399.2664154,-21.75,-0.02,0.49,-0.011,0.063,9.785,-0.01,-0.01,0.0
1777319399.2749853,-21.75,-0.02,0.49,-0.011,0.068,9.787,-0.01,0.0,0.0
1777319399.2850344,-21.75,-0.03,0.5,-0.019,0.059,9.791,0.0,-0.01,-0.01
1777319399.2956066,-21.75,-0.02,0.49,-0.01,0.066,9.793,0.0,0.0,-0.01
1777319399.3055336,-21.75,-0.02,0.49,-0.013,0.077,9.797,-0.01,-0.01,-0.01
1777319399.3142774,-21.75,-0.02,0.5,0.004,0.085,9.79,0.0,-0.01,-0.01
1777319399.3241367,-21.75,-0.02,0.5,0.006,0.085,9.793,0.0,-0.01,-0.01
1777319399.3341413,-21.75,-0.01,0.49,0.01,0.089,9.797,-0.01,0.0,0.0
1777319399.3447208,-21.75,-0.02,0.5,0.002,0.097,9.796,-0.01,0.0,0.0
1777319399.3541431,-21.74,-0.02,0.5,-0.006,0.104,9.796,0.0,0.0,-0.01
1777319399.364147,-21.74,-0.02,0.5,-0.01,0.081,9.792,0.0,0.0,-0.01
1777319399.374977,-21.74,-0.02,0.49,-0.012,0.063,9.794,0.0,0.0,-0.01
1777319399.3849778,-21.74,-0.02,0.49,-0.013,0.054,9.794,-0.01,-0.01,-0.01
1777319399.394123,-21.74,-0.02,0.49,-0.01,0.043,9.788,0.0,0.0,0.0
1777319399.4041104,-21.74,-0.02,0.48,-0.008,0.047,9.773,0.0,-0.01,0.0
1777319399.414183,-21.75,-0.02,0.48,-0.007,0.072,9.773,0.0,-0.01,0.0
1777319399.426642,-21.76,-0.02,0.49,-0.002,0.09,9.779,0.0,-0.01,0.0
1777319399.4378164,-21.76,-0.02,0.5,0.0,0.095,9.786,0.0,-0.01,0.0
1777319399.4446654,-21.75,-0.02,0.5,0.007,0.103,9.786,0.0,-0.01,-0.01
1777319399.4541585,-21.75,-0.02,0.5,0.007,0.105,9.782,-0.01,0.0,-0.01
1777319399.464119,-21.75,-0.02,0.5,0.01,0.103,9.78,0.0,0.0,-0.01
1777319399.4741268,-21.75,-0.02,0.5,0.004,0.093,9.788,-0.01,0.0,-0.01
1777319399.4847934,-21.76,-0.02,0.49,-0.001,0.081,9.791,-0.01,0.0,0.0
1777319399.4941375,-21.76,-0.02,0.49,-0.006,0.071,9.79,-0.01,0.0,0.0
1777319399.504405,-21.76,-0.02,0.49,-0.013,0.063,9.786,-0.01,0.0,0.0
1777319399.5141392,-21.76,-0.02,0.49,-0.01,0.074,9.782,-0.01,0.0,0.0
1777319399.5241134,-21.76,-0.02,0.49,-0.017,0.072,9.787,0.0,0.0,-0.01
1777319399.534112,-21.75,-0.03,0.49,-0.02,0.062,9.79,0.0,-0.01,-0.01
1777319399.544143,-21.75,-0.02,0.49,-0.017,0.062,9.788,0.0,0.0,-0.01
1777319399.5542161,-21.76,-0.02,0.49,-0.007,0.072,9.785,0.0,-0.01,0.0
1777319399.5641232,-21.76,-0.02,0.49,-0.005,0.084,9.776,0.0,-0.01,0.0
1777319399.5740952,-21.76,-0.02,0.49,-0.004,0.101,9.785,0.0,-0.01,0.0
1777319399.5841367,-21.76,-0.02,0.5,-0.006,0.121,9.791,0.0,0.0,0.0
1777319399.5941353,-21.75,-0.02,0.5,-0.011,0.095,9.796,0.0,-0.01,-0.01
1777319399.6044047,-21.74,-0.02,0.5,0.0,0.081,9.8,0.0,0.0,-0.01
1777319399.614152,-21.74,-0.02,0.5,0.007,0.072,9.791,-0.01,-0.01,-0.01
1777319399.624071,-21.74,-0.02,0.5,0.013,0.063,9.778,0.0,0.0,-0.01
1777319399.6341093,-21.75,-0.02,0.49,0.014,0.063,9.779,0.0,0.0,0.0
1777319399.6440907,-21.76,-0.02,0.49,0.0,0.083,9.787,-0.01,0.0,0.0
1777319399.654138,-21.76,-0.02,0.5,-0.011,0.092,9.786,-0.01,0.0,0.0
1777319399.664104,-21.76,-0.02,0.5,-0.011,0.095,9.782,0.0,0.0,0.0
1777319399.6741164,-21.76,-0.02,0.5,-0.008,0.096,9.784,-0.01,-0.01,-0.01
1777319399.6844835,-21.75,-0.02,0.5,-0.008,0.078,9.784,0.0,-0.01,-0.01
1777319399.6941068,-21.75,-0.02,0.49,-0.004,0.065,9.787,-0.01,0.0,-0.01
1777319399.7046015,-21.75,-0.02,0.49,-0.004,0.063,9.793,0.0,0.0,-0.01
1777319399.7215981,-21.76,-0.02,0.49,-0.004,0.057,9.797,-0.01,0.0,0.0
1777319399.7400086,-21.76,-0.02,0.48,-0.006,0.072,9.798,0.0,-0.01,0.0
1777319399.7426593,-21.76,-0.02,0.48,-0.012,0.086,9.8,-0.01,0.0,0.0
1777319399.7461555,-21.76,-0.02,0.49,-0.023,0.089,9.796,0.0,0.0,0.0
1777319399.7579904,-21.75,-0.03,0.49,-0.023,0.087,9.788,0.0,-0.01,-0.01
1777319399.770906,-21.74,-0.03,0.49,-0.013,0.071,9.785,0.0,-0.01,-0.01
1777319399.7740607,-21.74,-0.02,0.49,-0.004,0.065,9.788,0.0,-0.01,-0.01
1777319399.7840695,-21.74,-0.02,0.49,-0.004,0.072,9.786,0.0,-0.01,-0.01
1777319399.79412,-21.75,-0.02,0.49,0.005,0.072,9.787,0.0,-0.01,0.0
1777319399.8040955,-21.76,-0.02,0.49,0.002,0.086,9.787,0.0,0.0,0.0
1777319399.8141143,-21.76,-0.02,0.49,0.0,0.111,9.793,-0.01,-0.01,0.0
1777319399.824123,-21.76,-0.02,0.5,0.0,0.127,9.797,-0.01,0.0,0.0
1777319399.834114,-21.76,-0.02,0.5,-0.001,0.116,9.792,0.0,0.0,-0.01
1777319399.8440964,-21.75,-0.02,0.5,0.004,0.098,9.79,-0.01,0.0,-0.01
1777319399.8540554,-21.75,-0.02,0.49,0.0,0.078,9.79,-0.01,0.0,-0.01
1777319399.8640528,-21.75,-0.02,0.49,-0.005,0.055,9.787,-0.01,0.0,-0.01
1777319399.8740876,-21.76,-0.02,0.49,-0.018,0.044,9.784,0.0,0.0,0.0
1777319399.8840568,-21.76,-0.03,0.48,-0.018,0.044,9.781,-0.01,-0.01,0.0
1777319399.89411,-21.76,-0.03,0.49,-0.025,0.061,9.779,0.0,0.0,0.0
1777319399.9040852,-21.76,-0.03,0.49,-0.025,0.074,9.779,0.0,-0.01,0.0
1777319399.9140885,-21.76,-0.03,0.49,-0.019,0.091,9.781,0.0,-0.01,-0.01
1777319399.924086,-21.76,-0.03,0.49,-0.019,0.087,9.784,-0.01,-0.01,-0.01
1777319399.9340954,-21.76,-0.03,0.49,-0.01,0.08,9.774,0.0,-0.01,-0.01
1777319399.9440534,-21.76,-0.02,0.49,0.0,0.083,9.784,-0.01,-0.01,0.0
1777319399.9540687,-21.76,-0.02,0.49,0.001,0.083,9.788,-0.01,-0.01,0.0
1777319399.964055,-21.76,-0.02,0.49,-0.005,0.08,9.791,0.0,0.0,0.0
1777319399.9740987,-21.76,-0.03,0.49,-0.006,0.086,9.785,0.0,0.0,0.0
1777319399.9840686,-21.76,-0.03,0.49,-0.002,0.093,9.781,0.0,0.0,-0.01
1777319399.9940717,-21.75,-0.03,0.49,-0.005,0.074,9.785,-0.01,0.0,-0.01
1777319400.004056,-21.75,-0.03,0.49,-0.004,0.078,9.786,-0.01,0.0,-0.01
1777319400.0140293,-21.76,-0.03,0.49,-0.001,0.075,9.786,0.0,0.0,-0.01
1777319400.0240614,-21.76,-0.02,0.49,0.0,0.084,9.781,-0.01,-0.01,0.0
1777319400.0340629,-21.76,-0.03,0.49,-0.006,0.086,9.786,0.0,-0.01,0.0
1777319400.0440307,-21.75,-0.03,0.49,-0.011,0.093,9.788,0.0,0.0,-0.01
1777319400.0540502,-21.75,-0.03,0.49,-0.013,0.084,9.79,-0.01,-0.01,-0.01
1777319400.0640333,-21.75,-0.03,0.49,-0.013,0.072,9.782,0.0,-0.01,-0.01
1777319400.0740476,-21.75,-0.02,0.49,-0.01,0.084,9.786,0.0,-0.01,-0.01
1777319400.084034,-21.75,-0.03,0.49,-0.006,0.071,9.792,-0.01,-0.01,0.0
1777319400.094067,-21.75,-0.02,0.49,0.0,0.084,9.788,-0.01,0.0,0.0
1777319400.1040692,-21.75,-0.02,0.49,-0.001,0.077,9.787,0.0,-0.01,0.0
1777319400.1140351,-21.75,-0.02,0.49,0.002,0.085,9.772,0.0,-0.01,0.0
1777319400.1240273,-21.76,-0.02,0.49,0.004,0.093,9.778,0.0,-0.01,0.0
1777319400.1340747,-21.76,-0.02,0.49,0.002,0.096,9.786,0.0,-0.01,0.0
1777319400.1440578,-21.76,-0.02,0.49,-0.002,0.086,9.792,-0.01,0.0,0.0
1777319400.1540797,-21.76,-0.02,0.49,0.0,0.085,9.788,0.0,-0.01,0.0
1777319400.1640947,-21.76,-0.02,0.49,0.004,0.093,9.787,-0.01,0.0,0.0
1777319400.1740363,-21.76,-0.02,0.49,0.0,0.081,9.792,-0.01,0.0,0.0
1777319400.1840427,-21.76,-0.02,0.49,0.0,0.093,9.793,-0.01,-0.01,-0.01
1777319400.1939938,-21.76,-0.02,0.49,0.0,0.083,9.792,-0.01,-0.01,-0.01
1777319400.2040246,-21.76,-0.02,0.49,0.0,0.08,9.793,0.0,-0.01,0.0
1777319400.2140112,-21.76,-0.02,0.49,-0.008,0.09,9.79,0.0,0.0,-0.01
1777319400.2240694,-21.75,-0.02,0.5,-0.01,0.086,9.794,0.0,-0.01,-0.01
1777319400.2340226,-21.74,-0.02,0.49,-0.006,0.084,9.794,0.0,-0.01,-0.01
1777319400.2440655,-21.74,-0.02,0.49,-0.014,0.086,9.799,-0.01,-0.01,-0.01
1777319400.2540214,-21.74,-0.02,0.49,-0.006,0.079,9.778,0.0,0.0,-0.01
1777319400.2640066,-21.74,-0.02,0.49,-0.001,0.084,9.776,-0.01,0.0,0.0
1777319400.2739825,-21.75,-0.02,0.49,-0.002,0.089,9.782,-0.01,-0.01,0.0
1777319400.2839768,-21.76,-0.02,0.49,0.0,0.092,9.784,-0.01,0.0,0.0
1777319400.2940109,-21.76,-0.02,0.49,-0.004,0.09,9.791,0.0,0.0,0.0
1777319400.3040006,-21.76,-0.02,0.49,0.002,0.099,9.782,-0.01,0.0,0.0
1777319400.313986,-21.75,-0.02,0.49,0.002,0.099,9.778,-0.01,0.0,-0.01
1777319400.3231351,-21.75,-0.02,0.49,-0.002,0.075,9.769,0.0,0.0,-0.01
1777319400.334011,-21.75,-0.02,0.49,-0.001,0.063,9.772,0.0,0.0,-0.01
1777319400.3439984,-21.75,-0.02,0.48,-0.002,0.063,9.781,-0.01,0.0,0.0
1777319400.3540022,-21.76,-0.02,0.48,0.001,0.066,9.774,-0.01,0.0,0.0
1777319400.3631468,-21.76,-0.02,0.48,-0.002,0.079,9.776,0.0,-0.01,0.0
1777319400.37327,-21.76,-0.02,0.49,-0.008,0.095,9.775,-0.01,-0.01,0.0
1777319400.3841403,-21.76,-0.02,0.49,-0.002,0.091,9.779,0.0,-0.01,-0.01
1777319400.393991,-21.76,-0.02,0.49,0.001,0.087,9.786,0.0,0.0,-0.01
1777319400.403521,-21.76,-0.02,0.49,0.004,0.08,9.792,-0.01,0.0,-0.01
1777319400.4131818,-21.76,-0.02,0.48,0.01,0.089,9.781,-0.01,0.0,-0.01
1777319400.4240103,-21.76,-0.01,0.48,0.001,0.079,9.775,-0.01,0.0,-0.01
1777319400.4331539,-21.75,-0.02,0.48,-0.004,0.061,9.784,0.0,-0.01,0.0
1777319400.4431317,-21.75,-0.02,0.48,-0.012,0.067,9.787,0.0,0.0,-0.01
1777319400.4531436,-21.75,-0.02,0.48,-0.007,0.066,9.781,-0.01,-0.01,-0.01
1777319400.4639866,-21.75,-0.02,0.48,-0.007,0.065,9.779,0.0,0.0,-0.01
1777319400.473164,-21.76,-0.02,0.48,-0.005,0.063,9.78,0.0,-0.01,0.0
1777319400.4831326,-21.76,-0.02,0.48,-0.008,0.081,9.78,0.0,0.0,0.0
1777319400.4940045,-21.76,-0.02,0.48,-0.008,0.087,9.786,-0.01,-0.01,0.0
1777319400.5031328,-21.76,-0.02,0.48,-0.002,0.098,9.781,0.0,0.0,0.0
1777319400.5131307,-21.76,-0.02,0.49,0.001,0.087,9.773,-0.01,0.0,0.0
1777319400.5239933,-21.76,-0.02,0.49,0.0,0.096,9.779,-0.01,0.0,-0.01
1777319400.5331576,-21.76,-0.02,0.49,0.0,0.099,9.774,-0.01,-0.01,-0.01
1777319400.543081,-21.76,-0.02,0.48,-0.005,0.074,9.78,0.0,-0.01,-0.01
1777319400.5531468,-21.75,-0.02,0.48,-0.002,0.077,9.778,-0.01,0.0,-0.01
1777319400.5631511,-21.75,-0.02,0.48,-0.006,0.069,9.773,-0.01,-0.01,-0.01
1777319400.5731182,-21.76,-0.02,0.48,0.0,0.068,9.775,0.0,0.0,-0.01
1777319400.5831258,-21.76,-0.02,0.48,-0.001,0.08,9.784,-0.01,-0.01,0.0
1777319400.5931275,-21.76,-0.02,0.48,-0.005,0.091,9.79,0.0,0.0,0.0
1777319400.6031427,-21.76,-0.02,0.48,0.0,0.092,9.785,0.0,-0.01,0.0
1777319400.6131077,-21.76,-0.02,0.49,0.001,0.102,9.791,-0.01,0.0,-0.01
1777319400.6231396,-21.75,-0.02,0.49,0.0,0.099,9.792,0.0,-0.01,-0.01
1777319400.633321,-21.75,-0.02,0.49,-0.002,0.074,9.794,0.0,0.0,-0.01
1777319400.6431942,-21.75,-0.02,0.48,-0.005,0.083,9.794,-0.01,-0.01,-0.01
1777319400.6531167,-21.75,-0.02,0.48,-0.006,0.075,9.79,-0.01,0.0,0.0
1777319400.6631937,-21.76,-0.02,0.48,0.001,0.066,9.785,0.0,0.0,0.0
1777319400.67312,-21.76,-0.02,0.48,-0.008,0.074,9.791,-0.01,0.0,0.0
1777319400.683115,-21.76,-0.02,0.48,-0.014,0.078,9.787,-0.01,0.0,0.0
1777319400.6931195,-21.76,-0.02,0.48,-0.012,0.062,9.786,0.0,0.0,0.0
1777319400.703129,-21.76,-0.03,0.48,-0.001,0.069,9.79,0.0,0.0,-0.01
1777319400.7130995,-21.76,-0.02,0.48,-0.004,0.071,9.793,0.0,0.0,-0.01
1777319400.7230947,-21.76,-0.02,0.48,0.0,0.059,9.793,0.0,0.0,-0.01
1777319400.7331107,-21.76,-0.02,0.47,0.0,0.077,9.788,0.0,-0.01,0.0
1777319400.7431169,-21.76,-0.02,0.48,0.004,0.079,9.786,-0.01,-0.01,0.0
1777319400.7530568,-21.76,-0.02,0.48,0.007,0.085,9.784,0.0,0.0,0.0
1777319400.7631576,-21.76,-0.02,0.48,-0.002,0.099,9.791,-0.01,0.0,0.0
1777319400.7731512,-21.76,-0.02,0.48,0.0,0.096,9.788,-0.01,-0.01,-0.01
1777319400.783426,-21.76,-0.02,0.48,0.001,0.078,9.784,-0.01,-0.01,-0.01
1777319400.793146,-21.76,-0.02,0.48,-0.005,0.063,9.786,0.0,-0.01,-0.01
1777319400.8031077,-21.76,-0.02,0.47,0.0,0.061,9.776,0.0,-0.01,-0.01
1777319400.813136,-21.76,-0.02,0.47,-0.008,0.061,9.785,0.0,-0.01,-0.01
1777319400.8235307,-21.76,-0.02,0.47,0.002,0.053,9.779,0.0,-0.01,0.0
1777319400.8333914,-21.76,-0.02,0.47,-0.006,0.073,9.78,0.0,0.0,0.0
1777319400.8434548,-21.76,-0.02,0.48,-0.002,0.086,9.781,0.0,-0.01,0.0
1777319400.8531365,-21.76,-0.02,0.48,-0.005,0.105,9.781,0.0,0.0,0.0
1777319400.8631148,-21.76,-0.02,0.48,-0.006,0.121,9.778,-0.01,0.0,-0.01
1777319400.8730927,-21.76,-0.02,0.48,0.001,0.095,9.782,0.0,-0.01,-0.01
1777319400.8831236,-21.76,-0.02,0.48,0.004,0.078,9.784,0.0,0.0,-0.01
1777319400.8931036,-21.76,-0.02,0.47,0.007,0.073,9.788,-0.01,0.0,0.0
1777319400.9030957,-21.76,-0.02,0.47,0.001,0.068,9.788,-0.01,0.0,0.0
1777319400.9131284,-21.76,-0.02,0.47,-0.001,0.066,9.78,0.0,-0.01,0.0
1777319400.9231286,-21.76,-0.02,0.47,-0.008,0.077,9.785,-0.01,-0.01,0.0
1777319400.9330964,-21.76,-0.02,0.47,-0.006,0.077,9.787,0.0,0.0,0.0
1777319400.9431462,-21.76,-0.02,0.47,-0.008,0.078,9.79,0.0,0.0,-0.01
1777319400.9531295,-21.76,-0.02,0.48,-0.01,0.083,9.788,0.0,-0.01,-0.01
1777319400.9632647,-21.76,-0.02,0.48,0.005,0.074,9.786,0.0,-0.01,-0.01
1777319400.9731407,-21.76,-0.02,0.48,0.001,0.083,9.792,-0.01,0.0,-0.01
1777319400.9831083,-21.76,-0.02,0.48,0.01,0.079,9.788,-0.01,-0.01,0.0
1777319400.9931252,-21.76,-0.02,0.48,0.007,0.085,9.791,0.0,0.0,0.0
1777319401.0031683,-21.76,-0.02,0.48,0.007,0.096,9.79,-0.01,-0.01,0.0
1777319401.0130913,-21.76,-0.02,0.48,0.005,0.102,9.794,-0.01,0.0,0.0
1777319401.0231247,-21.76,-0.02,0.48,0.001,0.083,9.794,0.0,0.0,0.0
1777319401.0331166,-21.76,-0.02,0.48,0.004,0.08,9.794,0.0,0.0,-0.01
1777319401.043132,-21.76,-0.02,0.47,0.0,0.084,9.796,-0.01,-0.01,-0.01
1777319401.053111,-21.76,-0.02,0.47,0.001,0.071,9.799,-0.01,0.0,-0.01
1777319401.0631294,-21.76,-0.02,0.47,-0.001,0.063,9.796,0.0,0.0,0.0
1777319401.0731149,-21.76,-0.02,0.47,-0.006,0.089,9.79,0.0,-0.01,0.0
1777319401.083117,-21.76,-0.02,0.48,-0.008,0.093,9.794,-0.01,-0.01,0.0
1777319401.0931394,-21.76,-0.02,0.48,-0.008,0.102,9.79,0.0,-0.01,0.0
1777319401.1037557,-21.76,-0.02,0.48,-0.012,0.102,9.785,-0.01,0.0,-0.01
1777319401.1131556,-21.75,-0.02,0.48,0.0,0.079,9.779,0.0,-0.01,-0.01
1777319401.1231234,-21.75,-0.02,0.48,0.002,0.065,9.787,0.0,0.0,-0.01
1777319401.133135,-21.75,-0.02,0.48,0.005,0.059,9.79,-0.01,-0.01,-0.01
1777319401.143134,-21.76,-0.01,0.48,0.008,0.068,9.793,0.0,0.0,0.0
1777319401.1531296,-21.76,-0.02,0.47,0.006,0.079,9.797,0.0,-0.01,0.0
1777319401.1631362,-21.76,-0.01,0.48,-0.001,0.093,9.796,-0.01,-0.01,0.0
1777319401.173132,-21.76,-0.01,0.48,-0.002,0.089,9.793,0.0,0.0,0.0
1777319401.1831384,-21.76,-0.02,0.48,-0.004,0.086,9.793,0.0,0.0,-0.01
1777319401.1931334,-21.76,-0.02,0.48,-0.008,0.099,9.787,-0.01,-0.01,-0.01
1777319401.2040415,-21.75,-0.02,0.48,-0.001,0.085,9.776,0.0,0.0,-0.01
1777319401.2132514,-21.76,-0.02,0.48,0.0,0.084,9.779,-0.01,0.0,-0.01
1777319401.2230692,-21.76,-0.02,0.48,0.0,0.084,9.787,-0.01,-0.01,0.0
1777319401.2331376,-21.76,-0.02,0.48,0.004,0.078,9.788,-0.01,0.0,0.0
1777319401.2431183,-21.76,-0.02,0.48,-0.005,0.09,9.793,-0.01,0.0,0.0
1777319401.2531114,-21.76,-0.02,0.48,-0.01,0.089,9.786,-0.01,-0.01,0.0
1777319401.2630677,-21.75,-0.02,0.48,-0.016,0.087,9.78,0.0,-0.01,-0.01
1777319401.2730784,-21.74,-0.02,0.48,-0.011,0.073,9.786,0.0,-0.01,-0.01
1777319401.2830827,-21.74,-0.02,0.48,-0.012,0.073,9.787,-0.01,-0.01,-0.01
1777319401.2931502,-21.75,-0.02,0.48,-0.001,0.066,9.784,0.0,-0.01,-0.01
1777319401.303109,-21.76,-0.01,0.48,0.0,0.081,9.776,0.0,-0.01,0.0
1777319401.3131437,-21.76,-0.02,0.49,0.001,0.093,9.785,0.0,-0.01,0.0
1777319401.3231118,-21.76,-0.02,0.49,0.008,0.115,9.791,0.0,0.0,0.0
1777319401.3330889,-21.76,-0.02,0.49,0.007,0.12,9.796,-0.01,0.0,0.0
1777319401.3430567,-21.76,-0.02,0.49,0.005,0.111,9.785,0.0,0.0,-0.01
1777319401.3522382,-21.75,-0.02,0.49,0.0,0.095,9.79,-0.01,0.0,-0.01
1777319401.363095,-21.75,-0.02,0.49,-0.005,0.077,9.792,-0.01,0.0,-0.01
1777319401.37311,-21.76,-0.02,0.48,-0.002,0.059,9.792,-0.01,0.0,0.0
1777319401.3822243,-21.76,-0.02,0.48,-0.007,0.056,9.785,0.0,0.0,0.0
1777319401.3922043,-21.76,-0.02,0.48,-0.014,0.055,9.785,-0.01,-0.01,0.0
1777319401.403105,-21.76,-0.02,0.48,-0.018,0.069,9.781,0.0,-0.01,0.0
1777319401.4131312,-21.76,-0.02,0.48,-0.02,0.073,9.788,0.0,-0.01,-0.01
1777319401.423152,-21.76,-0.02,0.48,-0.013,0.08,9.792,0.0,-0.01,-0.01
1777319401.4325185,-21.76,-0.02,0.48,-0.004,0.089,9.79,0.0,0.0,-0.01
1777319401.4421873,-21.76,-0.02,0.48,0.002,0.095,9.784,0.0,-0.01,-0.01
1777319401.4530928,-21.76,-0.02,0.49,-0.007,0.103,9.78,-0.01,0.0,-0.01
1777319401.4631627,-21.76,-0.02,0.49,-0.007,0.097,9.77,0.0,-0.01,0.0
1777319401.473071,-21.76,-0.02,0.49,-0.017,0.089,9.772,0.0,0.0,-0.01
1777319401.483054,-21.76,-0.02,0.49,-0.006,0.077,9.775,0.0,-0.01,-0.01
1777319401.4930537,-21.76,-0.02,0.48,-0.018,0.078,9.784,-0.01,0.0,-0.01
1777319401.5022094,-21.76,-0.02,0.48,-0.01,0.079,9.782,-0.01,-0.01,0.0
1777319401.5131402,-21.76,-0.02,0.48,-0.016,0.077,9.784,0.0,0.0,0.0
1777319401.523978,-21.76,-0.03,0.48,-0.011,0.077,9.79,0.0,-0.01,0.0
1777319401.5326605,-21.76,-0.03,0.49,-0.02,0.084,9.791,0.0,0.0,0.0
1777319401.5421944,-21.76,-0.03,0.49,-0.012,0.087,9.785,0.0,-0.01,0.0
1777319401.5523577,-21.76,-0.03,0.49,-0.016,0.096,9.785,-0.01,-0.01,-0.01
1777319401.5621755,-21.75,-0.03,0.49,-0.006,0.08,9.786,0.0,-0.01,-0.01
1777319401.5721772,-21.75,-0.03,0.49,-0.005,0.084,9.791,0.0,0.0,-0.01
1777319401.5822253,-21.75,-0.02,0.49,0.0,0.08,9.794,-0.01,-0.01,-0.01
1777319401.5921984,-21.76,-0.02,0.49,0.0,0.083,9.792,0.0,0.0,0.0
1777319401.6021981,-21.76,-0.02,0.48,0.0,0.075,9.793,0.0,0.0,0.0
1777319401.6122127,-21.76,-0.02,0.48,-0.007,0.084,9.794,-0.01,0.0,0.0
1777319401.6221924,-21.76,-0.03,0.48,-0.006,0.086,9.785,-0.01,0.0,0.0
1777319401.6321719,-21.76,-0.03,0.48,-0.011,0.077,9.787,-0.01,0.0,-0.01
1777319401.6421828,-21.76,-0.03,0.48,-0.006,0.072,9.778,0.0,0.0,-0.01
1777319401.6522322,-21.76,-0.03,0.48,-0.004,0.068,9.769,0.0,0.0,-0.01
1777319401.6621954,-21.76,-0.03,0.48,0.0,0.065,9.776,0.0,-0.01,-0.01
1777319401.6721663,-21.76,-0.03,0.48,0.0,0.084,9.778,0.0,0.0,0.0
1777319401.6821914,-21.76,-0.03,0.48,-0.007,0.09,9.786,-0.01,0.0,0.0
1777319401.6922212,-21.76,-0.03,0.48,-0.005,0.09,9.781,0.0,-0.01,0.0
1777319401.702163,-21.76,-0.03,0.48,-0.006,0.099,9.788,-0.01,0.0,0.0
1777319401.7121572,-21.76,-0.03,0.48,-0.005,0.101,9.794,-0.01,-0.01,-0.01
1777319401.7221744,-21.76,-0.03,0.48,0.002,0.107,9.79,-0.01,0.0,-0.01
1777319401.7321694,-21.76,-0.03,0.49,-0.005,0.095,9.774,-0.01,-0.01,-0.01
1777319401.7421818,-21.76,-0.03,0.48,-0.002,0.067,9.772,0.0,-0.01,-0.01
1777319401.7521734,-21.75,-0.03,0.48,-0.001,0.068,9.776,-0.01,0.0,-0.01
1777319401.762409,-21.75,-0.03,0.48,0.004,0.062,9.778,-0.01,-0.01,-0.01
1777319401.772151,-21.76,-0.02,0.48,0.005,0.065,9.776,0.0,0.0,0.0
1777319401.7821639,-21.76,-0.02,0.48,0.0,0.072,9.78,0.0,-0.01,0.0
1777319401.7921677,-21.76,-0.02,0.48,0.005,0.092,9.786,0.0,0.0,0.0
1777319401.8024907,-21.76,-0.02,0.49,0.002,0.092,9.792,0.0,0.0,0.0
1777319401.8121493,-21.76,-0.02,0.49,0.007,0.095,9.788,0.0,-0.01,0.0
1777319401.8221388,-21.76,-0.02,0.49,0.004,0.096,9.79,-0.01,0.0,-0.01
1777319401.8321545,-21.76,-0.03,0.49,0.001,0.103,9.784,0.0,0.0,-0.01
1777319401.842183,-21.76,-0.02,0.49,-0.005,0.091,9.782,-0.01,0.0,-0.01
1777319401.8521779,-21.76,-0.03,0.49,-0.006,0.069,9.79,0.0,-0.01,-0.01
1777319401.8621883,-21.76,-0.02,0.49,-0.008,0.08,9.788,-0.01,0.0,-0.01
1777319401.8721976,-21.76,-0.03,0.49,-0.004,0.069,9.779,-0.01,-0.01,0.0
1777319401.8821552,-21.76,-0.02,0.49,0.002,0.069,9.767,0.0,0.0,0.0
1777319401.8921394,-21.76,-0.02,0.49,0.0,0.079,9.775,0.0,-0.01,0.0
1777319401.9021647,-21.76,-0.02,0.49,0.001,0.09,9.785,-0.01,-0.01,0.0
1777319401.9121633,-21.76,-0.02,0.49,0.005,0.098,9.788,0.0,0.0,0.0
1777319401.9221365,-21.76,-0.02,0.49,0.002,0.098,9.786,0.0,0.0,-0.01
1777319401.9321318,-21.76,-0.02,0.5,0.005,0.09,9.778,-0.01,0.0,-0.01
1777319401.942188,-21.76,-0.02,0.49,0.002,0.078,9.781,0.0,0.0,-0.01
1777319401.9521732,-21.76,-0.02,0.49,-0.001,0.084,9.787,-0.01,0.0,0.0
1777319401.9621418,-21.76,-0.02,0.49,-0.001,0.077,9.788,-0.01,0.0,0.0
1777319401.9721909,-21.76,-0.02,0.49,-0.007,0.086,9.787,-0.01,0.0,0.0
1777319401.9821703,-21.76,-0.02,0.49,-0.018,0.083,9.786,0.0,0.0,-0.01
1777319401.9921844,-21.76,-0.03,0.49,-0.018,0.077,9.786,0.0,-0.01,-0.01
1777319402.0021598,-21.76,-0.02,0.49,-0.017,0.078,9.79,0.0,0.0,-0.01
1777319402.0121822,-21.76,-0.02,0.49,-0.017,0.078,9.794,-0.01,-0.01,-0.01
1777319402.022176,-21.76,-0.02,0.49,-0.011,0.074,9.791,0.0,-0.01,0.0
1777319402.0322077,-21.77,-0.02,0.49,-0.001,0.09,9.794,0.0,-0.01,0.0
1777319402.0421834,-21.76,-0.02,0.49,-0.004,0.09,9.794,0.0,-0.01,-0.01
1777319402.0521662,-21.76,-0.02,0.5,0.005,0.079,9.791,0.0,0.0,-0.01
1777319402.0622306,-21.76,-0.02,0.49,-0.002,0.089,9.791,0.0,0.0,-0.01
1777319402.0723073,-21.76,-0.02,0.49,0.002,0.086,9.773,-0.01,-0.01,-0.01
1777319402.0821772,-21.76,-0.02,0.49,0.0,0.089,9.77,0.0,0.0,-0.01
1777319402.0921519,-21.76,-0.02,0.49,-0.006,0.093,9.774,-0.01,0.0,0.0
1777319402.1022055,-21.76,-0.02,0.5,-0.014,0.083,9.78,-0.01,-0.01,0.0
1777319402.1121466,-21.76,-0.02,0.49,-0.019,0.078,9.775,0.0,0.0,-0.01
1777319402.12217,-21.76,-0.02,0.49,-0.019,0.098,9.773,-0.01,-0.01,-0.01
1777319402.1321793,-21.76,-0.02,0.49,-0.012,0.08,9.774,0.0,-0.01,-0.01
1777319402.1421344,-21.76,-0.02,0.49,-0.011,0.081,9.772,0.0,0.0,-0.01
1777319402.152142,-21.76,-0.02,0.49,-0.012,0.091,9.782,-0.01,-0.01,0.0
1777319402.1621504,-21.76,-0.02,0.5,-0.007,0.102,9.779,-0.01,-0.01,0.0
1777319402.1723099,-21.76,-0.02,0.5,-0.005,0.097,9.776,0.0,-0.01,0.0
1777319402.1821578,-21.76,-0.02,0.5,0.0,0.101,9.782,0.0,0.0,0.0
1777319402.192145,-21.76,-0.02,0.5,-0.005,0.113,9.782,-0.01,0.0,0.0
1777319402.2021646,-21.76,-0.02,0.5,-0.001,0.092,9.79,0.0,-0.01,-0.01
1777319402.2121367,-21.76,-0.02,0.5,-0.002,0.075,9.785,0.0,0.0,-0.01
1777319402.222145,-21.76,-0.02,0.5,-0.004,0.073,9.784,-0.01,0.0,-0.01
1777319402.2321646,-21.76,-0.03,0.49,0.0,0.073,9.781,0.0,-0.01,-0.01
1777319402.2421775,-21.76,-0.02,0.5,-0.004,0.069,9.784,0.0,0.0,0.0
1777319402.2521517,-21.76,-0.02,0.5,-0.004,0.075,9.781,0.0,-0.01,0.0
1777319402.2621665,-21.76,-0.02,0.5,0.0,0.089,9.769,0.0,0.0,0.0
1777319402.2721782,-21.76,-0.02,0.5,0.0,0.101,9.77,-0.01,-0.01,0.0
1777319402.282197,-21.76,-0.02,0.5,-0.004,0.101,9.773,-0.01,-0.01,-0.01
1777319402.2921584,-21.76,-0.02,0.5,0.005,0.073,9.78,0.0,0.0,-0.01
1777319402.302151,-21.76,-0.02,0.5,0.008,0.075,9.788,-0.01,-0.01,-0.01
1777319402.3129802,-21.76,-0.02,0.5,0.008,0.069,9.784,-0.01,-0.01,0.0
1777319402.3221507,-21.76,-0.02,0.5,0.006,0.069,9.776,0.0,0.0,0.0
1777319402.3321717,-21.77,-0.01,0.49,-0.001,0.09,9.779,-0.01,-0.01,0.0
1777319402.3421457,-21.77,-0.02,0.5,-0.006,0.108,9.787,-0.01,0.0,0.0
1777319402.3521047,-21.77,-0.02,0.5,-0.006,0.093,9.79,0.0,0.0,0.0
1777319402.3621643,-21.76,-0.02,0.5,-0.006,0.102,9.785,0.0,0.0,-0.01
1777319402.3721447,-21.76,-0.02,0.5,-0.013,0.099,9.782,-0.01,0.0,-0.01
1777319402.382134,-21.76,-0.02,0.5,-0.006,0.08,9.78,0.0,0.0,-0.01
1777319402.3922043,-21.76,-0.02,0.5,-0.004,0.084,9.786,0.0,0.0,0.0
1777319402.4021587,-21.77,-0.02,0.5,-0.012,0.087,9.793,-0.01,-0.01,0.0
1777319402.412133,-21.77,-0.02,0.5,-0.016,0.09,9.797,-0.01,-0.01,0.0
1777319402.4221447,-21.77,-0.02,0.5,-0.013,0.09,9.8,0.0,0.0,0.0
1777319402.4321408,-21.77,-0.02,0.5,-0.011,0.096,9.802,-0.01,0.0,-0.01
1777319402.4421213,-21.76,-0.03,0.5,-0.005,0.081,9.8,-0.01,0.0,-0.01
1777319402.4521592,-21.76,-0.02,0.5,0.002,0.077,9.797,0.0,0.0,-0.01
1777319402.4621766,-21.76,-0.02,0.49,0.0,0.072,9.799,-0.01,0.0,-0.01
1777319402.4721167,-21.77,-0.02,0.5,0.001,0.069,9.798,-0.01,-0.01,0.0
1777319402.482116,-21.77,-0.02,0.5,0.0,0.072,9.791,0.0,0.0,0.0
1777319402.4921982,-21.77,-0.02,0.5,-0.01,0.074,9.793,0.0,0.0,0.0
1777319402.5021312,-21.77,-0.02,0.49,-0.007,0.091,9.79,0.0,0.0,0.0
1777319402.512125,-21.77,-0.02,0.5,-0.01,0.08,9.793,-0.01,-0.01,-0.01
1777319402.5221808,-21.76,-0.02,0.5,-0.002,0.08,9.786,0.0,-0.01,-0.01
1777319402.5314891,-21.76,-0.02,0.5,-0.004,0.081,9.781,0.0,0.0,-0.01
1777319402.5412707,-21.77,-0.02,0.49,0.0,0.078,9.785,-0.01,-0.01,0.0
1777319402.5521142,-21.77,-0.02,0.5,0.001,0.074,9.793,-0.01,0.0,0.0
1777319402.5612154,-21.77,-0.02,0.5,-0.002,0.09,9.784,0.0,0.0,0.0
1777319402.572136,-21.77,-0.02,0.5,-0.01,0.099,9.782,-0.01,0.0,0.0
1777319402.582134,-21.76,-0.02,0.5,-0.019,0.095,9.785,0.0,-0.01,-0.01
1777319402.5912933,-21.76,-0.03,0.49,-0.012,0.069,9.786,0.0,0.0,-0.01
1777319402.6021543,-21.75,-0.02,0.49,-0.013,0.062,9.784,-0.01,-0.01,-0.01
1777319402.6112661,-21.75,-0.02,0.49,-0.007,0.04,9.775,0.0,-0.01,-0.01
1777319402.6222332,-21.76,-0.02,0.48,-0.005,0.046,9.762,0.0,0.0,0.0
1777319402.6312773,-21.77,-0.02,0.48,-0.008,0.061,9.772,0.0,0.0,0.0
1777319402.6414661,-21.77,-0.02,0.49,-0.013,0.085,9.782,-0.01,-0.01,0.0
1777319402.6512465,-21.78,-0.02,0.49,-0.013,0.093,9.787,0.0,-0.01,0.0
1777319402.661254,-21.77,-0.03,0.49,-0.006,0.091,9.787,0.0,0.0,-0.01
1777319402.6712685,-21.77,-0.03,0.49,0.0,0.093,9.785,-0.01,0.0,-0.01
1777319402.6813612,-21.76,-0.02,0.49,0.005,0.087,9.79,0.0,0.0,-0.01
1777319402.6912236,-21.76,-0.02,0.49,0.005,0.077,9.787,0.0,0.0,-0.01
1777319402.7012613,-21.77,-0.02,0.49,0.001,0.087,9.79,-0.01,0.0,0.0
1777319402.7112617,-21.78,-0.02,0.49,-0.001,0.083,9.791,-0.01,-0.01,0.0
1777319402.7212746,-21.78,-0.03,0.49,-0.006,0.099,9.791,-0.01,0.0,0.0
1777319402.7312422,-21.78,-0.03,0.49,-0.013,0.103,9.796,-0.01,0.0,0.0
1777319402.7412548,-21.77,-0.03,0.49,-0.019,0.092,9.791,0.0,0.0,-0.01
1777319402.7512836,-21.76,-0.03,0.49,-0.018,0.072,9.793,0.0,-0.01,-0.01
1777319402.7612572,-21.76,-0.03,0.49,-0.006,0.059,9.796,0.0,-0.01,-0.01
1777319402.7713156,-21.76,-0.02,0.49,0.0,0.055,9.799,-0.01,-0.01,-0.01
1777319402.7812726,-21.77,-0.02,0.49,0.01,0.054,9.791,0.0,-0.01,0.0
1777319402.7912405,-21.78,-0.02,0.49,0.01,0.072,9.797,0.0,0.0,0.0
1777319402.8012178,-21.78,-0.02,0.49,0.005,0.098,9.8,-0.01,-0.01,0.0
1777319402.8112707,-21.78,-0.02,0.5,0.002,0.115,9.803,-0.01,-0.01,0.0
1777319402.8212314,-21.78,-0.02,0.5,0.001,0.113,9.803,0.0,0.0,-0.01
1777319402.8312376,-21.77,-0.02,0.5,0.0,0.116,9.802,-0.01,0.0,-0.01
1777319402.8412187,-21.76,-0.03,0.5,-0.006,0.09,9.798,-0.01,0.0,-0.01
1777319402.8512173,-21.76,-0.03,0.49,0.004,0.081,9.793,0.0,0.0,-0.01
1777319402.861261,-21.77,-0.02,0.49,-0.011,0.069,9.799,-0.01,0.0,0.0
1777319402.8712115,-21.78,-0.02,0.49,-0.017,0.066,9.792,-0.01,-0.01,0.0
1777319402.8812337,-21.78,-0.03,0.49,-0.019,0.063,9.782,0.0,-0.01,0.0
1777319402.891264,-21.78,-0.02,0.49,-0.018,0.072,9.784,0.0,-0.01,0.0
1777319402.9012556,-21.78,-0.02,0.49,-0.016,0.073,9.78,0.0,-0.01,-0.01
1777319402.9112246,-21.78,-0.02,0.49,-0.011,0.067,9.779,0.0,0.0,-0.01
1777319402.921217,-21.78,-0.02,0.49,-0.001,0.079,9.775,0.0,-0.01,-0.01
1777319402.931224,-21.78,-0.02,0.49,0.005,0.089,9.782,0.0,-0.01,-0.01
1777319402.9412036,-21.78,-0.02,0.5,0.004,0.092,9.788,0.0,-0.01,0.0
1777319402.9512186,-21.78,-0.02,0.5,0.004,0.097,9.79,0.0,0.0,0.0
1777319402.961212,-21.78,-0.02,0.5,0.006,0.109,9.787,-0.01,-0.01,0.0
1777319402.9712582,-21.78,-0.02,0.5,0.0,0.108,9.785,-0.01,0.0,-0.01
1777319402.981242,-21.77,-0.02,0.5,-0.008,0.097,9.78,-0.01,0.0,-0.01
1777319402.9912324,-21.77,-0.02,0.49,-0.007,0.069,9.784,0.0,0.0,-0.01
1777319403.0012743,-21.76,-0.02,0.49,-0.017,0.065,9.79,-0.01,-0.01,-0.01
1777319403.011291,-21.76,-0.02,0.48,-0.013,0.055,9.788,-0.01,-0.01,-0.01
1777319403.0213296,-21.77,-0.02,0.48,-0.019,0.038,9.782,0.0,-0.01,0.0
1777319403.03119,-21.77,-0.02,0.48,-0.014,0.047,9.776,0.0,0.0,0.0
1777319403.041228,-21.78,-0.02,0.49,-0.012,0.061,9.781,-0.01,-0.01,0.0
1777319403.0512853,-21.78,-0.02,0.49,-0.001,0.077,9.786,0.0,-0.01,0.0
1777319403.0613358,-21.78,-0.02,0.49,0.002,0.089,9.792,0.0,-0.01,0.0
1777319403.0715315,-21.77,-0.02,0.5,0.0,0.104,9.792,-0.01,-0.01,-0.01
1777319403.0812132,-21.77,-0.02,0.5,0.008,0.098,9.79,0.0,0.0,-0.01
1777319403.091187,-21.77,-0.02,0.5,0.008,0.098,9.792,-0.01,0.0,-0.01
1777319403.1011968,-21.77,-0.02,0.49,0.002,0.093,9.782,-0.01,0.0,0.0
1777319403.1112316,-21.77,-0.02,0.5,-0.002,0.079,9.775,-0.01,0.0,0.0
1777319403.1212401,-21.78,-0.02,0.49,-0.004,0.078,9.775,0.0,0.0,0.0
1777319403.1311908,-21.78,-0.02,0.49,-0.007,0.075,9.782,-0.01,-0.01,0.0
1777319403.1412451,-21.77,-0.02,0.49,-0.008,0.071,9.785,0.0,0.0,-0.01
1777319403.1512325,-21.77,-0.02,0.49,-0.014,0.071,9.784,0.0,-0.01,-0.01
1777319403.1612413,-21.77,-0.02,0.49,-0.013,0.078,9.78,0.0,-0.01,-0.01
1777319403.1712418,-21.77,-0.02,0.49,-0.01,0.075,9.781,-0.01,-0.01,0.0
1777319403.181216,-21.78,-0.02,0.49,-0.006,0.084,9.785,0.0,-0.01,0.0
1777319403.1912608,-21.78,-0.02,0.49,0.0,0.103,9.785,0.0,-0.01,0.0
1777319403.2012093,-21.78,-0.02,0.5,0.002,0.12,9.785,-0.01,0.0,0.0
1777319403.2112215,-21.77,-0.02,0.5,0.007,0.097,9.785,0.0,0.0,-0.01
1777319403.2212245,-21.77,-0.02,0.5,0.002,0.101,9.787,0.0,0.0,-0.01
1777319403.231224,-21.76,-0.02,0.5,0.005,0.084,9.791,-0.01,-0.01,-0.01
1777319403.2411973,-21.77,-0.02,0.5,0.002,0.067,9.778,0.0,0.0,-0.01
1777319403.251411,-21.77,-0.02,0.49,0.0,0.056,9.787,-0.01,-0.01,0.0
1777319403.2615473,-21.78,-0.02,0.49,-0.002,0.075,9.786,-0.01,-0.01,0.0
1777319403.2712455,-21.78,-0.02,0.49,-0.01,0.077,9.792,0.0,0.0,0.0
1777319403.2812252,-21.78,-0.02,0.49,-0.013,0.08,9.794,0.0,0.0,0.0
1777319403.291207,-21.77,-0.02,0.49,-0.019,0.09,9.794,-0.01,0.0,-0.01
1777319403.3012314,-21.77,-0.03,0.49,-0.017,0.103,9.793,-0.01,-0.01,-0.01
1777319403.311226,-21.77,-0.02,0.49,-0.011,0.093,9.793,0.0,0.0,-0.01
1777319403.3212328,-21.77,-0.02,0.49,-0.004,0.085,9.792,0.0,0.0,-0.01
1777319403.3312159,-21.77,-0.02,0.49,0.001,0.092,9.791,-0.01,0.0,0.0
1777319403.3412158,-21.78,-0.02,0.49,0.0,0.089,9.791,-0.01,-0.01,0.0
1777319403.3512323,-21.78,-0.02,0.49,0.002,0.074,9.786,0.0,0.0,0.0
1777319403.3612275,-21.78,-0.02,0.48,0.008,0.085,9.788,-0.01,0.0,0.0
1777319403.3712192,-21.77,-0.02,0.49,-0.004,0.074,9.794,-0.01,-0.01,-0.01
1777319403.3812263,-21.77,-0.02,0.49,-0.01,0.08,9.781,0.0,0.0,-0.01
1777319403.3914902,-21.76,-0.02,0.49,-0.017,0.062,9.782,0.0,-0.01,-0.01
1777319403.4012065,-21.76,-0.02,0.48,-0.006,0.066,9.782,0.0,-0.01,-0.01
1777319403.4112642,-21.76,-0.02,0.49,-0.011,0.068,9.788,-0.01,-0.01,-0.01
1777319403.421206,-21.77,-0.02,0.49,-0.005,0.071,9.778,0.0,-0.01,0.0
1777319403.4312043,-21.77,-0.01,0.49,0.001,0.092,9.77,0.0,-0.01,0.0
1777319403.4411893,-21.78,-0.01,0.49,0.005,0.12,9.778,-0.01,-0.01,0.0
1777319403.451472,-21.78,-0.01,0.49,0.011,0.114,9.78,0.0,-0.01,0.0
1777319403.4611707,-21.78,-0.01,0.49,0.005,0.105,9.787,0.0,0.0,-0.01
1777319403.4711957,-21.77,-0.01,0.49,0.004,0.102,9.787,-0.01,0.0,-0.01
1777319403.481233,-21.77,-0.02,0.49,0.006,0.091,9.788,-0.01,0.0,-0.01
1777319403.4914005,-21.77,-0.02,0.49,-0.004,0.073,9.787,-0.01,0.0,-0.01
1777319403.5011861,-21.77,-0.02,0.49,-0.007,0.071,9.788,-0.01,0.0,-0.01
1777319403.5112407,-21.77,-0.02,0.49,-0.018,0.063,9.786,-0.01,0.0,0.0
1777319403.5212135,-21.77,-0.02,0.48,-0.019,0.068,9.782,0.0,-0.01,0.0
1777319403.5311928,-21.78,-0.02,0.48,-0.018,0.065,9.787,-0.01,0.0,0.0
1777319403.5411773,-21.78,-0.02,0.49,-0.019,0.077,9.787,0.0,-0.01,0.0
1777319403.5512342,-21.78,-0.02,0.49,-0.016,0.093,9.788,0.0,-0.01,0.0
1777319403.5611825,-21.77,-0.02,0.49,-0.019,0.107,9.792,-0.01,-0.01,-0.01
1777319403.5711858,-21.77,-0.02,0.5,-0.017,0.084,9.794,0.0,-0.01,-0.01
1777319403.5803194,-21.76,-0.02,0.49,-0.008,0.068,9.793,0.0,0.0,-0.01
1777319403.5911944,-21.76,-0.02,0.49,-0.005,0.071,9.797,-0.01,-0.01,-0.01
1777319403.6003282,-21.77,-0.02,0.49,0.001,0.065,9.797,-0.01,-0.01,0.0
1777319403.6111894,-21.78,-0.02,0.49,0.0,0.069,9.791,0.0,0.0,0.0
1777319403.6220734,-21.78,-0.02,0.49,0.002,0.091,9.792,0.0,0.0,0.0
1777319403.631202,-21.79,-0.02,0.5,0.0,0.104,9.792,-0.01,0.0,0.0
1777319403.6403255,-21.78,-0.02,0.5,-0.008,0.108,9.793,0.0,0.0,-0.01
1777319403.6510797,-21.78,-0.03,0.5,-0.014,0.098,9.792,0.0,0.0,-0.01
1777319403.6602838,-21.77,-0.03,0.5,-0.012,0.092,9.785,-0.01,0.0,-0.01
1777319403.670332,-21.77,-0.03,0.5,-0.011,0.083,9.779,-0.01,-0.01,-0.01
1777319403.6812112,-21.78,-0.03,0.49,-0.01,0.065,9.786,0.0,-0.01,0.0
1777319403.6912067,-21.78,-0.03,0.49,-0.014,0.077,9.792,0.0,-0.01,0.0
1777319403.7012033,-21.79,-0.03,0.49,-0.016,0.081,9.796,-0.01,-0.01,0.0
1777319403.710346,-21.79,-0.03,0.49,-0.016,0.086,9.791,0.0,-0.01,0.0
1777319403.7203052,-21.79,-0.03,0.49,-0.007,0.089,9.794,0.0,0.0,0.0
1777319403.7303157,-21.78,-0.03,0.49,-0.001,0.096,9.799,-0.01,0.0,-0.01
1777319403.740341,-21.78,-0.03,0.49,0.001,0.079,9.802,0.0,-0.01,-0.01
1777319403.7511895,-21.78,-0.03,0.49,0.006,0.065,9.794,0.0,0.0,-0.01
1777319403.760302,-21.78,-0.02,0.49,0.006,0.084,9.796,-0.01,0.0,0.0
1777319403.7703185,-21.79,-0.03,0.49,0.002,0.079,9.798,0.0,-0.01,0.0
1777319403.7803593,-21.79,-0.03,0.49,-0.006,0.068,9.796,0.0,0.0,0.0
1777319403.7903066,-21.79,-0.03,0.49,-0.016,0.069,9.794,-0.01,-0.01,0.0
1777319403.8003168,-21.78,-0.03,0.49,-0.016,0.071,9.788,0.0,-0.01,-0.01
1777319403.810321,-21.78,-0.03,0.49,-0.017,0.068,9.778,0.0,-0.01,-0.01
1777319403.8203125,-21.78,-0.03,0.49,-0.011,0.061,9.786,0.0,-0.01,-0.01
1777319403.8303401,-21.78,-0.03,0.49,-0.01,0.079,9.787,0.0,0.0,-0.01
1777319403.84038,-21.78,-0.03,0.49,0.001,0.075,9.786,0.0,-0.01,0.0
1777319403.8503518,-21.78,-0.02,0.49,0.006,0.086,9.788,0.0,0.0,0.0
1777319403.8603055,-21.79,-0.02,0.49,0.01,0.087,9.79,0.0,-0.01,0.0
1777319403.870324,-21.79,-0.02,0.49,0.01,0.099,9.792,-0.01,0.0,0.0
1777319403.8803236,-21.79,-0.02,0.49,0.011,0.092,9.792,0.0,0.0,0.0
1777319403.8903003,-21.79,-0.02,0.49,0.006,0.085,9.791,0.0,0.0,-0.01
1777319403.9002936,-21.78,-0.02,0.49,0.001,0.079,9.792,-0.01,0.0,-0.01
1777319403.9103243,-21.78,-0.02,0.49,-0.002,0.072,9.794,-0.01,0.0,-0.01
1777319403.9203262,-21.79,-0.02,0.49,-0.005,0.063,9.792,0.0,-0.01,-0.01
1777319403.9303367,-21.79,-0.02,0.49,-0.01,0.068,9.796,0.0,-0.01,0.0
1777319403.9402993,-21.79,-0.02,0.49,-0.016,0.081,9.791,0.0,-0.01,0.0
1777319403.9502761,-21.79,-0.02,0.49,-0.01,0.068,9.788,0.0,-0.01,-0.01
1777319403.9603164,-21.78,-0.02,0.49,-0.008,0.083,9.796,-0.01,-0.01,-0.01
1777319403.9703002,-21.78,-0.02,0.49,0.005,0.078,9.794,0.0,-0.01,-0.01
1777319403.9802852,-21.78,-0.01,0.49,0.014,0.084,9.788,0.0,-0.01,-0.01
1777319403.9902854,-21.79,-0.01,0.49,0.014,0.096,9.788,0.0,-0.01,0.0
1777319404.0003383,-21.79,-0.01,0.49,0.018,0.107,9.79,-0.01,0.0,0.0
1777319404.0102873,-21.79,-0.01,0.49,0.017,0.111,9.791,-0.01,0.0,0.0
1777319404.0202882,-21.79,-0.01,0.49,0.006,0.107,9.788,-0.01,0.0,-0.01
1777319404.0303133,-21.78,-0.01,0.49,-0.002,0.085,9.785,0.0,0.0,-0.01
1777319404.040286,-21.78,-0.02,0.48,-0.001,0.066,9.784,-0.01,0.0,-0.01
1777319404.0502932,-21.78,-0.02,0.48,-0.013,0.065,9.782,-0.01,0.0,-0.01
1777319404.0603297,-21.78,-0.02,0.48,-0.017,0.061,9.778,0.0,0.0,-0.01
1777319404.0702965,-21.78,-0.02,0.48,-0.017,0.062,9.779,0.0,-0.01,0.0
1777319404.0802727,-21.78,-0.02,0.48,-0.016,0.069,9.781,0.0,-0.01,0.0
1777319404.0902772,-21.78,-0.02,0.49,-0.011,0.084,9.78,0.0,-0.01,0.0
1777319404.1002593,-21.78,-0.01,0.49,-0.008,0.092,9.782,0.0,-0.01,-0.01
1777319404.1102848,-21.78,-0.01,0.49,0.002,0.105,9.782,0.0,-0.01,-0.01
1777319404.1202788,-21.78,-0.01,0.49,0.005,0.11,9.79,-0.01,0.0,-0.01
1777319404.1302717,-21.78,-0.01,0.49,0.014,0.098,9.792,-0.01,0.0,-0.01
1777319404.1402822,-21.78,-0.01,0.49,0.005,0.089,9.788,-0.01,0.0,-0.01
1777319404.1502674,-21.78,-0.01,0.49,0.007,0.078,9.787,-0.01,0.0,0.0
1777319404.1602767,-21.78,-0.01,0.48,-0.004,0.073,9.792,-0.01,0.0,0.0
1777319404.1702588,-21.78,-0.02,0.48,-0.005,0.074,9.788,-0.01,0.0,0.0
1777319404.1802988,-21.78,-0.02,0.48,-0.018,0.06,9.782,0.0,0.0,-0.01
1777319404.1902933,-21.78,-0.02,0.48,-0.014,0.056,9.769,0.0,-0.01,-0.01
1777319404.2002826,-21.78,-0.02,0.48,-0.018,0.055,9.78,0.0,-0.01,-0.01
1777319404.210282,-21.78,-0.02,0.48,-0.016,0.06,9.787,0.0,-0.01,0.0
1777319404.2205088,-21.79,-0.02,0.48,-0.01,0.075,9.791,-0.01,-0.01,0.0
1777319404.23029,-21.79,-0.01,0.48,0.0,0.092,9.782,0.0,-0.01,0.0
1777319404.2402563,-21.79,-0.01,0.49,0.007,0.11,9.786,0.0,-0.01,0.0
1777319404.250307,-21.79,-0.01,0.49,0.008,0.113,9.792,-0.01,-0.01,-0.01
1777319404.260284,-21.79,-0.01,0.49,0.017,0.101,9.79,0.0,0.0,-0.01
1777319404.27027,-21.79,-0.01,0.49,0.012,0.092,9.791,0.0,0.0,-0.01
1777319404.2803454,-21.79,-0.01,0.48,0.012,0.085,9.793,-0.01,0.0,0.0
1777319404.2902942,-21.79,-0.01,0.48,0.0,0.069,9.788,-0.01,0.0,0.0
1777319404.3003008,-21.79,-0.01,0.48,-0.014,0.054,9.787,0.0,0.0,0.0
1777319404.3102758,-21.79,-0.02,0.48,-0.017,0.065,9.785,-0.01,-0.01,0.0
1777319404.3202968,-21.79,-0.02,0.48,-0.016,0.068,9.779,0.0,-0.01,-0.01
1777319404.3302777,-21.79,-0.02,0.48,-0.019,0.067,9.787,0.0,-0.01,-0.01
1777319404.3402753,-21.79,-0.01,0.48,-0.017,0.075,9.781,0.0,0.0,-0.01
1777319404.3502731,-21.79,-0.01,0.48,-0.012,0.081,9.786,-0.01,-0.01,0.0
1777319404.3602638,-21.79,-0.01,0.48,-0.004,0.08,9.785,0.0,-0.01,0.0
1777319404.370286,-21.79,-0.01,0.48,0.01,0.096,9.785,-0.01,-0.01,0.0
1777319404.3802676,-21.79,-0.01,0.49,0.007,0.107,9.791,-0.01,0.0,0.0
1777319404.3902502,-21.79,-0.01,0.48,0.011,0.095,9.791,0.0,0.0,0.0
1777319404.4003484,-21.79,-0.01,0.48,0.007,0.087,9.788,-0.01,0.0,-0.01
1777319404.4103122,-21.79,-0.01,0.48,0.008,0.061,9.781,-0.01,-0.01,-0.01
1777319404.4202883,-21.79,-0.02,0.47,0.0,0.063,9.781,-0.01,0.0,-0.01
1777319404.4303207,-21.79,-0.02,0.47,-0.012,0.053,9.781,0.0,0.0,-0.01
1777319404.4402757,-21.79,-0.02,0.47,-0.022,0.048,9.779,0.0,0.0,0.0
1777319404.4502938,-21.79,-0.02,0.47,-0.025,0.051,9.779,0.0,-0.01,0.0
1777319404.4602816,-21.79,-0.02,0.47,-0.024,0.085,9.776,0.0,-0.01,0.0
1777319404.4702742,-21.79,-0.02,0.47,-0.023,0.087,9.785,0.0,-0.01,0.0
1777319404.4803634,-21.8,-0.02,0.48,-0.014,0.101,9.79,0.0,-0.01,0.0
1777319404.4902961,-21.79,-0.01,0.48,-0.008,0.101,9.792,0.0,-0.01,0.0
1777319404.500319,-21.79,-0.01,0.48,0.001,0.109,9.793,0.0,-0.01,-0.01
1777319404.5103076,-21.79,-0.01,0.48,0.005,0.102,9.792,-0.01,0.0,-0.01
1777319404.520266,-21.79,-0.01,0.48,0.001,0.098,9.791,-0.01,0.0,-0.01
1777319404.532698,-21.79,-0.01,0.48,0.001,0.067,9.786,0.0,0.0,-0.01
1777319404.543562,-21.79,-0.02,0.47,-0.004,0.072,9.788,-0.01,0.0,-0.01
1777319404.5504272,-21.79,-0.02,0.47,-0.008,0.065,9.791,-0.01,0.0,-0.01
1777319404.6034088,-21.79,-0.02,0.48,-0.012,0.068,9.781,0.0,0.0,0.0
1777319404.6049356,-21.79,-0.02,0.47,-0.019,0.065,9.788,0.0,-0.01,-0.01
1777319404.6063755,-21.79,-0.02,0.47,-0.018,0.078,9.794,-0.01,-0.01,-0.01
1777319404.6078222,-21.79,-0.02,0.48,-0.012,0.08,9.797,0.0,-0.01,-0.01
1777319404.6092553,-21.79,-0.02,0.48,-0.011,0.089,9.799,0.0,-0.01,-0.01
1777319404.6106567,-21.79,-0.01,0.48,-0.006,0.086,9.798,0.0,-0.01,0.0
1777319404.620384,-21.79,-0.01,0.48,0.007,0.096,9.792,0.0,-0.01,0.0
1777319404.6352408,-21.79,-0.01,0.48,0.004,0.099,9.793,-0.01,-0.01,0.0
1777319404.640255,-21.79,-0.01,0.48,0.017,0.086,9.796,0.0,-0.01,0.0
1777319404.6818173,-21.79,-0.01,0.48,0.018,0.092,9.792,-0.01,0.0,0.0
1777319404.6849227,-21.79,-0.01,0.48,0.012,0.084,9.797,-0.01,0.0,-0.01
1777319404.6921086,-21.79,-0.01,0.48,0.01,0.08,9.792,0.0,0.0,-0.01
1777319404.7017407,-21.79,-0.01,0.48,-0.006,0.072,9.793,0.0,0.0,0.0
1777319404.718258,-21.79,-0.02,0.48,-0.014,0.078,9.784,0.0,0.0,0.0
1777319404.719927,-21.79,-0.02,0.48,-0.018,0.071,9.788,0.0,0.0,0.0
1777319404.721369,-21.79,-0.02,0.47,-0.018,0.087,9.786,0.0,-0.01,-0.01
1777319404.7227852,-21.79,-0.02,0.48,-0.018,0.085,9.792,-0.01,-0.01,0.0
1777319404.7305636,-21.79,-0.02,0.48,-0.01,0.078,9.791,0.0,-0.01,0.0
1777319404.7394414,-21.8,-0.01,0.48,-0.002,0.081,9.796,0.0,0.0,0.0
1777319404.7494495,-21.8,-0.02,0.48,0.004,0.091,9.797,-0.01,-0.01,0.0
1777319404.7610931,-21.79,-0.01,0.48,0.01,0.102,9.799,-0.01,0.0,-0.01
1777319404.7704256,-21.79,-0.01,0.48,0.008,0.092,9.802,0.0,0.0,-0.01
1777319404.7794592,-21.79,-0.01,0.48,0.004,0.087,9.803,-0.01,0.0,-0.01
1777319404.7897973,-21.79,-0.01,0.48,0.0,0.086,9.796,-0.01,0.0,-0.01
1777319404.7995121,-21.79,-0.02,0.48,-0.005,0.068,9.78,-0.01,-0.01,-0.01
1777319404.8103483,-21.78,-0.02,0.47,-0.01,0.061,9.781,0.0,-0.01,-0.01
1777319404.8202894,-21.78,-0.02,0.47,-0.012,0.055,9.786,-0.01,-0.01,-0.01
1777319404.8294935,-21.78,-0.02,0.47,-0.001,0.048,9.787,0.0,0.0,-0.01
1777319404.8395023,-21.79,-0.02,0.47,0.002,0.046,9.77,0.0,-0.01,0.0
1777319404.8499382,-21.79,-0.02,0.47,0.008,0.084,9.775,0.0,-0.01,0.0
1777319404.8602877,-21.8,-0.01,0.48,0.002,0.098,9.784,-0.01,-0.01,0.0
1777319404.8695066,-21.8,-0.01,0.49,0.004,0.114,9.785,0.0,0.0,0.0
1777319404.8794878,-21.79,-0.01,0.49,0.005,0.119,9.791,0.0,-0.01,-0.01
1777319404.889466,-21.79,-0.01,0.49,0.008,0.117,9.787,-0.01,-0.01,-0.01
1777319404.8997726,-21.79,-0.01,0.49,0.005,0.099,9.79,-0.01,0.0,-0.01
1777319404.9101362,-21.79,-0.01,0.48,0.0,0.083,9.79,0.0,0.0,-0.01
1777319404.9194489,-21.79,-0.01,0.48,-0.01,0.084,9.791,-0.01,0.0,0.0
1777319404.929966,-21.79,-0.02,0.47,-0.02,0.069,9.792,-0.01,-0.01,0.0
1777319404.9394543,-21.8,-0.02,0.47,-0.023,0.068,9.791,0.0,0.0,0.0
1777319404.9497902,-21.8,-0.02,0.47,-0.029,0.068,9.791,0.0,0.0,0.0
1777319404.9594452,-21.79,-0.02,0.47,-0.019,0.083,9.79,-0.01,-0.01,-0.01
1777319404.9694805,-21.79,-0.02,0.48,-0.022,0.067,9.794,0.0,-0.01,-0.01
1777319404.9794767,-21.79,-0.02,0.48,-0.017,0.067,9.787,0.0,-0.01,-0.01
1777319404.98947,-21.79,-0.02,0.47,-0.01,0.073,9.791,0.0,-0.01,0.0
1777319404.9993646,-21.8,-0.01,0.48,-0.004,0.089,9.792,-0.01,-0.01,0.0
1777319405.0094323,-21.8,-0.01,0.48,0.006,0.086,9.79,-0.01,0.0,0.0
1777319405.019496,-21.8,-0.01,0.48,0.002,0.097,9.794,-0.01,0.0,0.0
1777319405.0293067,-21.8,-0.01,0.48,0.005,0.107,9.792,0.0,-0.01,-0.01
1777319405.039605,-21.8,-0.01,0.48,0.005,0.096,9.792,-0.01,-0.01,-0.01
1777319405.049379,-21.79,-0.01,0.48,0.001,0.084,9.788,-0.01,0.0,-0.01
1777319405.0593877,-21.79,-0.01,0.48,-0.002,0.069,9.786,-0.01,0.0,-0.01
1777319405.0693555,-21.79,-0.02,0.47,-0.011,0.077,9.786,-0.01,-0.01,-0.01
1777319405.0793555,-21.79,-0.02,0.48,-0.019,0.077,9.778,-0.01,-0.01,-0.01
1777319405.0894375,-21.79,-0.02,0.47,-0.016,0.06,9.775,0.0,0.0,0.0
1777319405.099362,-21.79,-0.02,0.47,-0.018,0.087,9.784,0.0,-0.01,-0.01
1777319405.109322,-21.79,-0.02,0.48,-0.011,0.073,9.786,0.0,-0.01,-0.01
1777319405.119532,-21.79,-0.01,0.48,-0.01,0.072,9.778,0.0,0.0,-0.01
1777319405.1293874,-21.79,-0.01,0.48,-0.007,0.079,9.786,0.0,-0.01,0.0
1777319405.1393187,-21.8,-0.01,0.48,-0.001,0.095,9.785,-0.01,-0.01,0.0
1777319405.1493063,-21.8,-0.01,0.48,0.008,0.102,9.79,0.0,0.0,0.0
1777319405.1593626,-21.8,-0.01,0.48,0.005,0.107,9.794,-0.01,0.0,0.0
1777319405.1693332,-21.8,-0.01,0.49,0.001,0.104,9.787,-0.01,0.0,0.0
1777319405.1792989,-21.8,-0.02,0.48,-0.004,0.102,9.778,0.0,0.0,-0.01
1777319405.1893444,-21.8,-0.02,0.48,-0.011,0.096,9.778,-0.01,0.0,-0.01
1777319405.1994653,-21.8,-0.02,0.48,-0.011,0.086,9.775,0.0,0.0,-0.01
1777319405.2093322,-21.8,-0.02,0.47,-0.013,0.074,9.784,-0.01,-0.01,-0.01
1777319405.2193477,-21.8,-0.02,0.47,-0.013,0.071,9.78,-0.01,-0.01,0.0
1777319405.2293313,-21.8,-0.02,0.47,-0.008,0.071,9.779,0.0,-0.01,0.0
1777319405.239368,-21.81,-0.02,0.47,-0.011,0.077,9.787,-0.01,-0.01,0.0
1777319405.2493157,-21.81,-0.02,0.47,-0.002,0.069,9.793,0.0,-0.01,0.0
1777319405.2593555,-21.81,-0.02,0.47,0.002,0.077,9.794,0.0,0.0,0.0
1777319405.2694416,-21.8,-0.01,0.48,0.005,0.086,9.791,-0.01,-0.01,-0.01
1777319405.2793674,-21.8,-0.01,0.48,0.02,0.079,9.787,0.0,-0.01,-0.01
1777319405.2893212,-21.8,-0.02,0.47,0.016,0.093,9.793,0.0,0.0,-0.01
1777319405.299489,-21.79,-0.01,0.48,0.017,0.093,9.794,-0.01,0.0,-0.01
1777319405.3093836,-21.79,-0.01,0.48,0.007,0.095,9.793,0.0,0.0,-0.01
1777319405.319363,-21.8,-0.01,0.48,0.002,0.085,9.786,0.0,-0.01,-0.01
1777319405.329327,-21.8,-0.01,0.48,-0.002,0.085,9.79,-0.01,-0.01,0.0
1777319405.3393555,-21.8,-0.01,0.48,-0.007,0.081,9.786,0.0,0.0,0.0
1777319405.3493514,-21.79,-0.02,0.47,-0.016,0.081,9.784,0.0,-0.01,-0.01
1777319405.359339,-21.79,-0.02,0.48,-0.011,0.073,9.785,-0.01,-0.01,-0.01
1777319405.3693175,-21.79,-0.02,0.47,-0.02,0.067,9.791,0.0,0.0,-0.01
1777319405.3793552,-21.79,-0.02,0.47,-0.007,0.073,9.781,0.0,-0.01,-0.01
1777319405.3898735,-21.79,-0.02,0.47,-0.007,0.069,9.781,-0.01,-0.01,0.0
1777319405.399419,-21.8,-0.02,0.47,0.0,0.081,9.786,-0.01,-0.01,0.0
1777319405.4093404,-21.8,-0.01,0.48,0.0,0.09,9.792,0.0,0.0,0.0
1777319405.4193444,-21.81,-0.01,0.48,0.001,0.097,9.788,0.0,-0.01,0.0
1777319405.4292839,-21.8,-0.01,0.48,0.005,0.108,9.792,0.0,0.0,0.0
1777319405.439299,-21.8,-0.01,0.48,0.004,0.104,9.796,-0.01,0.0,-0.01
1777319405.4493504,-21.8,-0.01,0.48,0.0,0.09,9.794,0.0,0.0,-0.01
1777319405.4593003,-21.8,-0.01,0.48,-0.005,0.084,9.793,-0.01,0.0,-0.01
1777319405.4693854,-21.8,-0.01,0.48,0.0,0.087,9.785,0.0,-0.01,0.0
1777319405.4793005,-21.81,-0.01,0.48,-0.008,0.084,9.786,0.0,0.0,0.0
1777319405.4893253,-21.81,-0.02,0.48,-0.012,0.096,9.784,-0.01,0.0,0.0
1777319405.4993358,-21.81,-0.02,0.48,0.0,0.089,9.785,-0.01,-0.01,0.0
1777319405.5093038,-21.81,-0.01,0.48,0.001,0.079,9.791,0.0,-0.01,-0.01
1777319405.5192957,-21.81,-0.01,0.48,0.005,0.081,9.793,0.0,-0.01,-0.01
1777319405.5293481,-21.8,-0.01,0.48,0.001,0.078,9.788,-0.01,-0.01,-0.01
1777319405.5393353,-21.8,-0.01,0.48,0.004,0.08,9.79,0.0,0.0,-0.01
1777319405.5493164,-21.8,-0.01,0.48,-0.004,0.069,9.794,0.0,0.0,-0.01
1777319405.5593371,-21.8,-0.01,0.48,-0.008,0.078,9.794,0.0,-0.01,-0.01
1777319405.5693247,-21.8,-0.01,0.48,-0.013,0.074,9.798,-0.01,0.0,-0.01
1777319405.5793474,-21.8,-0.02,0.48,-0.012,0.08,9.797,0.0,0.0,0.0
1777319405.5892947,-21.81,-0.01,0.48,-0.011,0.095,9.799,0.0,-0.01,0.0
1777319405.5993176,-21.81,-0.02,0.48,-0.013,0.099,9.802,0.0,-0.01,0.0
1777319405.6093338,-21.8,-0.02,0.49,-0.012,0.109,9.802,-0.01,-0.01,-0.01
1777319405.619308,-21.8,-0.02,0.49,-0.007,0.096,9.798,0.0,-0.01,-0.01
1777319405.629301,-21.8,-0.02,0.49,-0.007,0.091,9.791,-0.01,0.0,-0.01
1777319405.6393342,-21.8,-0.02,0.48,-0.006,0.079,9.794,-0.01,0.0,-0.01
1777319405.6493514,-21.8,-0.02,0.48,-0.004,0.075,9.798,-0.01,-0.01,0.0
1777319405.6593194,-21.81,-0.01,0.48,-0.007,0.083,9.8,0.0,0.0,0.0
1777319405.6693027,-21.81,-0.02,0.48,0.0,0.074,9.797,0.0,-0.01,0.0
1777319405.6795123,-21.81,-0.01,0.48,-0.004,0.087,9.796,0.0,0.0,0.0
1777319405.6893249,-21.8,-0.01,0.48,0.001,0.086,9.794,0.0,-0.01,-0.01
1777319405.6993535,-21.8,-0.02,0.49,-0.001,0.093,9.792,-0.01,0.0,-0.01
1777319405.709311,-21.8,-0.02,0.49,-0.008,0.097,9.797,0.0,0.0,-0.01
1777319405.7193177,-21.8,-0.02,0.49,-0.014,0.091,9.797,0.0,0.0,-0.01
1777319405.7292883,-21.8,-0.02,0.48,-0.008,0.092,9.8,0.0,0.0,-0.01
1777319405.7393477,-21.8,-0.02,0.49,-0.008,0.098,9.803,-0.01,-0.01,0.0
1777319405.7493083,-21.8,-0.02,0.49,-0.002,0.085,9.798,0.0,0.0,0.0
1777319405.7593248,-21.8,-0.02,0.48,0.001,0.079,9.796,0.0,0.0,0.0
1777319405.768426,-21.8,-0.02,0.48,0.0,0.085,9.799,-0.01,-0.01,0.0
1777319405.7793984,-21.8,-0.02,0.49,0.004,0.091,9.799,-0.01,0.0,-0.01
1777319405.7893875,-21.8,-0.02,0.49,0.004,0.08,9.797,0.0,0.0,-0.01
1777319405.7984428,-21.81,-0.02,0.48,0.002,0.079,9.794,0.0,0.0,0.0
1777319405.8084433,-21.81,-0.02,0.48,0.0,0.083,9.796,0.0,0.0,0.0
1777319405.8193297,-21.82,-0.02,0.49,0.0,0.084,9.797,0.0,-0.01,0.0
1777319405.8285036,-21.82,-0.02,0.48,-0.002,0.097,9.796,0.0,0.0,0.0
1777319405.8384163,-21.82,-0.02,0.49,-0.011,0.097,9.791,-0.01,-0.01,0.0
1777319405.8484464,-21.82,-0.02,0.49,-0.002,0.099,9.79,0.0,0.0,-0.01
1777319405.8593705,-21.81,-0.02,0.49,-0.002,0.091,9.79,0.0,-0.01,-0.01
1777319405.8693612,-21.81,-0.02,0.49,-0.004,0.09,9.794,-0.01,-0.01,-0.01
1777319405.8792946,-21.81,-0.02,0.49,0.001,0.079,9.799,0.0,-0.01,-0.01
1777319405.8884108,-21.81,-0.01,0.49,0.0,0.078,9.799,0.0,0.0,-0.01
1777319405.8984601,-21.82,-0.01,0.49,0.002,0.093,9.794,-0.01,-0.01,0.0
1777319405.909281,-21.82,-0.01,0.49,0.0,0.083,9.797,0.0,-0.01,0.0
1777319405.9184096,-21.81,-0.01,0.49,0.0,0.074,9.797,0.0,-0.01,-0.01
1777319405.9284785,-21.82,-0.01,0.49,0.001,0.087,9.8,-0.01,0.0,-0.01
1777319405.938549,-21.82,-0.01,0.49,0.0,0.08,9.803,-0.01,0.0,0.0
1777319405.9483905,-21.82,-0.01,0.49,-0.006,0.075,9.804,0.0,0.0,0.0
1777319405.9584112,-21.82,-0.01,0.49,-0.007,0.078,9.803,0.0,-0.01,0.0
1777319405.9693084,-21.82,-0.01,0.49,-0.011,0.078,9.799,0.0,-0.01,-0.01
1777319405.978421,-21.82,-0.02,0.49,-0.016,0.074,9.794,0.0,-0.01,0.0
1777319405.9883938,-21.82,-0.02,0.49,-0.017,0.077,9.798,0.0,0.0,-0.01
1777319405.9984374,-21.81,-0.02,0.49,-0.005,0.074,9.797,0.0,-0.01,-0.01
1777319406.0084593,-21.81,-0.01,0.49,-0.005,0.073,9.8,0.0,-0.01,-0.01
1777319406.0183935,-21.81,-0.01,0.49,-0.007,0.074,9.802,0.0,0.0,-0.01
1777319406.028595,-21.82,-0.01,0.49,-0.008,0.084,9.804,0.0,0.0,0.0
1777319406.038458,-21.81,-0.01,0.49,-0.007,0.09,9.798,-0.01,-0.01,0.0
1777319406.0491142,-21.81,-0.01,0.49,0.0,0.087,9.79,0.0,0.0,-0.01
1777319406.0585883,-21.81,-0.01,0.49,0.0,0.083,9.796,-0.01,0.0,-0.01
1777319406.0685534,-21.8,-0.01,0.49,0.005,0.079,9.798,-0.01,0.0,-0.01
1777319406.0786319,-21.81,-0.01,0.49,0.004,0.071,9.788,0.0,0.0,0.0
1777319406.0883968,-21.81,-0.01,0.49,0.002,0.08,9.786,0.0,0.0,0.0
1777319406.0985036,-21.82,-0.01,0.49,0.0,0.087,9.791,-0.01,0.0,0.0
1777319406.1084254,-21.82,-0.01,0.49,-0.004,0.086,9.788,0.0,0.0,0.0
1777319406.1183977,-21.82,-0.01,0.49,0.0,0.089,9.782,0.0,0.0,-0.01
1777319406.128389,-21.81,-0.01,0.49,-0.004,0.098,9.788,-0.01,-0.01,-0.01
1777319406.138405,-21.81,-0.01,0.49,-0.008,0.097,9.792,-0.01,0.0,-0.01
1777319406.148419,-21.8,-0.01,0.49,-0.011,0.105,9.794,-0.01,-0.01,-0.01
1777319406.1584115,-21.8,-0.01,0.49,-0.008,0.09,9.796,-0.01,-0.01,-0.01
1777319406.1684558,-21.8,-0.02,0.49,0.0,0.069,9.794,0.0,-0.01,-0.01
1777319406.1784203,-21.8,-0.01,0.49,-0.007,0.069,9.796,-0.01,0.0,0.0
1777319406.1884623,-21.8,-0.01,0.48,-0.004,0.055,9.798,-0.01,-0.01,0.0
1777319406.198394,-21.81,-0.01,0.48,-0.004,0.048,9.796,0.0,0.0,0.0
1777319406.208405,-21.81,-0.01,0.48,-0.004,0.06,9.794,0.0,-0.01,0.0
1777319406.218434,-21.8,-0.02,0.49,-0.004,0.061,9.792,0.0,-0.01,-0.01
1777319406.2284234,-21.8,-0.01,0.48,-0.006,0.079,9.792,0.0,0.0,-0.01
1777319406.2384045,-21.8,-0.01,0.49,-0.007,0.092,9.794,0.0,-0.01,-0.01
1777319406.2484074,-21.81,-0.01,0.49,-0.005,0.089,9.788,0.0,0.0,0.0
1777319406.2584133,-21.81,-0.01,0.49,-0.001,0.105,9.793,-0.01,-0.01,0.0
1777319406.2684631,-21.81,-0.01,0.49,-0.004,0.109,9.796,-0.01,-0.01,0.0
1777319406.2784033,-21.81,-0.01,0.49,-0.004,0.086,9.797,-0.01,0.0,0.0
1777319406.2883823,-21.81,-0.01,0.49,0.0,0.087,9.792,-0.01,0.0,-0.01
1777319406.2984853,-21.81,-0.01,0.49,-0.001,0.08,9.787,-0.01,0.0,-0.01
1777319406.308422,-21.81,-0.01,0.48,-0.001,0.08,9.786,-0.01,0.0,-0.01
1777319406.3184164,-21.8,-0.01,0.48,-0.007,0.067,9.791,-0.01,0.0,-0.01
1777319406.3285637,-21.8,-0.02,0.48,-0.005,0.071,9.786,-0.01,0.0,-0.01
1777319406.3384874,-21.81,-0.02,0.48,-0.006,0.065,9.786,-0.01,-0.01,0.0
1777319406.3484333,-21.81,-0.02,0.48,-0.005,0.061,9.776,0.0,0.0,0.0
1777319406.3584146,-21.81,-0.02,0.48,-0.011,0.066,9.774,0.0,0.0,0.0
1777319406.3684022,-21.81,-0.02,0.48,-0.014,0.071,9.782,0.0,-0.01,0.0
1777319406.3783827,-21.81,-0.02,0.48,-0.013,0.09,9.782,0.0,-0.01,0.0
1777319406.3884318,-21.81,-0.02,0.49,-0.012,0.097,9.788,0.0,-0.01,-0.01
1777319406.3984501,-21.81,-0.02,0.49,-0.001,0.086,9.791,0.0,-0.01,-0.01
1777319406.408587,-21.81,-0.01,0.49,-0.005,0.09,9.791,-0.01,-0.01,-0.01
1777319406.4184852,-21.81,-0.02,0.49,0.011,0.079,9.786,-0.01,-0.01,-0.01
1777319406.4284196,-21.81,-0.01,0.49,0.007,0.087,9.787,0.0,0.0,0.0
1777319406.438457,-21.81,-0.01,0.49,-0.001,0.091,9.793,-0.01,0.0,0.0
1777319406.4484322,-21.82,-0.02,0.48,-0.002,0.087,9.797,-0.01,0.0,0.0
1777319406.458908,-21.81,-0.02,0.48,-0.011,0.075,9.796,-0.01,0.0,0.0
1777319406.4684134,-21.81,-0.02,0.48,-0.011,0.063,9.792,0.0,0.0,-0.01
1777319406.4784272,-21.81,-0.02,0.48,-0.007,0.062,9.792,-0.01,0.0,-0.01
1777319406.4884524,-21.81,-0.02,0.48,-0.013,0.06,9.797,0.0,0.0,-0.01
1777319406.498417,-21.81,-0.02,0.48,-0.016,0.072,9.796,0.0,0.0,-0.01
1777319406.508407,-21.81,-0.02,0.48,-0.019,0.067,9.794,0.0,0.0,0.0
1777319406.518417,-21.82,-0.02,0.48,-0.005,0.077,9.794,0.0,-0.01,0.0
1777319406.5284126,-21.82,-0.02,0.48,-0.006,0.072,9.799,0.0,-0.01,0.0
1777319406.5384061,-21.81,-0.02,0.48,-0.01,0.085,9.802,-0.01,0.0,-0.01
1777319406.548426,-21.81,-0.02,0.48,-0.004,0.093,9.787,0.0,0.0,-0.01
1777319406.5584865,-21.81,-0.02,0.49,-0.007,0.089,9.793,0.0,-0.01,-0.01
1777319406.5684152,-21.8,-0.02,0.48,0.004,0.083,9.786,0.0,0.0,-0.01
1777319406.5784082,-21.81,-0.02,0.48,0.002,0.081,9.792,0.0,0.0,0.0
1777319406.5883787,-21.81,-0.02,0.48,0.004,0.075,9.792,0.0,0.0,0.0
1777319406.5984106,-21.82,-0.02,0.48,0.006,0.081,9.793,-0.01,-0.01,0.0
1777319406.6084468,-21.82,-0.02,0.48,0.004,0.096,9.788,0.0,0.0,0.0
1777319406.6184163,-21.82,-0.02,0.48,-0.004,0.095,9.794,-0.01,0.0,0.0
1777319406.6284313,-21.81,-0.02,0.48,-0.01,0.085,9.796,0.0,-0.01,-0.01
1777319406.6384346,-21.81,-0.02,0.48,-0.012,0.075,9.798,0.0,0.0,-0.01
1777319406.6492014,-21.81,-0.02,0.48,-0.012,0.069,9.8,0.0,-0.01,-0.01
1777319406.6584404,-21.82,-0.03,0.48,-0.01,0.071,9.792,0.0,0.0,0.0
1777319406.6684277,-21.82,-0.02,0.48,-0.008,0.081,9.797,0.0,-0.01,0.0
1777319406.678491,-21.82,-0.02,0.48,-0.007,0.077,9.798,-0.01,-0.01,0.0
1777319406.688399,-21.82,-0.02,0.48,-0.004,0.084,9.8,0.0,-0.01,0.0
1777319406.698372,-21.82,-0.02,0.48,-0.002,0.083,9.803,0.0,-0.01,-0.01
1777319406.7083845,-21.82,-0.02,0.48,-0.001,0.08,9.804,-0.01,-0.01,-0.01
1777319406.718365,-21.82,-0.02,0.48,-0.006,0.079,9.8,0.0,0.0,-0.01
1777319406.7283802,-21.81,-0.03,0.48,-0.012,0.078,9.803,0.0,-0.01,-0.01
1777319406.73841,-21.8,-0.03,0.48,-0.016,0.067,9.797,0.0,0.0,-0.01
1777319406.7483604,-21.8,-0.03,0.48,-0.018,0.075,9.794,-0.01,0.0,-0.01
1777319406.7583601,-21.79,-0.03,0.48,-0.019,0.055,9.793,-0.01,0.0,-0.01
1777319406.7683518,-21.8,-0.03,0.48,-0.007,0.055,9.787,0.0,0.0,-0.01
1777319406.7783823,-21.81,-0.03,0.48,-0.007,0.068,9.793,-0.01,-0.01,0.0
1777319406.788339,-21.82,-0.03,0.48,-0.008,0.077,9.798,-0.01,0.0,0.0
1777319406.7984078,-21.82,-0.03,0.48,-0.011,0.075,9.797,0.0,0.0,0.0
1777319406.8084176,-21.82,-0.03,0.48,-0.012,0.089,9.796,0.0,-0.01,0.0
1777319406.8183575,-21.81,-0.03,0.48,-0.011,0.091,9.786,0.0,0.0,-0.01
1777319406.8283572,-21.81,-0.03,0.48,-0.011,0.081,9.787,0.0,0.0,-0.01
1777319406.8383605,-21.81,-0.03,0.48,-0.007,0.073,9.792,0.0,0.0,-0.01
1777319406.8483927,-21.81,-0.03,0.48,-0.006,0.087,9.793,0.0,0.0,-0.01
1777319406.858373,-21.82,-0.04,0.48,-0.014,0.083,9.792,-0.01,0.0,0.0
1777319406.868364,-21.82,-0.03,0.48,-0.013,0.083,9.792,-0.01,0.0,0.0
1777319406.878366,-21.82,-0.03,0.48,-0.01,0.081,9.797,0.0,-0.01,0.0
1777319406.8883622,-21.82,-0.04,0.48,-0.005,0.089,9.792,-0.01,-0.01,0.0
1777319406.8984118,-21.82,-0.03,0.48,-0.007,0.077,9.796,-0.01,0.0,-0.01
1777319406.9075565,-21.82,-0.04,0.48,-0.004,0.087,9.799,0.0,0.0,-0.01
1777319406.9183705,-21.81,-0.03,0.48,-0.001,0.073,9.802,-0.01,0.0,-0.01
1777319406.9274921,-21.82,-0.03,0.48,0.001,0.065,9.799,0.0,-0.01,-0.01
1777319406.938379,-21.82,-0.03,0.48,-0.005,0.075,9.797,0.0,0.0,0.0
1777319406.9483624,-21.81,-0.03,0.48,-0.007,0.069,9.796,0.0,-0.01,-0.01
1777319406.9583905,-21.81,-0.04,0.48,-0.005,0.074,9.787,0.0,0.0,-0.01
1777319406.9683988,-21.81,-0.03,0.48,-0.011,0.081,9.793,-0.01,-0.01,-0.01
1777319406.9783466,-21.8,-0.03,0.48,-0.004,0.075,9.794,0.0,0.0,-0.01
1777319406.98752,-21.81,-0.03,0.48,0.002,0.084,9.792,0.0,-0.01,0.0
1777319406.9975107,-21.81,-0.03,0.48,0.0,0.095,9.798,-0.01,-0.01,0.0
1777319407.007509,-21.82,-0.03,0.48,0.002,0.098,9.792,-0.01,0.0,0.0
1777319407.01749,-21.82,-0.03,0.48,0.0,0.085,9.793,0.0,0.0,0.0
1777319407.0275013,-21.82,-0.03,0.48,-0.002,0.092,9.798,-0.01,0.0,0.0
1777319407.0374935,-21.81,-0.03,0.48,0.0,0.087,9.8,-0.01,0.0,-0.01
1777319407.0474746,-21.81,-0.03,0.48,0.0,0.086,9.796,-0.01,0.0,-0.01
1777319407.0583413,-21.81,-0.04,0.48,-0.002,0.079,9.799,-0.01,0.0,-0.01
1777319407.0675097,-21.81,-0.04,0.48,-0.001,0.063,9.799,0.0,0.0,-0.01
1777319407.0774922,-21.81,-0.03,0.47,-0.002,0.075,9.8,0.0,0.0,0.0
1777319407.0875018,-21.81,-0.04,0.48,-0.007,0.08,9.796,-0.01,-0.01,0.0
1777319407.0974948,-21.81,-0.04,0.48,-0.002,0.086,9.796,0.0,0.0,0.0
1777319407.1074917,-21.81,-0.04,0.48,-0.01,0.105,9.793,-0.01,0.0,0.0
1777319407.1175945,-21.81,-0.03,0.48,-0.013,0.096,9.791,-0.01,-0.01,-0.01
1777319407.1274645,-21.8,-0.04,0.48,-0.007,0.075,9.791,0.0,-0.01,-0.01
1777319407.137583,-21.8,-0.04,0.48,-0.012,0.078,9.796,0.0,0.0,-0.01
1777319407.1474638,-21.8,-0.04,0.48,-0.005,0.074,9.798,-0.01,-0.01,-0.01
1777319407.1574714,-21.81,-0.03,0.48,0.002,0.065,9.793,0.0,-0.01,0.0
1777319407.1674798,-21.82,-0.03,0.48,0.004,0.08,9.797,0.0,-0.01,0.0
1777319407.1774523,-21.82,-0.03,0.48,0.01,0.103,9.8,-0.01,0.0,0.0
1777319407.1877904,-21.82,-0.03,0.48,0.005,0.113,9.796,0.0,0.0,0.0
1777319407.1974666,-21.82,-0.03,0.49,0.002,0.116,9.794,-0.01,0.0,-0.01
1777319407.2074623,-21.81,-0.03,0.49,0.008,0.108,9.792,-0.01,0.0,-0.01
1777319407.217441,-21.81,-0.03,0.49,0.007,0.084,9.776,0.0,0.0,-0.01
1777319407.2274325,-21.81,-0.03,0.48,0.001,0.067,9.785,-0.01,-0.01,-0.01
1777319407.237428,-21.82,-0.03,0.48,-0.008,0.063,9.785,-0.01,0.0,0.0
1777319407.2474854,-21.82,-0.04,0.48,-0.008,0.073,9.782,0.0,0.0,0.0
1777319407.257473,-21.82,-0.04,0.48,-0.006,0.079,9.786,-0.01,0.0,0.0
1777319407.2674453,-21.82,-0.03,0.48,-0.008,0.091,9.787,-0.01,-0.01,0.0
1777319407.2774553,-21.82,-0.03,0.48,-0.008,0.099,9.788,-0.01,-0.01,-0.01
1777319407.2874815,-21.81,-0.03,0.48,-0.011,0.097,9.781,-0.01,-0.01,-0.01
1777319407.2974486,-21.8,-0.04,0.48,-0.012,0.061,9.787,0.0,-0.01,-0.01
1777319407.307474,-21.8,-0.04,0.48,-0.008,0.062,9.792,0.0,0.0,-0.01
1777319407.317478,-21.8,-0.04,0.48,-0.011,0.067,9.797,-0.01,-0.01,-0.01
1777319407.3274632,-21.81,-0.03,0.48,0.0,0.06,9.791,0.0,0.0,0.0
1777319407.3374426,-21.82,-0.03,0.48,-0.001,0.087,9.793,0.0,0.0,0.0
1777319407.3474681,-21.82,-0.03,0.48,0.0,0.104,9.798,-0.01,0.0,0.0
1777319407.357483,-21.82,-0.03,0.49,0.006,0.095,9.793,0.0,0.0,0.0
1777319407.3674428,-21.81,-0.03,0.48,0.0,0.099,9.798,0.0,0.0,-0.01
1777319407.3776348,-21.81,-0.03,0.48,-0.001,0.097,9.799,-0.01,0.0,-0.01
1777319407.3874807,-21.81,-0.03,0.48,-0.001,0.074,9.8,0.0,0.0,-0.01
1777319407.3974764,-21.81,-0.03,0.48,-0.01,0.063,9.797,0.0,0.0,0.0
1777319407.4074557,-21.82,-0.04,0.48,-0.014,0.065,9.798,-0.01,-0.01,0.0
1777319407.4176016,-21.82,-0.04,0.48,-0.014,0.074,9.792,-0.01,-0.01,0.0
1777319407.4274793,-21.82,-0.04,0.48,-0.012,0.081,9.793,0.0,-0.01,0.0
1777319407.437614,-21.82,-0.03,0.48,-0.008,0.09,9.798,-0.01,0.0,0.0
1777319407.4478362,-21.82,-0.03,0.48,-0.01,0.091,9.798,0.0,0.0,-0.01
1777319407.457473,-21.81,-0.03,0.48,-0.004,0.092,9.794,0.0,-0.01,-0.01
1777319407.4674861,-21.81,-0.03,0.48,-0.011,0.099,9.794,-0.01,-0.01,-0.01
1777319407.4774206,-21.8,-0.04,0.48,0.0,0.072,9.786,0.0,0.0,-0.01
1777319407.4874816,-21.8,-0.04,0.48,0.0,0.066,9.788,0.0,0.0,-0.01
1777319407.4974682,-21.81,-0.03,0.48,0.002,0.077,9.788,-0.01,-0.01,0.0
1777319407.507459,-21.81,-0.03,0.48,0.005,0.068,9.784,0.0,0.0,0.0
1777319407.517482,-21.82,-0.03,0.48,0.001,0.072,9.785,0.0,0.0,0.0
1777319407.5274382,-21.82,-0.03,0.48,0.001,0.092,9.791,-0.01,0.0,0.0
1777319407.537456,-21.82,-0.03,0.48,0.007,0.09,9.797,-0.01,-0.01,0.0
1777319407.547551,-21.82,-0.03,0.48,0.001,0.083,9.794,0.0,0.0,-0.01
1777319407.5575414,-21.81,-0.03,0.48,0.002,0.089,9.794,0.0,0.0,-0.01
1777319407.567528,-21.81,-0.03,0.48,0.0,0.087,9.794,-0.01,-0.01,-0.01
1777319407.5774243,-21.81,-0.03,0.48,0.001,0.072,9.79,0.0,0.0,-0.01
1777319407.5874724,-21.82,-0.03,0.48,-0.002,0.083,9.792,0.0,0.0,0.0
1777319407.5974529,-21.82,-0.03,0.48,-0.01,0.089,9.794,-0.01,-0.01,0.0
1777319407.607526,-21.82,-0.03,0.48,-0.008,0.085,9.791,0.0,0.0,0.0
1777319407.6174471,-21.82,-0.03,0.48,-0.014,0.089,9.797,-0.01,0.0,-0.01
1777319407.6273975,-21.82,-0.03,0.48,-0.01,0.087,9.793,-0.01,-0.01,-0.01
1777319407.637544,-21.81,-0.03,0.48,-0.008,0.08,9.79,0.0,-0.01,-0.01
1777319407.64745,-21.81,-0.03,0.48,-0.013,0.086,9.785,-0.01,-0.01,-0.01
1777319407.6575065,-21.81,-0.03,0.48,-0.013,0.083,9.781,0.0,-0.01,-0.01
1777319407.6674342,-21.8,-0.03,0.48,-0.013,0.069,9.784,0.0,-0.01,-0.01
1777319407.6774328,-21.8,-0.03,0.48,-0.01,0.086,9.79,-0.01,-0.01,-0.01
1777319407.6874766,-21.8,-0.03,0.48,-0.004,0.085,9.79,-0.01,-0.01,-0.01
1777319407.6974704,-21.81,-0.03,0.48,0.0,0.077,9.774,0.0,0.0,0.0
1777319407.707407,-21.81,-0.03,0.48,0.004,0.093,9.781,-0.01,-0.01,0.0
1777319407.7174277,-21.82,-0.03,0.49,0.0,0.104,9.788,-0.01,0.0,0.0
1777319407.727443,-21.82,-0.03,0.49,-0.005,0.104,9.794,0.0,0.0,0.0
1777319407.7374096,-21.82,-0.03,0.49,-0.01,0.101,9.796,-0.01,0.0,0.0
1777319407.7474153,-21.81,-0.03,0.49,-0.016,0.101,9.792,-0.01,0.0,-0.01
1777319407.7574341,-21.81,-0.03,0.48,-0.012,0.084,9.791,0.0,0.0,-0.01
1777319407.7674143,-21.81,-0.03,0.48,-0.017,0.073,9.794,0.0,-0.01,-0.01
1777319407.7774353,-21.81,-0.03,0.48,-0.017,0.067,9.798,0.0,0.0,0.0
1777319407.787415,-21.82,-0.03,0.48,-0.02,0.074,9.793,0.0,0.0,0.0
1777319407.7975454,-21.82,-0.03,0.48,-0.017,0.097,9.787,-0.01,-0.01,0.0
1777319407.8074121,-21.82,-0.03,0.48,-0.014,0.096,9.785,0.0,-0.01,0.0
1777319407.8173904,-21.82,-0.03,0.49,-0.007,0.085,9.788,0.0,0.0,-0.01
1777319407.8274019,-21.82,-0.03,0.49,-0.008,0.087,9.788,-0.01,-0.01,-0.01
1777319407.8374226,-21.82,-0.03,0.49,0.0,0.081,9.785,-0.01,-0.01,-0.01
1777319407.8474178,-21.82,-0.03,0.48,-0.002,0.083,9.787,0.0,0.0,0.0
1777319407.8574026,-21.82,-0.03,0.49,-0.007,0.087,9.79,0.0,-0.01,0.0
1777319407.8675013,-21.81,-0.03,0.49,-0.014,0.065,9.788,0.0,0.0,-0.01
1777319407.8774104,-21.8,-0.04,0.48,-0.01,0.072,9.785,0.0,-0.01,-0.01
1777319407.8873692,-21.8,-0.04,0.48,-0.004,0.072,9.779,-0.01,-0.01,-0.01
1777319407.8974082,-21.8,-0.03,0.49,0.004,0.071,9.768,0.0,0.0,-0.01
1777319407.9075406,-21.81,-0.03,0.48,0.016,0.083,9.775,0.0,0.0,0.0
1777319407.9173903,-21.82,-0.03,0.48,0.012,0.109,9.784,-0.01,-0.01,0.0
1777319407.927388,-21.82,-0.03,0.49,0.007,0.105,9.79,-0.01,0.0,0.0
1777319407.9374206,-21.82,-0.03,0.49,0.004,0.095,9.785,0.0,0.0,-0.01
1777319407.9465086,-21.81,-0.03,0.49,0.0,0.095,9.785,-0.01,-0.01,-0.01
1777319407.9574096,-21.81,-0.03,0.48,0.0,0.073,9.791,-0.01,0.0,-0.01
1777319407.9674046,-21.81,-0.03,0.48,0.0,0.05,9.79,-0.01,0.0,-0.01
1777319407.977437,-21.81,-0.03,0.48,-0.011,0.048,9.79,0.0,0.0,0.0
1777319407.9865303,-21.82,-0.04,0.48,-0.012,0.05,9.786,0.0,0.0,0.0
1777319407.9975579,-21.82,-0.04,0.48,-0.011,0.065,9.779,0.0,-0.01,0.0
1777319408.0074584,-21.82,-0.04,0.48,-0.011,0.083,9.786,0.0,0.0,0.0
1777319408.0165954,-21.82,-0.03,0.48,-0.011,0.092,9.786,0.0,-0.01,0.0
1777319408.0265112,-21.82,-0.03,0.48,-0.01,0.099,9.786,0.0,-0.01,-0.01
1777319408.036678,-21.82,-0.03,0.49,-0.002,0.113,9.778,-0.01,-0.01,-0.01
1777319408.0465372,-21.81,-0.03,0.49,0.0,0.091,9.779,0.0,-0.01,-0.01
1777319408.0574324,-21.81,-0.03,0.48,0.0,0.092,9.78,0.0,0.0,-0.01
1777319408.0673985,-21.81,-0.03,0.48,-0.005,0.073,9.786,-0.01,-0.01,-0.01
1777319408.0765166,-21.81,-0.03,0.48,-0.008,0.066,9.787,0.0,0.0,-0.01
1777319408.0864873,-21.81,-0.03,0.48,-0.001,0.061,9.79,-0.01,-0.01,0.0
1777319408.0973785,-21.82,-0.04,0.48,0.0,0.065,9.786,0.0,0.0,0.0
1777319408.1064672,-21.82,-0.03,0.48,-0.004,0.067,9.792,0.0,0.0,0.0
1777319408.1164749,-21.82,-0.03,0.48,-0.005,0.069,9.797,0.0,0.0,0.0
1777319408.127385,-21.82,-0.03,0.48,-0.004,0.087,9.794,0.0,0.0,0.0
1777319408.1364672,-21.82,-0.03,0.48,-0.005,0.091,9.792,0.0,0.0,-0.01
1777319408.1464784,-21.82,-0.03,0.48,-0.001,0.104,9.785,-0.01,0.0,-0.01
1777319408.1565094,-21.82,-0.03,0.48,-0.012,0.093,9.791,-0.01,0.0,-0.01
1777319408.1665144,-21.82,-0.03,0.48,-0.011,0.083,9.787,0.0,0.0,0.0
1777319408.1765044,-21.82,-0.03,0.48,-0.008,0.085,9.79,-0.01,-0.01,0.0
1777319408.1864974,-21.82,-0.04,0.49,-0.005,0.086,9.793,-0.01,-0.01,0.0
1777319408.1967251,-21.82,-0.03,0.48,-0.007,0.077,9.794,-0.01,0.0,0.0
1777319408.2065074,-21.82,-0.03,0.48,-0.01,0.068,9.796,0.0,-0.01,0.0
1777319408.2165713,-21.82,-0.03,0.48,-0.002,0.072,9.792,0.0,0.0,-0.01
1777319408.22653,-21.82,-0.03,0.48,-0.004,0.078,9.786,0.0,-0.01,-0.01
1777319408.2365375,-21.82,-0.03,0.48,-0.007,0.092,9.787,0.0,0.0,-0.01
1777319408.2465408,-21.82,-0.03,0.48,-0.02,0.102,9.791,0.0,0.0,-0.01
1777319408.2565515,-21.82,-0.04,0.49,-0.016,0.089,9.792,0.0,-0.01,-0.01
1777319408.266549,-21.81,-0.03,0.49,-0.012,0.092,9.796,0.0,-0.01,-0.01
1777319408.2765617,-21.81,-0.04,0.49,-0.004,0.095,9.785,-0.01,-0.01,-0.01
1777319408.2867348,-21.81,-0.03,0.49,0.001,0.083,9.775,0.0,0.0,-0.01
1777319408.2966068,-21.81,-0.03,0.48,0.001,0.083,9.776,0.0,0.0,0.0
1777319408.3065474,-21.82,-0.03,0.48,0.0,0.096,9.786,-0.01,-0.01,0.0
1777319408.3165936,-21.82,-0.03,0.48,0.006,0.087,9.787,-0.01,-0.01,0.0
1777319408.3269184,-21.82,-0.03,0.48,0.005,0.084,9.79,0.0,0.0,0.0
1777319408.3365269,-21.82,-0.03,0.48,0.007,0.092,9.781,-0.01,0.0,-0.01
1777319408.346514,-21.81,-0.03,0.48,0.008,0.097,9.784,-0.01,0.0,-0.01
1777319408.3564985,-21.81,-0.03,0.49,0.005,0.075,9.788,0.0,0.0,-0.01
1777319408.3665657,-21.81,-0.03,0.48,0.002,0.065,9.794,0.0,0.0,-0.01
1777319408.3770244,-21.82,-0.03,0.48,0.0,0.071,9.796,0.0,0.0,0.0
1777319408.3865824,-21.82,-0.03,0.48,-0.006,0.08,9.782,0.0,-0.01,0.0
1777319408.3965528,-21.82,-0.03,0.49,-0.011,0.089,9.782,0.0,-0.01,0.0
1777319408.4065225,-21.82,-0.03,0.49,-0.022,0.098,9.79,0.0,-0.01,0.0
1777319408.4165967,-21.82,-0.03,0.49,-0.011,0.091,9.793,0.0,-0.01,-0.01
1777319408.426524,-21.81,-0.03,0.49,-0.012,0.102,9.797,-0.01,-0.01,-0.01
1777319408.4365387,-21.8,-0.03,0.5,0.006,0.097,9.787,-0.01,-0.01,-0.01
1777319408.4465306,-21.8,-0.03,0.5,0.016,0.097,9.776,-0.01,0.0,-0.01
1777319408.456717,-21.81,-0.03,0.49,0.019,0.092,9.785,0.0,0.0,0.0
1777319408.4665642,-21.82,-0.03,0.49,0.02,0.089,9.792,-0.01,0.0,0.0
1777319408.4765005,-21.82,-0.03,0.49,0.006,0.086,9.796,-0.01,0.0,0.0
1777319408.4874673,-21.82,-0.03,0.49,-0.004,0.089,9.785,-0.01,0.0,0.0
1777319408.4964957,-21.82,-0.03,0.49,-0.008,0.081,9.779,0.0,0.0,-0.01
1777319408.5067353,-21.82,-0.03,0.49,-0.006,0.084,9.787,0.0,0.0,-0.01
1777319408.516533,-21.81,-0.03,0.49,-0.01,0.071,9.793,0.0,0.0,-0.01
1777319408.5265317,-21.82,-0.03,0.49,-0.006,0.078,9.788,0.0,-0.01,-0.01
1777319408.5365179,-21.82,-0.03,0.49,-0.007,0.083,9.79,-0.01,-0.01,0.0
1777319408.5464864,-21.82,-0.03,0.49,-0.004,0.089,9.787,0.0,-0.01,0.0
1777319408.556481,-21.82,-0.03,0.5,0.004,0.098,9.791,0.0,-0.01,0.0
1777319408.5664926,-21.82,-0.03,0.5,-0.005,0.107,9.792,-0.01,-0.01,0.0
1777319408.5765119,-21.82,-0.03,0.5,0.0,0.102,9.791,0.0,0.0,-0.01
1777319408.586484,-21.81,-0.03,0.5,-0.017,0.086,9.792,-0.01,0.0,-0.01
1777319408.5988514,-21.8,-0.03,0.49,-0.008,0.068,9.784,0.0,0.0,-0.01
1777319408.6179757,-21.8,-0.03,0.49,-0.005,0.065,9.79,-0.01,-0.01,-0.01
1777319408.6190507,-21.81,-0.03,0.49,0.0,0.051,9.792,0.0,-0.01,-0.01
1777319408.6265154,-21.82,-0.03,0.49,0.001,0.059,9.79,-0.01,0.0,0.0
1777319408.6366103,-21.82,-0.03,0.49,-0.004,0.081,9.787,0.0,0.0,0.0
1777319408.6465185,-21.82,-0.03,0.49,-0.001,0.093,9.785,0.0,-0.01,0.0
1777319408.656502,-21.82,-0.03,0.49,-0.011,0.104,9.791,0.0,-0.01,-0.01
1777319408.666515,-21.82,-0.03,0.5,-0.012,0.108,9.794,-0.01,0.0,-0.01
1777319408.676591,-21.81,-0.03,0.5,-0.013,0.093,9.791,0.0,0.0,-0.01
1777319408.6864972,-21.81,-0.03,0.49,-0.006,0.084,9.782,-0.01,-0.01,-0.01
1777319408.6965127,-21.82,-0.03,0.49,-0.007,0.079,9.79,-0.01,-0.01,0.0
1777319408.706505,-21.82,-0.03,0.49,-0.007,0.085,9.794,0.0,0.0,0.0
1777319408.7165298,-21.82,-0.03,0.49,-0.008,0.091,9.798,-0.01,0.0,0.0
1777319408.7265136,-21.82,-0.03,0.49,-0.007,0.095,9.8,-0.01,0.0,0.0
1777319408.7364979,-21.82,-0.03,0.49,-0.008,0.097,9.792,-0.01,0.0,-0.01
1777319408.746559,-21.81,-0.03,0.49,-0.011,0.079,9.784,0.0,-0.01,-0.01
1777319408.7565358,-21.81,-0.03,0.49,-0.014,0.079,9.781,0.0,-0.01,-0.01
1777319408.7665186,-21.81,-0.03,0.49,-0.008,0.065,9.788,0.0,-0.01,-0.01
1777319408.776484,-21.81,-0.03,0.49,-0.011,0.073,9.791,0.0,0.0,-0.01
1777319408.7865226,-21.82,-0.03,0.49,-0.004,0.075,9.791,0.0,-0.01,0.0
1777319408.7965662,-21.82,-0.03,0.49,-0.008,0.079,9.787,0.0,-0.01,0.0
1777319408.8065226,-21.82,-0.03,0.49,-0.005,0.08,9.787,0.0,-0.01,0.0
1777319408.8164957,-21.82,-0.03,0.5,-0.005,0.101,9.792,0.0,-0.01,0.0
1777319408.8265102,-21.82,-0.03,0.5,0.002,0.097,9.796,0.0,-0.01,-0.01
1777319408.8364375,-21.82,-0.03,0.5,0.013,0.115,9.797,-0.01,0.0,-0.01
1777319408.846454,-21.82,-0.03,0.5,0.012,0.107,9.797,-0.01,0.0,-0.01
1777319408.8564882,-21.82,-0.03,0.5,0.013,0.093,9.797,-0.01,0.0,-0.01
1777319408.8665013,-21.82,-0.03,0.5,0.007,0.073,9.8,-0.01,0.0,0.0
1777319408.8764708,-21.82,-0.03,0.49,0.0,0.077,9.798,-0.01,0.0,0.0
1777319408.886988,-21.82,-0.03,0.49,-0.012,0.071,9.797,-0.01,0.0,-0.01
1777319408.8965268,-21.82,-0.03,0.49,-0.017,0.074,9.799,0.0,0.0,-0.01
1777319408.9065156,-21.81,-0.03,0.49,-0.02,0.08,9.799,0.0,0.0,-0.01
1777319408.9165602,-21.81,-0.03,0.5,-0.024,0.066,9.802,0.0,-0.01,-0.01
1777319408.926528,-21.81,-0.03,0.49,-0.013,0.079,9.802,0.0,-0.01,-0.01
1777319408.936594,-21.81,-0.03,0.5,-0.006,0.084,9.798,-0.01,-0.01,-0.01
1777319408.9465332,-21.81,-0.03,0.5,0.004,0.09,9.791,0.0,0.0,0.0
1777319408.9565077,-21.82,-0.03,0.5,0.008,0.099,9.793,0.0,-0.01,0.0
1777319408.9665332,-21.82,-0.03,0.5,0.008,0.123,9.797,-0.01,-0.01,0.0
1777319408.9764988,-21.82,-0.02,0.5,0.002,0.12,9.792,-0.01,0.0,0.0
1777319408.9864726,-21.82,-0.02,0.5,-0.032,0.073,9.796,0.0,-0.01,-0.01
1777319408.9964702,-21.82,-0.03,0.5,-0.054,0.023,9.774,0.0,-0.01,-0.01
1777319409.0064628,-21.81,-0.03,0.5,-0.069,0.005,9.774,0.0,-0.01,-0.01
1777319409.017162,-21.82,-0.03,0.5,-0.069,0.008,9.776,0.0,-0.01,-0.01
1777319409.0271595,-21.82,-0.02,0.5,-0.055,0.013,9.78,0.0,-0.01,0.0
1777319409.0364647,-21.82,-0.02,0.51,-0.022,0.048,9.782,0.0,-0.01,0.0
1777319409.04559,-21.83,-0.01,0.51,0.024,0.119,9.788,0.0,-0.01,0.0
1777319409.056488,-21.83,0.0,0.53,0.038,0.164,9.793,-0.01,-0.01,0.0
1777319409.066463,-21.84,0.0,0.54,0.061,0.165,9.798,0.0,-0.01,0.0
1777319409.0756104,-21.84,0.01,0.53,0.071,0.181,9.794,0.0,0.0,0.0
1777319409.0864727,-21.83,0.0,0.53,0.057,0.198,9.799,-0.01,0.0,-0.01
1777319409.0964644,-21.83,0.0,0.53,0.042,0.147,9.793,-0.01,0.0,-0.01
1777319409.1065316,-21.83,-0.01,0.52,0.017,0.092,9.791,-0.01,0.0,-0.01
1777319409.1167023,-21.82,-0.02,0.51,-0.002,0.071,9.79,-0.01,0.0,-0.01
1777319409.1264598,-21.82,-0.02,0.51,-0.034,0.044,9.781,-0.01,0.0,-0.01
1777319409.135625,-21.82,-0.03,0.5,-0.055,-0.013,9.772,0.0,0.0,-0.01
1777319409.1456265,-21.82,-0.03,0.49,-0.072,-0.018,9.772,0.0,0.0,-0.01
1777319409.1555908,-21.82,-0.03,0.49,-0.073,-0.037,9.776,0.0,-0.01,0.0
1777319409.1664605,-21.83,-0.03,0.49,-0.05,-0.001,9.764,0.0,-0.01,0.0
1777319409.1756139,-21.83,-0.03,0.5,-0.037,0.046,9.773,0.0,-0.01,0.0
1777319409.185606,-21.84,-0.02,0.5,-0.016,0.075,9.779,0.0,-0.01,0.0
1777319409.195607,-21.84,-0.02,0.51,0.011,0.087,9.787,0.0,-0.01,0.0
1777319409.2055953,-21.84,-0.01,0.51,0.024,0.117,9.793,0.0,-0.01,0.0
