timestamp,yaw,pitch,roll,accel_x,accel_y,accel_z,gyro_x,gyro_y,gyro_z
1777734000.4144545,-12.09,-0.08,-0.55,-0.013,-0.093,9.81,0.0,0.0,0.0
1777734000.4244022,-12.09,-0.08,-0.55,-0.017,-0.085,9.81,0.0,0.0,0.0
1777734000.4335487,-12.09,-0.08,-0.54,-0.012,-0.084,9.81,0.0,-0.01,0.0
1777734000.4435356,-12.09,-0.08,-0.54,-0.012,-0.086,9.81,0.0,0.0,0.0
1777734000.4539025,-12.09,-0.08,-0.54,-0.013,-0.089,9.81,0.0,-0.01,-0.01
1777734000.4636886,-12.09,-0.08,-0.54,-0.016,-0.095,9.81,0.0,-0.01,-0.01
1777734000.4734871,-12.09,-0.08,-0.55,-0.014,-0.098,9.81,0.0,0.0,-0.01
1777734000.483506,-12.09,-0.08,-0.55,-0.017,-0.097,9.81,-0.01,0.0,-0.01
1777734000.4935095,-12.09,-0.08,-0.55,-0.019,-0.096,9.81,0.0,-0.01,0.0
1777734000.5034842,-12.09,-0.08,-0.55,-0.018,-0.097,9.81,-0.01,0.0,0.0
1777734000.5134559,-12.09,-0.08,-0.55,-0.019,-0.095,9.81,0.0,0.0,-0.01
1777734000.523457,-12.09,-0.08,-0.55,-0.02,-0.092,9.81,0.0,-0.01,-0.01
1777734000.533909,-12.09,-0.08,-0.55,-0.019,-0.095,9.81,-0.01,-0.01,-0.01
1777734000.5440228,-12.09,-0.08,-0.55,-0.018,-0.091,9.81,0.0,0.0,-0.01
1777734000.5541642,-12.09,-0.08,-0.55,-0.017,-0.096,9.81,0.0,0.0,0.0
1777734000.5634089,-12.09,-0.08,-0.55,-0.014,-0.102,9.81,-0.01,0.0,-0.01
1777734000.5738065,-12.09,-0.08,-0.55,-0.013,-0.104,9.81,0.0,0.0,-0.01
1777734000.5836816,-12.09,-0.08,-0.55,-0.014,-0.101,9.81,0.0,0.0,-0.01
1777734000.5933723,-12.09,-0.08,-0.55,-0.014,-0.099,9.81,-0.01,0.0,-0.01
1777734000.6036582,-12.09,-0.08,-0.55,-0.008,-0.092,9.81,-0.01,-0.01,-0.01
1777734000.6138144,-12.09,-0.08,-0.55,-0.005,-0.089,9.81,-0.01,0.0,0.0
1777734000.6234696,-12.09,-0.08,-0.55,-0.007,-0.089,9.81,0.0,0.0,-0.01
1777734000.6336174,-12.09,-0.08,-0.55,-0.008,-0.092,9.81,0.0,0.0,-0.01
1777734000.6433697,-12.09,-0.08,-0.55,-0.01,-0.092,9.81,-0.01,0.0,-0.01
1777734000.653363,-12.09,-0.08,-0.55,-0.01,-0.093,9.81,-0.01,0.0,-0.01
1777734000.6642501,-12.09,-0.08,-0.55,-0.008,-0.098,9.81,0.0,-0.01,0.0
1777734000.6733236,-12.09,-0.08,-0.55,-0.008,-0.096,9.81,0.0,-0.01,0.0
1777734000.683305,-12.09,-0.08,-0.55,-0.012,-0.092,9.81,0.0,0.0,0.0
1777734000.6932974,-12.09,-0.08,-0.55,-0.013,-0.091,9.81,0.0,-0.01,-0.01
1777734000.7033257,-12.09,-0.08,-0.55,-0.01,-0.095,9.81,-0.01,0.0,-0.01
1777734000.7132702,-12.09,-0.08,-0.55,-0.006,-0.097,9.81,0.0,0.0,-0.01
1777734000.7233095,-12.09,-0.08,-0.55,-0.007,-0.099,9.81,0.0,0.0,-0.01
1777734000.7332735,-12.09,-0.08,-0.55,-0.011,-0.095,9.81,0.0,0.0,-0.01
1777734000.7432811,-12.09,-0.07,-0.55,-0.01,-0.099,9.81,-0.01,0.0,-0.01
1777734000.753291,-12.09,-0.07,-0.55,-0.011,-0.099,9.81,-0.01,-0.01,-0.01
1777734000.7632706,-12.09,-0.08,-0.55,-0.01,-0.09,9.81,0.0,0.0,0.0
1777734000.773231,-12.09,-0.07,-0.55,-0.008,-0.084,9.81,0.0,0.0,0.0
1777734000.7832377,-12.09,-0.07,-0.55,-0.008,-0.081,9.81,0.0,0.0,-0.01
1777734000.7932417,-12.09,-0.07,-0.55,-0.013,-0.084,9.81,0.0,0.0,-0.01
1777734000.8032413,-12.09,-0.08,-0.55,-0.019,-0.087,9.81,0.0,0.0,0.0
1777734000.813203,-12.09,-0.08,-0.55,-0.023,-0.093,9.81,0.0,0.0,0.0
1777734000.8232377,-12.09,-0.08,-0.55,-0.02,-0.096,9.81,0.0,0.0,0.0
1777734000.8333285,-12.09,-0.08,-0.55,-0.016,-0.096,9.81,0.0,-0.01,0.0
1777734000.843193,-12.09,-0.08,-0.55,-0.014,-0.092,9.81,0.0,0.0,0.0
1777734000.8531852,-12.09,-0.08,-0.55,-0.01,-0.093,9.81,-0.01,0.0,-0.01
1777734000.8639936,-12.09,-0.08,-0.55,-0.012,-0.097,9.81,0.0,0.0,-0.01
1777734000.8731778,-12.09,-0.08,-0.55,-0.016,-0.096,9.81,0.0,0.0,-0.01
1777734000.8831902,-12.09,-0.08,-0.55,-0.013,-0.092,9.81,-0.01,0.0,0.0
1777734000.8932374,-12.09,-0.08,-0.55,-0.016,-0.09,9.81,0.0,0.0,0.0
1777734000.9031413,-12.09,-0.08,-0.55,-0.012,-0.089,9.81,0.0,0.0,0.0
1777734000.9131525,-12.09,-0.08,-0.55,-0.017,-0.089,9.81,0.0,0.0,-0.01
1777734000.9231598,-12.09,-0.08,-0.55,-0.022,-0.091,9.81,-0.01,-0.01,0.0
1777734000.9332287,-12.09,-0.08,-0.55,-0.024,-0.089,9.81,0.0,-0.01,-0.01
1777734000.9431086,-12.09,-0.08,-0.55,-0.023,-0.084,9.81,0.0,0.0,0.0
1777734000.9530854,-12.1,-0.08,-0.55,-0.023,-0.081,9.81,0.0,-0.01,0.0
1777734000.9631479,-12.1,-0.08,-0.55,-0.024,-0.087,9.81,-0.01,-0.01,0.0
1777734000.97306,-12.1,-0.08,-0.55,-0.024,-0.09,9.81,-0.01,0.0,-0.01
1777734000.9830768,-12.1,-0.08,-0.55,-0.019,-0.09,9.81,-0.01,-0.01,0.0
1777734000.9930537,-12.1,-0.08,-0.55,-0.017,-0.095,9.81,0.0,-0.01,-0.01
1777734001.0030804,-12.1,-0.08,-0.55,-0.019,-0.095,9.81,0.0,0.0,0.0
1777734001.013099,-12.1,-0.08,-0.55,-0.022,-0.091,9.81,-0.01,-0.01,-0.01
1777734001.0235524,-12.1,-0.08,-0.55,-0.023,-0.093,9.81,0.0,-0.01,-0.01
1777734001.0334282,-12.1,-0.08,-0.55,-0.024,-0.096,9.81,0.0,-0.01,0.0
1777734001.0435863,-12.1,-0.08,-0.55,-0.024,-0.09,9.809,-0.01,-0.01,0.0
1777734001.0535517,-12.1,-0.08,-0.55,-0.022,-0.084,9.809,-0.01,-0.01,0.0
1777734001.0635216,-12.1,-0.08,-0.55,-0.02,-0.085,9.809,-0.01,0.0,0.0
1777734001.0735974,-12.1,-0.08,-0.55,-0.016,-0.089,9.809,-0.01,-0.01,0.0
1777734001.0829575,-12.1,-0.08,-0.55,-0.012,-0.09,9.809,-0.01,0.0,-0.01
1777734001.0929675,-12.1,-0.08,-0.55,-0.011,-0.097,9.81,-0.01,-0.01,-0.01
1777734001.1033397,-12.1,-0.08,-0.55,-0.007,-0.105,9.81,0.0,-0.01,-0.01
1777734001.1133535,-12.1,-0.08,-0.55,-0.01,-0.108,9.81,-0.01,0.0,-0.01
1777734001.1225612,-12.1,-0.08,-0.55,-0.006,-0.108,9.809,0.0,0.0,0.0
1777734001.1326406,-12.1,-0.08,-0.55,-0.012,-0.096,9.809,0.0,0.0,0.0
1777734001.1435425,-12.1,-0.08,-0.55,-0.017,-0.089,9.809,0.0,0.0,0.0
1777734001.1524494,-12.1,-0.08,-0.55,-0.019,-0.081,9.809,0.0,0.0,-0.01
1777734001.162963,-12.1,-0.08,-0.55,-0.024,-0.073,9.809,0.0,0.0,-0.01
1777734001.1722357,-12.1,-0.08,-0.55,-0.022,-0.073,9.809,0.0,-0.01,-0.01
1777734001.1821768,-12.1,-0.08,-0.54,-0.013,-0.077,9.81,0.0,-0.01,-0.01
1777734001.192537,-12.1,-0.08,-0.54,-0.013,-0.083,9.81,0.0,-0.01,-0.01
1777734001.2025542,-12.1,-0.08,-0.54,-0.02,-0.081,9.81,0.0,-0.01,0.0
1777734001.2126982,-12.1,-0.08,-0.54,-0.019,-0.08,9.809,-0.01,0.0,-0.01
1777734001.2227025,-12.1,-0.08,-0.54,-0.016,-0.083,9.809,-0.01,-0.01,0.0
1777734001.2326972,-12.1,-0.08,-0.54,-0.012,-0.085,9.809,-0.01,0.0,0.0
1777734001.2427888,-12.1,-0.08,-0.54,-0.01,-0.091,9.81,0.0,0.0,-0.01
1777734001.252515,-12.1,-0.08,-0.54,-0.008,-0.096,9.81,0.0,0.0,-0.01
1777734001.2622404,-12.1,-0.08,-0.54,-0.011,-0.096,9.81,0.0,0.0,-0.01
1777734001.2725148,-12.1,-0.08,-0.54,-0.016,-0.095,9.81,0.0,0.0,-0.01
1777734001.2825074,-12.1,-0.08,-0.54,-0.013,-0.089,9.81,0.0,0.0,0.0
1777734001.2924213,-12.1,-0.08,-0.54,-0.011,-0.091,9.81,0.0,0.0,-0.01
1777734001.302067,-12.1,-0.08,-0.54,-0.013,-0.092,9.81,0.0,0.0,0.0
1777734001.312438,-12.1,-0.08,-0.54,-0.007,-0.092,9.81,0.0,-0.01,-0.01
1777734001.3224304,-12.1,-0.08,-0.54,-0.004,-0.095,9.81,0.0,-0.01,-0.01
1777734001.332371,-12.1,-0.08,-0.54,0.0,-0.087,9.81,-0.01,-0.01,-0.01
1777734001.3424284,-12.1,-0.07,-0.54,0.002,-0.079,9.81,-0.01,0.0,-0.01
1777734001.3524585,-12.1,-0.07,-0.54,-0.004,-0.084,9.81,-0.01,0.0,0.0
1777734001.3618777,-12.1,-0.08,-0.54,-0.006,-0.091,9.81,-0.01,0.0,-0.01
1777734001.371912,-12.1,-0.08,-0.54,-0.011,-0.091,9.81,0.0,0.0,-0.01
1777734001.3819227,-12.1,-0.08,-0.54,-0.007,-0.098,9.81,-0.01,0.0,-0.01
1777734001.391904,-12.1,-0.08,-0.54,-0.018,-0.098,9.81,-0.01,0.0,-0.01
1777734001.4025376,-12.1,-0.08,-0.54,-0.02,-0.097,9.809,0.0,0.0,-0.01
1777734001.4118595,-12.1,-0.08,-0.54,-0.023,-0.097,9.809,0.0,0.0,-0.01
1777734001.4219818,-12.1,-0.08,-0.54,-0.026,-0.101,9.809,0.0,0.0,0.0
1777734001.4318461,-12.1,-0.08,-0.54,-0.028,-0.099,9.809,0.0,0.0,0.0
1777734001.4418263,-12.1,-0.08,-0.54,-0.024,-0.091,9.809,0.0,0.0,-0.01
1777734001.4518416,-12.1,-0.08,-0.54,-0.017,-0.087,9.809,-0.01,-0.01,0.0
1777734001.4617982,-12.1,-0.08,-0.54,-0.013,-0.079,9.809,0.0,-0.01,0.0
1777734001.4718018,-12.1,-0.08,-0.54,-0.014,-0.081,9.809,0.0,-0.01,-0.01
1777734001.4822958,-12.1,-0.08,-0.54,-0.016,-0.09,9.809,0.0,0.0,-0.01
1777734001.4918056,-12.1,-0.08,-0.54,-0.011,-0.097,9.809,0.0,0.0,0.0
1777734001.5022705,-12.1,-0.08,-0.54,-0.014,-0.097,9.809,-0.01,0.0,-0.01
1777734001.511784,-12.1,-0.08,-0.54,-0.012,-0.103,9.809,0.0,0.0,-0.01
1777734001.52217,-12.1,-0.08,-0.54,-0.011,-0.108,9.809,0.0,0.0,-0.01
1777734001.5322027,-12.1,-0.08,-0.55,-0.012,-0.108,9.809,-0.01,0.0,-0.01
1777734001.5420585,-12.1,-0.08,-0.55,-0.014,-0.103,9.809,0.0,0.0,-0.01
1777734001.5517545,-12.1,-0.08,-0.55,-0.016,-0.102,9.809,0.0,0.0,-0.01
1777734001.5617454,-12.1,-0.08,-0.55,-0.016,-0.099,9.809,-0.01,0.0,0.0
1777734001.571954,-12.1,-0.08,-0.55,-0.012,-0.101,9.809,-0.01,0.0,-0.01
1777734001.5817149,-12.1,-0.08,-0.55,-0.011,-0.098,9.809,0.0,-0.01,0.0
1777734001.5916817,-12.1,-0.08,-0.55,-0.011,-0.089,9.809,0.0,0.0,0.0
1777734001.6017063,-12.1,-0.08,-0.55,-0.011,-0.091,9.809,0.0,0.0,-0.01
1777734001.6120832,-12.1,-0.08,-0.55,-0.01,-0.09,9.809,-0.01,0.0,-0.01
1777734001.622566,-12.1,-0.08,-0.55,-0.016,-0.098,9.809,-0.01,0.0,-0.01
1777734001.6320364,-12.1,-0.08,-0.55,-0.019,-0.101,9.809,0.0,0.0,-0.01
1777734001.6416411,-12.1,-0.08,-0.55,-0.018,-0.099,9.809,-0.01,0.0,-0.01
1777734001.6516197,-12.1,-0.08,-0.55,-0.017,-0.102,9.809,0.0,0.0,-0.01
1777734001.661653,-12.1,-0.08,-0.55,-0.018,-0.099,9.809,-0.01,-0.01,-0.01
1777734001.6716175,-12.1,-0.08,-0.55,-0.014,-0.099,9.809,-0.01,0.0,-0.01
1777734001.6816025,-12.1,-0.08,-0.55,-0.012,-0.099,9.809,0.0,0.0,-0.01
1777734001.6915824,-12.1,-0.08,-0.55,-0.011,-0.096,9.809,-0.01,0.0,-0.01
1777734001.7016344,-12.1,-0.08,-0.55,-0.006,-0.097,9.809,-0.01,-0.01,0.0
1777734001.7116024,-12.1,-0.08,-0.55,-0.008,-0.096,9.809,0.0,0.0,0.0
1777734001.7215533,-12.1,-0.08,-0.55,-0.008,-0.093,9.809,0.0,0.0,0.0
1777734001.7315881,-12.1,-0.08,-0.55,-0.008,-0.089,9.809,0.0,0.0,-0.01
1777734001.7419283,-12.1,-0.08,-0.55,-0.011,-0.089,9.809,0.0,0.0,0.0
1777734001.7515645,-12.1,-0.08,-0.55,-0.012,-0.091,9.809,-0.01,0.0,-0.01
1777734001.7618551,-12.1,-0.08,-0.55,-0.008,-0.092,9.809,-0.01,0.0,-0.01
1777734001.771544,-12.1,-0.08,-0.55,-0.013,-0.091,9.809,0.0,-0.01,0.0
1777734001.7819428,-12.1,-0.08,-0.55,-0.014,-0.096,9.809,-0.01,0.0,0.0
1777734001.7907252,-12.1,-0.08,-0.55,-0.016,-0.097,9.809,0.0,-0.01,0.0
1777734001.801521,-12.1,-0.08,-0.55,-0.014,-0.095,9.809,0.0,-0.01,0.0
1777734001.8115165,-12.1,-0.08,-0.55,-0.014,-0.098,9.809,0.0,-0.01,-0.01
1777734001.821489,-12.1,-0.08,-0.55,-0.016,-0.101,9.809,0.0,0.0,-0.01
1777734001.8314908,-12.1,-0.08,-0.55,-0.01,-0.099,9.809,0.0,-0.01,-0.01
1777734001.8407001,-12.1,-0.08,-0.55,-0.007,-0.102,9.809,0.0,0.0,-0.01
1777734001.850645,-12.1,-0.08,-0.55,-0.012,-0.097,9.809,0.0,-0.01,0.0
1777734001.8606267,-12.1,-0.08,-0.55,-0.013,-0.091,9.809,-0.01,-0.01,0.0
1777734001.8714855,-12.1,-0.08,-0.55,-0.014,-0.092,9.809,0.0,0.0,-0.01
1777734001.8806148,-12.1,-0.08,-0.55,-0.014,-0.092,9.809,0.0,0.0,0.0
1777734001.8905869,-12.1,-0.08,-0.55,-0.013,-0.091,9.809,0.0,0.0,-0.01
1777734001.901073,-12.1,-0.08,-0.55,-0.014,-0.089,9.809,-0.01,-0.01,-0.01
1777734001.9114294,-12.1,-0.08,-0.55,-0.012,-0.092,9.809,-0.01,0.0,0.0
1777734001.9205823,-12.1,-0.08,-0.55,-0.014,-0.093,9.809,0.0,0.0,0.0
1777734001.9305825,-12.1,-0.08,-0.55,-0.019,-0.091,9.809,-0.01,0.0,0.0
1777734001.9407318,-12.1,-0.08,-0.55,-0.013,-0.091,9.809,0.0,-0.01,0.0
1777734001.9509919,-12.1,-0.08,-0.55,-0.013,-0.09,9.809,0.0,-0.01,-0.01
1777734001.96058,-12.1,-0.08,-0.55,-0.014,-0.093,9.809,0.0,0.0,-0.01
1777734001.9710011,-12.1,-0.08,-0.55,-0.017,-0.096,9.809,0.0,0.0,0.0
1777734001.9805026,-12.11,-0.08,-0.55,-0.013,-0.096,9.809,-0.01,0.0,0.0
1777734001.9904957,-12.11,-0.08,-0.55,-0.013,-0.095,9.809,-0.01,0.0,-0.01
1777734002.001258,-12.1,-0.08,-0.55,-0.019,-0.092,9.809,0.0,0.0,-0.01
1777734002.0107865,-12.1,-0.08,-0.55,-0.016,-0.091,9.809,0.0,0.0,-0.01
1777734002.02056,-12.11,-0.08,-0.55,-0.017,-0.092,9.809,0.0,-0.01,-0.01
1777734002.030957,-12.11,-0.08,-0.55,-0.017,-0.091,9.809,-0.01,-0.01,0.0
1777734002.0404477,-12.11,-0.08,-0.55,-0.017,-0.095,9.809,0.0,0.0,0.0
1777734002.0504377,-12.11,-0.08,-0.55,-0.012,-0.097,9.809,-0.01,0.0,0.0
1777734002.0604463,-12.11,-0.08,-0.55,-0.017,-0.095,9.809,0.0,0.0,0.0
1777734002.070439,-12.11,-0.08,-0.55,-0.018,-0.091,9.809,0.0,0.0,-0.01
1777734002.0811806,-12.11,-0.08,-0.55,-0.019,-0.09,9.809,-0.01,-0.01,0.0
1777734002.090981,-12.11,-0.08,-0.55,-0.018,-0.093,9.809,0.0,-0.01,0.0
1777734002.1008763,-12.11,-0.08,-0.55,-0.02,-0.092,9.809,-0.01,0.0,-0.01
1777734002.110834,-12.11,-0.08,-0.55,-0.019,-0.092,9.809,0.0,0.0,0.0
1777734002.1209247,-12.11,-0.08,-0.55,-0.023,-0.092,9.809,0.0,0.0,0.0
1777734002.1303816,-12.11,-0.08,-0.55,-0.02,-0.089,9.809,-0.01,0.0,0.0
1777734002.1403863,-12.11,-0.08,-0.55,-0.019,-0.09,9.809,0.0,0.0,-0.01
1777734002.150353,-12.11,-0.08,-0.55,-0.013,-0.092,9.809,0.0,-0.01,0.0
1777734002.160483,-12.11,-0.08,-0.55,-0.012,-0.096,9.809,0.0,0.0,-0.01
1777734002.1706817,-12.11,-0.08,-0.55,-0.014,-0.097,9.809,0.0,0.0,-0.01
1777734002.180496,-12.11,-0.08,-0.55,-0.018,-0.096,9.809,0.0,0.0,-0.01
1777734002.1908188,-12.11,-0.08,-0.55,-0.024,-0.092,9.809,0.0,0.0,-0.01
1777734002.2005217,-12.11,-0.08,-0.55,-0.022,-0.09,9.809,0.0,0.0,-0.01
1777734002.210405,-12.11,-0.08,-0.55,-0.022,-0.09,9.809,-0.01,0.0,-0.01
1777734002.22075,-12.11,-0.09,-0.55,-0.025,-0.093,9.809,0.0,0.0,0.0
1777734002.230766,-12.11,-0.08,-0.55,-0.022,-0.095,9.809,0.0,0.0,-0.01
1777734002.2410161,-12.11,-0.08,-0.55,-0.013,-0.091,9.809,0.0,-0.01,-0.01
1777734002.2504253,-12.11,-0.08,-0.55,-0.011,-0.091,9.809,0.0,-0.01,-0.01
1777734002.2607443,-12.11,-0.08,-0.55,-0.008,-0.093,9.809,0.0,0.0,-0.01
1777734002.2707734,-12.11,-0.08,-0.55,-0.01,-0.092,9.809,0.0,-0.01,-0.01
1777734002.280718,-12.11,-0.08,-0.55,-0.011,-0.095,9.809,-0.01,0.0,-0.01
1777734002.29062,-12.11,-0.08,-0.55,-0.008,-0.095,9.809,0.0,0.0,0.0
1777734002.3008246,-12.11,-0.08,-0.55,-0.011,-0.097,9.809,0.0,0.0,-0.01
1777734002.310229,-12.11,-0.08,-0.55,-0.012,-0.098,9.809,-0.01,-0.01,-0.01
1777734002.32063,-12.11,-0.08,-0.55,-0.019,-0.098,9.809,0.0,0.0,-0.01
1777734002.3306172,-12.11,-0.08,-0.55,-0.017,-0.095,9.809,0.0,0.0,-0.01
1777734002.3402233,-12.11,-0.08,-0.55,-0.018,-0.095,9.809,0.0,-0.01,0.0
1777734002.3502204,-12.11,-0.08,-0.55,-0.016,-0.089,9.809,0.0,-0.01,-0.01
1777734002.3602111,-12.11,-0.08,-0.55,-0.012,-0.089,9.809,0.0,0.0,-0.01
1777734002.3701785,-12.11,-0.08,-0.55,-0.01,-0.087,9.809,0.0,0.0,0.0
1777734002.3802035,-12.11,-0.08,-0.55,-0.01,-0.091,9.809,0.0,0.0,-0.01
1777734002.3905911,-12.11,-0.08,-0.55,-0.013,-0.09,9.809,0.0,0.0,0.0
1777734002.400337,-12.11,-0.08,-0.55,-0.014,-0.09,9.809,0.0,0.0,-0.01
1777734002.4101858,-12.11,-0.08,-0.55,-0.013,-0.092,9.809,-0.01,0.0,-0.01
1777734002.4206662,-12.11,-0.08,-0.55,-0.014,-0.092,9.809,0.0,0.0,-0.01
1777734002.430154,-12.11,-0.08,-0.55,-0.014,-0.092,9.809,0.0,-0.01,-0.01
1777734002.4401371,-12.11,-0.08,-0.55,-0.014,-0.09,9.809,0.0,0.0,-0.01
1777734002.450107,-12.11,-0.08,-0.55,-0.017,-0.093,9.809,0.0,0.0,-0.01
1777734002.4600863,-12.11,-0.08,-0.55,-0.014,-0.093,9.809,0.0,0.0,-0.01
1777734002.470366,-12.11,-0.08,-0.55,-0.014,-0.092,9.809,0.0,-0.01,0.0
1777734002.4805987,-12.11,-0.08,-0.54,-0.013,-0.092,9.809,0.0,-0.01,0.0
1777734002.4901087,-12.11,-0.08,-0.54,-0.011,-0.095,9.809,0.0,0.0,-0.01
1777734002.500075,-12.11,-0.08,-0.54,-0.014,-0.093,9.809,0.0,-0.01,0.0
1777734002.5100477,-12.11,-0.08,-0.54,-0.014,-0.095,9.809,0.0,0.0,-0.01
1777734002.5206823,-12.11,-0.08,-0.54,-0.012,-0.097,9.809,0.0,0.0,-0.01
1777734002.5305398,-12.11,-0.08,-0.55,-0.013,-0.097,9.809,0.0,0.0,0.0
1777734002.5400348,-12.11,-0.08,-0.54,-0.013,-0.09,9.809,0.0,-0.01,-0.01
1777734002.5504985,-12.11,-0.08,-0.54,-0.013,-0.087,9.809,-0.01,0.0,-0.01
1777734002.5605392,-12.11,-0.08,-0.54,-0.012,-0.091,9.809,-0.01,0.0,-0.01
1777734002.5705433,-12.11,-0.08,-0.54,-0.012,-0.092,9.809,0.0,0.0,-0.01
1777734002.5792258,-12.11,-0.08,-0.54,-0.011,-0.091,9.809,0.0,-0.01,-0.01
1777734002.5891967,-12.11,-0.08,-0.54,-0.012,-0.091,9.809,0.0,0.0,-0.01
1777734002.599242,-12.11,-0.08,-0.54,-0.011,-0.09,9.809,-0.01,-0.01,-0.01
1777734002.6093411,-12.11,-0.08,-0.54,-0.014,-0.093,9.809,-0.01,0.0,0.0
1777734002.61965,-12.11,-0.08,-0.54,-0.016,-0.092,9.809,0.0,0.0,-0.01
1777734002.630554,-12.11,-0.08,-0.54,-0.014,-0.092,9.809,0.0,-0.01,-0.01
1777734002.639894,-12.11,-0.08,-0.54,-0.013,-0.089,9.809,0.0,0.0,-0.01
1777734002.6497147,-12.11,-0.08,-0.54,-0.012,-0.09,9.809,-0.01,0.0,0.0
1777734002.6605415,-12.11,-0.08,-0.54,-0.008,-0.087,9.809,0.0,0.0,0.0
1777734002.669836,-12.11,-0.08,-0.54,-0.004,-0.09,9.809,0.0,0.0,-0.01
1777734002.6797638,-12.11,-0.08,-0.54,-0.004,-0.093,9.809,-0.01,0.0,-0.01
1777734002.6890976,-12.11,-0.08,-0.54,-0.006,-0.096,9.809,-0.01,0.0,-0.01
1777734002.6991105,-12.11,-0.08,-0.54,-0.011,-0.095,9.809,0.0,0.0,0.0
1777734002.7090905,-12.11,-0.08,-0.55,-0.007,-0.093,9.809,0.0,-0.01,-0.01
1777734002.7191474,-12.11,-0.07,-0.55,-0.01,-0.093,9.809,-0.01,-0.01,0.0
1777734002.7290823,-12.11,-0.07,-0.55,-0.01,-0.096,9.809,0.0,-0.01,0.0
1777734002.7391863,-12.11,-0.07,-0.55,-0.011,-0.093,9.809,0.0,0.0,-0.01
1777734002.7491736,-12.11,-0.07,-0.54,-0.01,-0.092,9.809,0.0,0.0,-0.01
1777734002.7595305,-12.11,-0.07,-0.55,-0.011,-0.093,9.809,-0.01,-0.01,-0.01
1777734002.7694662,-12.11,-0.07,-0.54,-0.016,-0.098,9.809,-0.01,-0.01,0.0
1777734002.7790177,-12.11,-0.07,-0.55,-0.014,-0.109,9.809,0.0,0.0,0.0
1777734002.7889984,-12.12,-0.07,-0.55,-0.016,-0.113,9.809,-0.01,0.0,0.0
1777734002.7990112,-12.12,-0.07,-0.55,-0.022,-0.131,9.809,0.0,0.0,0.0
1777734002.8091743,-12.13,-0.07,-0.55,-0.017,-0.122,9.809,0.0,-0.01,0.0
1777734002.819434,-12.14,-0.07,-0.55,-0.019,-0.101,9.809,0.0,-0.01,0.0
1777734002.8289478,-12.13,-0.08,-0.54,-0.017,-0.078,9.809,0.0,0.0,0.0
1777734002.8394146,-12.13,-0.08,-0.53,-0.014,-0.067,9.809,0.0,0.0,-0.01
1777734002.8489645,-12.12,-0.08,-0.53,-0.013,-0.069,9.809,0.0,-0.01,-0.01
1777734002.8589733,-12.12,-0.08,-0.53,-0.013,-0.075,9.809,-0.01,0.0,-0.01
1777734002.8689387,-12.12,-0.08,-0.53,-0.008,-0.084,9.809,0.0,0.0,-0.01
1777734002.8789604,-12.12,-0.07,-0.54,-0.008,-0.087,9.809,-0.01,0.0,0.0
1777734002.8889003,-12.12,-0.07,-0.54,-0.008,-0.089,9.809,-0.01,0.0,0.0
1777734002.898908,-12.12,-0.08,-0.54,-0.011,-0.087,9.809,-0.01,0.0,0.0
1777734002.908861,-12.12,-0.08,-0.54,-0.01,-0.096,9.809,-0.01,0.0,0.0
1777734002.918972,-12.12,-0.07,-0.54,-0.014,-0.099,9.809,-0.01,0.0,-0.01
1777734002.9288793,-12.12,-0.08,-0.55,-0.008,-0.108,9.809,-0.01,-0.01,-0.01
1777734002.938886,-12.12,-0.08,-0.55,-0.013,-0.116,9.809,-0.01,0.0,-0.01
1777734002.9488504,-12.12,-0.07,-0.55,-0.011,-0.115,9.809,0.0,0.0,-0.01
1777734002.9588969,-12.12,-0.07,-0.55,-0.012,-0.109,9.809,0.0,-0.01,0.0
1777734002.9688292,-12.12,-0.07,-0.55,-0.012,-0.102,9.809,0.0,-0.01,0.0
1777734002.9788134,-12.12,-0.07,-0.55,-0.007,-0.09,9.809,0.0,-0.01,0.0
1777734002.9893246,-12.12,-0.07,-0.54,-0.004,-0.079,9.809,0.0,0.0,0.0
1777734002.998823,-12.12,-0.07,-0.54,-0.007,-0.073,9.809,-0.01,0.0,-0.01
1777734003.008953,-12.12,-0.07,-0.54,-0.005,-0.077,9.809,-0.01,0.0,-0.01
1777734003.0188227,-12.12,-0.07,-0.54,-0.008,-0.087,9.809,-0.01,0.0,-0.01
1777734003.0288444,-12.12,-0.07,-0.54,-0.011,-0.09,9.809,-0.01,0.0,-0.01
1777734003.038788,-12.12,-0.07,-0.55,-0.014,-0.09,9.809,-0.01,0.0,0.0
1777734003.0487626,-12.12,-0.07,-0.55,-0.018,-0.09,9.809,-0.01,0.0,0.0
1777734003.058768,-12.12,-0.07,-0.55,-0.016,-0.087,9.809,-0.01,0.0,0.0
1777734003.068763,-12.12,-0.07,-0.54,-0.014,-0.091,9.809,0.0,0.0,-0.01
1777734003.0791464,-12.12,-0.07,-0.54,-0.011,-0.09,9.809,0.0,0.0,-0.01
1777734003.088718,-12.12,-0.07,-0.54,-0.011,-0.095,9.809,0.0,0.0,-0.01
1777734003.0987453,-12.12,-0.07,-0.54,-0.012,-0.095,9.809,0.0,0.0,-0.01
1777734003.1087441,-12.12,-0.07,-0.54,-0.012,-0.097,9.809,0.0,-0.01,-0.01
1777734003.119059,-12.12,-0.07,-0.54,-0.012,-0.093,9.809,0.0,0.0,-0.01
1777734003.1287816,-12.12,-0.07,-0.54,-0.012,-0.089,9.809,0.0,0.0,0.0
1777734003.13868,-12.12,-0.07,-0.54,-0.011,-0.086,9.809,0.0,0.0,0.0
1777734003.1487162,-12.12,-0.07,-0.54,-0.008,-0.09,9.809,0.0,0.0,0.0
1777734003.1587079,-12.12,-0.07,-0.54,-0.013,-0.09,9.809,-0.01,0.0,-0.01
1777734003.1687078,-12.12,-0.07,-0.54,-0.016,-0.092,9.809,-0.01,0.0,-0.01
1777734003.1786993,-12.12,-0.07,-0.54,-0.017,-0.095,9.809,0.0,-0.01,-0.01
1777734003.1886249,-12.12,-0.07,-0.54,-0.019,-0.102,9.809,-0.01,-0.01,-0.01
1777734003.198617,-12.12,-0.07,-0.55,-0.017,-0.101,9.809,-0.01,0.0,0.0
1777734003.208678,-12.12,-0.07,-0.55,-0.018,-0.102,9.809,-0.01,-0.01,0.0
1777734003.21864,-12.12,-0.07,-0.55,-0.016,-0.104,9.809,0.0,0.0,0.0
1777734003.2286177,-12.12,-0.07,-0.55,-0.016,-0.099,9.809,0.0,0.0,0.0
1777734003.2385929,-12.12,-0.07,-0.55,-0.019,-0.092,9.809,0.0,0.0,-0.01
1777734003.2493763,-12.12,-0.07,-0.55,-0.014,-0.093,9.809,0.0,-0.01,-0.01
1777734003.2591052,-12.12,-0.07,-0.55,-0.016,-0.097,9.809,0.0,0.0,-0.01
1777734003.2685943,-12.12,-0.07,-0.55,-0.014,-0.097,9.809,0.0,0.0,-0.01
1777734003.2785923,-12.12,-0.07,-0.55,-0.019,-0.095,9.809,0.0,0.0,0.0
1777734003.2885818,-12.12,-0.07,-0.55,-0.018,-0.101,9.809,0.0,0.0,-0.01
1777734003.2985764,-12.12,-0.07,-0.55,-0.018,-0.099,9.809,0.0,0.0,-0.01
1777734003.3085783,-12.12,-0.07,-0.55,-0.018,-0.093,9.809,-0.01,0.0,-0.01
1777734003.317759,-12.12,-0.07,-0.55,-0.014,-0.096,9.809,0.0,0.0,0.0
1777734003.3277385,-12.12,-0.07,-0.55,-0.012,-0.099,9.809,-0.01,0.0,-0.01
1777734003.3377378,-12.12,-0.08,-0.55,-0.02,-0.098,9.809,-0.01,0.0,0.0
1777734003.347673,-12.12,-0.08,-0.55,-0.018,-0.097,9.809,0.0,0.0,-0.01
1777734003.35853,-12.12,-0.08,-0.55,-0.014,-0.098,9.809,0.0,0.0,0.0
1777734003.367724,-12.12,-0.08,-0.55,-0.012,-0.097,9.809,0.0,-0.01,0.0
1777734003.3778293,-12.12,-0.08,-0.55,-0.011,-0.097,9.809,0.0,0.0,-0.01
1777734003.387661,-12.12,-0.08,-0.55,-0.01,-0.101,9.809,0.0,0.0,0.0
1777734003.39764,-12.12,-0.08,-0.55,-0.013,-0.095,9.809,0.0,0.0,-0.01
1777734003.4076474,-12.12,-0.08,-0.55,-0.017,-0.091,9.809,0.0,0.0,-0.01
1777734003.4176455,-12.12,-0.08,-0.55,-0.016,-0.09,9.809,-0.01,0.0,0.0
1777734003.427627,-12.12,-0.08,-0.55,-0.018,-0.09,9.809,0.0,0.0,-0.01
1777734003.4376194,-12.12,-0.08,-0.55,-0.022,-0.09,9.809,0.0,0.0,-0.01
1777734003.4476006,-12.12,-0.08,-0.55,-0.023,-0.092,9.809,0.0,0.0,-0.01
1777734003.4575868,-12.12,-0.08,-0.55,-0.019,-0.086,9.809,-0.01,0.0,-0.01
1777734003.4676173,-12.12,-0.08,-0.54,-0.013,-0.089,9.809,0.0,-0.01,-0.01
1777734003.477546,-12.12,-0.08,-0.54,-0.012,-0.091,9.809,0.0,0.0,-0.01
1777734003.487594,-12.12,-0.08,-0.55,-0.008,-0.097,9.809,-0.01,0.0,0.0
1777734003.4975655,-12.12,-0.08,-0.55,-0.011,-0.09,9.809,0.0,-0.01,0.0
1777734003.5075808,-12.12,-0.08,-0.54,-0.016,-0.093,9.809,-0.01,0.0,0.0
1777734003.5175483,-12.12,-0.08,-0.54,-0.013,-0.092,9.809,0.0,-0.01,-0.01
1777734003.5275102,-12.12,-0.08,-0.54,-0.017,-0.09,9.809,0.0,0.0,-0.01
1777734003.5375104,-12.12,-0.08,-0.54,-0.016,-0.091,9.809,0.0,-0.01,-0.01
1777734003.5474777,-12.12,-0.08,-0.54,-0.012,-0.092,9.809,0.0,0.0,0.0
1777734003.5575237,-12.12,-0.08,-0.54,-0.014,-0.089,9.809,0.0,0.0,-0.01
1777734003.5675156,-12.12,-0.08,-0.54,-0.013,-0.087,9.809,-0.01,0.0,-0.01
1777734003.577485,-12.12,-0.08,-0.55,-0.014,-0.091,9.809,-0.01,0.0,0.0
1777734003.5875008,-12.12,-0.08,-0.55,-0.017,-0.09,9.809,-0.01,0.0,-0.01
1777734003.5974674,-12.12,-0.08,-0.55,-0.018,-0.091,9.809,-0.01,0.0,-0.01
1777734003.6074579,-12.12,-0.08,-0.55,-0.019,-0.092,9.809,0.0,0.0,0.0
1777734003.6174836,-12.12,-0.08,-0.55,-0.019,-0.092,9.809,0.0,0.0,-0.01
1777734003.6274354,-12.12,-0.08,-0.55,-0.02,-0.09,9.809,0.0,-0.01,0.0
1777734003.6374474,-12.12,-0.08,-0.54,-0.02,-0.089,9.809,0.0,0.0,0.0
1777734003.6474314,-12.12,-0.09,-0.54,-0.012,-0.085,9.809,0.0,0.0,0.0
1777734003.6574101,-12.12,-0.08,-0.54,-0.012,-0.086,9.809,0.0,0.0,-0.01
1777734003.6674023,-12.12,-0.08,-0.54,-0.014,-0.087,9.809,0.0,0.0,-0.01
1777734003.677464,-12.12,-0.08,-0.54,-0.014,-0.087,9.809,-0.01,0.0,0.0
1777734003.68742,-12.12,-0.09,-0.54,-0.014,-0.09,9.809,0.0,0.0,0.0
1777734003.697394,-12.12,-0.08,-0.54,-0.013,-0.089,9.809,0.0,0.0,-0.01
1777734003.7073736,-12.12,-0.08,-0.54,-0.011,-0.085,9.809,0.0,-0.01,0.0
1777734003.7173553,-12.12,-0.08,-0.54,-0.011,-0.087,9.809,-0.01,0.0,-0.01
1777734003.7274308,-12.12,-0.08,-0.54,-0.014,-0.091,9.809,0.0,0.0,-0.01
1777734003.7376974,-12.12,-0.08,-0.54,-0.013,-0.097,9.809,0.0,0.0,0.0
1777734003.7473412,-12.12,-0.08,-0.54,-0.014,-0.097,9.809,0.0,-0.01,-0.01
1777734003.7576594,-12.12,-0.08,-0.54,-0.016,-0.101,9.809,0.0,-0.01,-0.01
1777734003.7673368,-12.12,-0.08,-0.54,-0.016,-0.099,9.809,0.0,0.0,-0.01
1777734003.777328,-12.12,-0.08,-0.54,-0.019,-0.098,9.809,0.0,0.0,-0.01
1777734003.7878015,-12.12,-0.08,-0.54,-0.017,-0.098,9.809,-0.01,-0.01,-0.01
1777734003.7979789,-12.12,-0.08,-0.54,-0.014,-0.099,9.809,0.0,-0.01,-0.01
1777734003.8079486,-12.12,-0.08,-0.54,-0.013,-0.099,9.809,0.0,0.0,-0.01
1777734003.8179297,-12.12,-0.08,-0.55,-0.011,-0.096,9.809,0.0,0.0,-0.01
1777734003.8279161,-12.12,-0.08,-0.55,-0.01,-0.095,9.809,-0.01,0.0,-0.01
1777734003.8373861,-12.12,-0.08,-0.55,-0.011,-0.086,9.809,-0.01,0.0,-0.01
1777734003.8472877,-12.12,-0.08,-0.54,-0.012,-0.089,9.809,0.0,0.0,-0.01
1777734003.8572457,-12.12,-0.08,-0.54,-0.017,-0.087,9.809,0.0,0.0,0.0
1777734003.8672423,-12.12,-0.08,-0.54,-0.018,-0.086,9.809,-0.01,-0.01,-0.01
1777734003.8772352,-12.12,-0.08,-0.54,-0.019,-0.084,9.809,-0.01,-0.01,0.0
1777734003.887237,-12.12,-0.08,-0.54,-0.016,-0.089,9.809,0.0,-0.01,-0.01
1777734003.8973143,-12.12,-0.08,-0.54,-0.006,-0.093,9.809,-0.01,0.0,0.0
1777734003.9072077,-12.12,-0.08,-0.54,-0.004,-0.093,9.809,0.0,0.0,-0.01
1777734003.9171767,-12.12,-0.08,-0.54,-0.001,-0.093,9.809,0.0,0.0,-0.01
1777734003.9272022,-12.12,-0.08,-0.54,0.001,-0.089,9.809,-0.01,0.0,0.0
1777734003.9377415,-12.12,-0.08,-0.54,0.0,-0.089,9.809,0.0,0.0,-0.01
1777734003.9471614,-12.12,-0.07,-0.54,-0.002,-0.084,9.809,0.0,-0.01,0.0
1777734003.9571435,-12.12,-0.07,-0.54,-0.005,-0.087,9.809,0.0,0.0,-0.01
1777734003.9663563,-12.12,-0.08,-0.54,-0.008,-0.091,9.809,-0.01,0.0,-0.01
1777734003.9771638,-12.12,-0.08,-0.54,-0.01,-0.09,9.809,0.0,0.0,-0.01
1777734003.9871373,-12.12,-0.08,-0.54,-0.011,-0.095,9.809,0.0,0.0,-0.01
1777734003.997107,-12.12,-0.08,-0.54,-0.01,-0.095,9.809,-0.01,0.0,0.0
1777734004.006301,-12.12,-0.07,-0.54,-0.008,-0.093,9.809,-0.01,0.0,0.0
1777734004.0171285,-12.12,-0.07,-0.54,-0.007,-0.093,9.809,0.0,-0.01,0.0
1777734004.0271244,-12.12,-0.07,-0.54,-0.012,-0.101,9.809,0.0,0.0,-0.01
1777734004.0371182,-12.12,-0.07,-0.54,-0.008,-0.097,9.809,-0.01,0.0,-0.01
1777734004.0471132,-12.12,-0.07,-0.54,-0.013,-0.098,9.809,0.0,-0.01,-0.01
1777734004.0571332,-12.12,-0.07,-0.54,-0.016,-0.102,9.809,0.0,0.0,0.0
1777734004.0670896,-12.12,-0.07,-0.54,-0.008,-0.096,9.809,-0.01,0.0,-0.01
1777734004.0762823,-12.12,-0.07,-0.54,-0.011,-0.093,9.809,0.0,0.0,0.0
1777734004.0862741,-12.12,-0.07,-0.54,-0.008,-0.096,9.809,0.0,-0.01,-0.01
1777734004.0962973,-12.12,-0.07,-0.54,-0.008,-0.101,9.809,0.0,-0.01,-0.01
1777734004.1062553,-12.12,-0.07,-0.55,-0.005,-0.103,9.809,0.0,0.0,-0.01
1777734004.116221,-12.13,-0.07,-0.55,-0.007,-0.098,9.809,0.0,-0.01,-0.01
1777734004.1262608,-12.13,-0.07,-0.54,-0.013,-0.098,9.809,0.0,0.0,0.0
1777734004.1362433,-12.13,-0.07,-0.55,-0.018,-0.095,9.809,0.0,0.0,0.0
1777734004.1462016,-12.13,-0.07,-0.55,-0.014,-0.092,9.809,0.0,0.0,-0.01
1777734004.15618,-12.13,-0.07,-0.55,-0.013,-0.093,9.809,-0.01,0.0,-0.01
1777734004.166178,-12.13,-0.07,-0.55,-0.014,-0.092,9.809,-0.01,0.0,0.0
1777734004.1761549,-12.13,-0.07,-0.55,-0.016,-0.093,9.809,0.0,0.0,-0.01
1777734004.1861434,-12.13,-0.07,-0.55,-0.017,-0.087,9.809,0.0,0.0,0.0
1777734004.196127,-12.13,-0.07,-0.54,-0.017,-0.085,9.809,-0.01,0.0,-0.01
1777734004.2061353,-12.13,-0.07,-0.54,-0.019,-0.09,9.809,-0.01,0.0,0.0
1777734004.2161477,-12.13,-0.08,-0.55,-0.017,-0.093,9.809,-0.01,0.0,-0.01
1777734004.2261171,-12.13,-0.08,-0.55,-0.019,-0.093,9.809,-0.01,0.0,-0.01
1777734004.2361212,-12.13,-0.07,-0.55,-0.013,-0.091,9.809,0.0,-0.01,-0.01
1777734004.2461271,-12.13,-0.07,-0.55,-0.012,-0.092,9.809,-0.01,0.0,-0.01
1777734004.2561107,-12.13,-0.07,-0.55,-0.011,-0.091,9.809,0.0,-0.01,-0.01
1777734004.2661135,-12.13,-0.07,-0.55,-0.008,-0.093,9.809,0.0,0.0,-0.01
1777734004.276105,-12.13,-0.07,-0.55,-0.007,-0.092,9.809,0.0,-0.01,-0.01
1777734004.2861094,-12.12,-0.07,-0.54,-0.007,-0.093,9.809,0.0,0.0,-0.01
1777734004.2960393,-12.12,-0.07,-0.54,-0.01,-0.093,9.809,0.0,0.0,-0.01
1777734004.3060405,-12.13,-0.07,-0.54,-0.014,-0.095,9.809,0.0,-0.01,-0.01
1777734004.316029,-12.12,-0.07,-0.54,-0.017,-0.089,9.809,-0.01,0.0,-0.01
1777734004.3260043,-12.12,-0.07,-0.54,-0.016,-0.089,9.809,-0.01,-0.01,-0.01
1777734004.3360138,-12.13,-0.07,-0.54,-0.012,-0.089,9.809,-0.01,-0.01,-0.01
1777734004.3465216,-12.13,-0.07,-0.54,-0.012,-0.089,9.809,0.0,0.0,0.0
1777734004.3560274,-12.13,-0.07,-0.54,-0.016,-0.092,9.809,-0.01,0.0,0.0
1777734004.3665283,-12.13,-0.07,-0.54,-0.018,-0.093,9.809,0.0,0.0,-0.01
1777734004.3763442,-12.13,-0.07,-0.54,-0.018,-0.095,9.809,0.0,0.0,-0.01
1777734004.385977,-12.13,-0.07,-0.54,-0.019,-0.092,9.809,-0.01,0.0,0.0
1777734004.3959427,-12.13,-0.07,-0.54,-0.022,-0.092,9.809,0.0,0.0,0.0
1777734004.405965,-12.13,-0.07,-0.54,-0.018,-0.093,9.809,0.0,0.0,0.0
1777734004.4159484,-12.13,-0.07,-0.54,-0.019,-0.093,9.809,0.0,-0.01,0.0
1777734004.426277,-12.13,-0.07,-0.54,-0.02,-0.095,9.809,-0.01,-0.01,-0.01
1777734004.4359496,-12.13,-0.07,-0.54,-0.022,-0.099,9.809,0.0,0.0,-0.01
1777734004.4459116,-12.13,-0.07,-0.54,-0.02,-0.096,9.809,0.0,0.0,-0.01
1777734004.4559057,-12.13,-0.07,-0.54,-0.014,-0.095,9.809,0.0,0.0,-0.01
1777734004.46592,-12.13,-0.07,-0.54,-0.016,-0.092,9.809,0.0,0.0,-0.01
1777734004.4759707,-12.13,-0.07,-0.54,-0.016,-0.092,9.809,0.0,0.0,0.0
1777734004.4864573,-12.13,-0.07,-0.54,-0.014,-0.089,9.809,0.0,0.0,0.0
1777734004.4959013,-12.13,-0.07,-0.54,-0.01,-0.091,9.809,0.0,0.0,-0.01
1777734004.505889,-12.13,-0.07,-0.54,-0.016,-0.091,9.809,0.0,0.0,-0.01
1777734004.5158756,-12.13,-0.07,-0.54,-0.016,-0.086,9.809,0.0,-0.01,0.0
1777734004.5258734,-12.13,-0.07,-0.54,-0.016,-0.092,9.809,-0.01,-0.01,-0.01
1777734004.535876,-12.13,-0.07,-0.54,-0.014,-0.095,9.809,0.0,0.0,-0.01
1777734004.5458813,-12.13,-0.07,-0.54,-0.017,-0.093,9.809,0.0,0.0,-0.01
1777734004.5558307,-12.13,-0.07,-0.54,-0.014,-0.09,9.809,0.0,-0.01,0.0
1777734004.5658195,-12.13,-0.07,-0.54,-0.013,-0.092,9.809,0.0,0.0,-0.01
1777734004.5759025,-12.13,-0.07,-0.54,-0.011,-0.091,9.809,0.0,-0.01,-0.01
1777734004.5857904,-12.13,-0.07,-0.54,-0.013,-0.09,9.809,0.0,0.0,-0.01
1777734004.5958092,-12.13,-0.07,-0.54,-0.016,-0.09,9.809,-0.01,0.0,-0.01
1777734004.6057854,-12.13,-0.07,-0.54,-0.017,-0.087,9.809,0.0,0.0,-0.01
1777734004.6158278,-12.13,-0.08,-0.54,-0.018,-0.089,9.809,0.0,0.0,0.0
1777734004.6258426,-12.13,-0.08,-0.54,-0.013,-0.09,9.809,0.0,-0.01,0.0
1777734004.6364717,-12.13,-0.07,-0.54,-0.016,-0.087,9.809,0.0,0.0,-0.01
1777734004.6462023,-12.13,-0.07,-0.54,-0.018,-0.092,9.809,0.0,-0.01,-0.01
1777734004.6557367,-12.13,-0.08,-0.54,-0.02,-0.095,9.809,0.0,0.0,-0.01
1777734004.6657562,-12.13,-0.08,-0.54,-0.018,-0.095,9.809,-0.01,-0.01,-0.01
1777734004.675796,-12.13,-0.08,-0.54,-0.017,-0.095,9.809,0.0,0.0,0.0
1777734004.686202,-12.13,-0.08,-0.54,-0.016,-0.091,9.809,0.0,0.0,-0.01
1777734004.6962957,-12.13,-0.07,-0.54,-0.013,-0.09,9.809,-0.01,0.0,-0.01
1777734004.7062576,-12.13,-0.08,-0.54,-0.012,-0.092,9.809,-0.01,0.0,-0.01
1777734004.7162144,-12.13,-0.08,-0.54,-0.012,-0.095,9.809,-0.01,0.0,-0.01
1777734004.726149,-12.13,-0.08,-0.54,-0.012,-0.092,9.809,0.0,0.0,-0.01
1777734004.734918,-12.13,-0.08,-0.54,-0.014,-0.095,9.809,0.0,0.0,0.0
1777734004.7456937,-12.13,-0.08,-0.54,-0.017,-0.095,9.809,0.0,0.0,0.0
1777734004.7556887,-12.13,-0.08,-0.54,-0.02,-0.093,9.809,0.0,-0.01,-0.01
1777734004.7656882,-12.13,-0.08,-0.54,-0.02,-0.098,9.809,0.0,-0.01,-0.01
1777734004.7756662,-12.13,-0.08,-0.54,-0.019,-0.097,9.809,0.0,0.0,-0.01
1777734004.785638,-12.13,-0.08,-0.54,-0.016,-0.097,9.809,0.0,-0.01,-0.01
1777734004.795633,-12.13,-0.07,-0.54,-0.013,-0.098,9.809,0.0,-0.01,-0.01
1777734004.8048272,-12.13,-0.07,-0.54,-0.013,-0.093,9.809,0.0,0.0,-0.01
1777734004.8148468,-12.13,-0.07,-0.54,-0.012,-0.093,9.809,-0.01,-0.01,-0.01
1777734004.824871,-12.13,-0.07,-0.54,-0.014,-0.089,9.809,0.0,0.0,-0.01
1777734004.8352566,-12.13,-0.07,-0.54,-0.016,-0.089,9.809,0.0,0.0,-0.01
1777734004.845074,-12.13,-0.08,-0.54,-0.019,-0.09,9.809,0.0,0.0,-0.01
1777734004.8552341,-12.13,-0.08,-0.54,-0.017,-0.089,9.809,0.0,0.0,-0.01
1777734004.8647518,-12.13,-0.08,-0.54,-0.018,-0.093,9.809,0.0,0.0,-0.01
1777734004.8755877,-12.13,-0.08,-0.54,-0.016,-0.096,9.809,0.0,0.0,-0.01
1777734004.88478,-12.13,-0.08,-0.54,-0.018,-0.103,9.809,0.0,-0.01,-0.01
1777734004.8947723,-12.13,-0.08,-0.54,-0.02,-0.101,9.809,0.0,-0.01,-0.01
1777734004.904746,-12.13,-0.08,-0.54,-0.014,-0.099,9.809,0.0,-0.01,-0.01
1777734004.9147232,-12.13,-0.07,-0.54,-0.013,-0.093,9.809,-0.01,0.0,0.0
1777734004.9247315,-12.13,-0.07,-0.54,-0.01,-0.091,9.809,-0.01,-0.01,0.0
1777734004.9347527,-12.13,-0.07,-0.54,-0.01,-0.093,9.809,-0.01,-0.01,-0.01
1777734004.9447021,-12.13,-0.07,-0.54,-0.005,-0.093,9.809,0.0,0.0,-0.01
1777734004.9547207,-12.13,-0.07,-0.54,-0.005,-0.093,9.809,0.0,0.0,-0.01
1777734004.964687,-12.13,-0.07,-0.54,-0.011,-0.091,9.809,0.0,0.0,0.0
1777734004.974659,-12.13,-0.07,-0.54,-0.007,-0.091,9.809,0.0,0.0,-0.01
1777734004.9848013,-12.13,-0.07,-0.54,-0.017,-0.091,9.809,-0.01,0.0,-0.01
1777734004.9946463,-12.13,-0.07,-0.54,-0.019,-0.091,9.809,0.0,0.0,-0.01
1777734005.004771,-12.13,-0.07,-0.54,-0.02,-0.086,9.809,0.0,-0.01,-0.01
1777734005.0146604,-12.13,-0.07,-0.54,-0.019,-0.09,9.809,0.0,0.0,-0.01
1777734005.0246644,-12.13,-0.07,-0.54,-0.016,-0.09,9.809,0.0,-0.01,-0.01
1777734005.0346732,-12.13,-0.07,-0.54,-0.018,-0.083,9.809,0.0,-0.01,-0.01
1777734005.0446417,-12.13,-0.07,-0.54,-0.012,-0.083,9.809,-0.01,0.0,-0.01
1777734005.0546463,-12.13,-0.07,-0.54,-0.018,-0.085,9.809,-0.01,0.0,0.0
1777734005.0646021,-12.13,-0.07,-0.54,-0.02,-0.085,9.809,-0.01,0.0,0.0
1777734005.0745978,-12.13,-0.07,-0.54,-0.017,-0.08,9.809,0.0,0.0,-0.01
1777734005.0847235,-12.13,-0.07,-0.53,-0.01,-0.084,9.809,0.0,0.0,-0.01
1777734005.0945518,-12.13,-0.07,-0.53,-0.007,-0.084,9.809,-0.01,0.0,-0.01
1777734005.1047268,-12.13,-0.07,-0.53,-0.012,-0.09,9.809,0.0,0.0,0.0
1777734005.1145778,-12.13,-0.07,-0.53,-0.013,-0.091,9.809,0.0,-0.01,0.0
1777734005.1248078,-12.13,-0.07,-0.53,-0.016,-0.091,9.809,0.0,0.0,-0.01
1777734005.1349332,-12.13,-0.07,-0.53,-0.024,-0.087,9.809,0.0,0.0,-0.01
1777734005.1450243,-12.13,-0.08,-0.53,-0.023,-0.089,9.809,0.0,0.0,-0.01
1777734005.1551394,-12.13,-0.07,-0.53,-0.022,-0.089,9.809,0.0,0.0,0.0
1777734005.1650088,-12.13,-0.07,-0.53,-0.019,-0.095,9.809,0.0,-0.01,0.0
1777734005.1747768,-12.13,-0.07,-0.54,-0.014,-0.095,9.809,-0.01,0.0,-0.01
1777734005.1847882,-12.13,-0.07,-0.54,-0.012,-0.096,9.809,-0.01,0.0,-0.01
1777734005.1949975,-12.13,-0.07,-0.54,-0.008,-0.099,9.809,-0.01,0.0,-0.01
1777734005.2047048,-12.13,-0.07,-0.54,-0.005,-0.096,9.809,0.0,-0.01,0.0
1777734005.214966,-12.13,-0.07,-0.54,-0.004,-0.099,9.809,0.0,0.0,0.0
1777734005.2244656,-12.13,-0.07,-0.54,-0.007,-0.098,9.809,-0.01,-0.01,0.0
1777734005.2344582,-12.13,-0.07,-0.54,-0.005,-0.095,9.809,-0.01,0.0,-0.01
1777734005.24445,-12.13,-0.07,-0.54,-0.002,-0.089,9.809,0.0,0.0,-0.01
1777734005.254906,-12.13,-0.07,-0.54,-0.006,-0.087,9.809,0.0,-0.01,-0.01
1777734005.264458,-12.13,-0.07,-0.54,-0.006,-0.095,9.809,0.0,0.0,-0.01
1777734005.274441,-12.13,-0.07,-0.54,-0.006,-0.101,9.809,0.0,0.0,-0.01
1777734005.284432,-12.13,-0.07,-0.54,-0.011,-0.098,9.809,-0.01,0.0,-0.01
1777734005.2951524,-12.13,-0.07,-0.54,-0.012,-0.099,9.809,0.0,0.0,0.0
1777734005.3044004,-12.14,-0.07,-0.54,-0.013,-0.096,9.809,-0.01,0.0,0.0
1777734005.3145802,-12.14,-0.07,-0.54,-0.012,-0.092,9.809,0.0,0.0,0.0
1777734005.32441,-12.13,-0.07,-0.54,-0.019,-0.093,9.809,0.0,0.0,-0.01
1777734005.334383,-12.13,-0.07,-0.54,-0.019,-0.097,9.809,0.0,0.0,-0.01
1777734005.3443992,-12.13,-0.07,-0.54,-0.024,-0.099,9.809,-0.01,0.0,-0.01
1777734005.3543527,-12.13,-0.07,-0.54,-0.024,-0.099,9.809,0.0,0.0,-0.01
1777734005.3750973,-12.13,-0.07,-0.54,-0.019,-0.098,9.809,0.0,0.0,0.0
1777734005.39636,-12.13,-0.07,-0.54,-0.019,-0.095,9.809,0.0,-0.01,0.0
1777734005.402742,-12.13,-0.07,-0.54,-0.019,-0.091,9.809,0.0,0.0,0.0
1777734005.4094625,-12.14,-0.07,-0.54,-0.018,-0.089,9.809,0.0,0.0,-0.01
1777734005.415478,-12.14,-0.07,-0.54,-0.014,-0.086,9.809,0.0,-0.01,-0.01
1777734005.4219773,-12.14,-0.07,-0.54,-0.014,-0.09,9.809,0.0,0.0,-0.01
1777734005.4279308,-12.14,-0.07,-0.54,-0.012,-0.089,9.81,-0.01,0.0,-0.01
1777734005.4343045,-12.14,-0.07,-0.54,-0.007,-0.092,9.81,0.0,0.0,0.0
1777734005.4444044,-12.14,-0.07,-0.54,-0.004,-0.097,9.81,-0.01,0.0,0.0
1777734005.4541242,-12.14,-0.07,-0.54,-0.005,-0.097,9.81,-0.01,0.0,0.0
1777734005.4646244,-12.14,-0.07,-0.54,-0.001,-0.093,9.81,0.0,0.0,-0.01
1777734005.4744349,-12.14,-0.07,-0.54,-0.007,-0.096,9.81,-0.01,0.0,-0.01
1777734005.484268,-12.14,-0.07,-0.54,-0.012,-0.097,9.81,-0.01,-0.01,-0.01
1777734005.495067,-12.14,-0.07,-0.54,-0.011,-0.095,9.81,0.0,0.0,0.0
1777734005.5047355,-12.14,-0.07,-0.54,-0.012,-0.092,9.81,-0.01,0.0,-0.01
1777734005.514713,-12.14,-0.07,-0.54,-0.016,-0.091,9.81,0.0,0.0,-0.01
1777734005.5241761,-12.14,-0.07,-0.54,-0.016,-0.091,9.81,0.0,0.0,0.0
1777734005.533401,-12.14,-0.07,-0.54,-0.019,-0.085,9.81,0.0,0.0,-0.01
1777734005.5440829,-12.14,-0.07,-0.54,-0.016,-0.081,9.81,0.0,0.0,-0.01
1777734005.5533884,-12.14,-0.07,-0.54,-0.022,-0.081,9.809,0.0,-0.01,-0.01
1777734005.5666685,-12.13,-0.07,-0.54,-0.023,-0.084,9.809,0.0,-0.01,-0.01
1777734005.5733814,-12.14,-0.07,-0.54,-0.022,-0.09,9.809,-0.01,0.0,-0.01
1777734005.5841904,-12.14,-0.07,-0.54,-0.018,-0.087,9.809,-0.01,0.0,-0.01
1777734005.595292,-12.14,-0.07,-0.54,-0.016,-0.087,9.809,-0.01,0.0,-0.01
1777734005.6038785,-12.13,-0.07,-0.54,-0.018,-0.09,9.809,0.0,-0.01,-0.01
1777734005.6142907,-12.13,-0.07,-0.54,-0.019,-0.086,9.809,0.0,0.0,-0.01
1777734005.6234603,-12.13,-0.07,-0.54,-0.017,-0.087,9.809,0.0,-0.01,-0.01
1777734005.6336539,-12.13,-0.07,-0.54,-0.018,-0.096,9.809,0.0,0.0,-0.01
1777734005.6442454,-12.13,-0.07,-0.54,-0.02,-0.095,9.809,0.0,0.0,-0.01
1777734005.6537647,-12.13,-0.07,-0.54,-0.017,-0.097,9.809,0.0,-0.01,-0.01
1777734005.6659718,-12.13,-0.07,-0.54,-0.016,-0.095,9.809,0.0,0.0,0.0
1777734005.6742241,-12.13,-0.07,-0.54,-0.016,-0.091,9.809,0.0,0.0,-0.01
1777734005.6843593,-12.13,-0.07,-0.54,-0.018,-0.086,9.809,-0.01,0.0,0.0
1777734005.6932957,-12.13,-0.07,-0.54,-0.019,-0.089,9.809,0.0,0.0,-0.01
1777734005.7036543,-12.13,-0.08,-0.54,-0.022,-0.092,9.809,0.0,0.0,-0.01
1777734005.7135653,-12.13,-0.08,-0.54,-0.013,-0.093,9.809,0.0,0.0,-0.01
1777734005.7235277,-12.13,-0.07,-0.54,-0.008,-0.095,9.809,0.0,0.0,-0.01
1777734005.7332375,-12.13,-0.08,-0.54,-0.011,-0.091,9.809,0.0,0.0,-0.01
1777734005.743216,-12.13,-0.07,-0.54,-0.01,-0.095,9.809,0.0,0.0,-0.01
1777734005.7535324,-12.14,-0.07,-0.54,-0.007,-0.095,9.809,0.0,0.0,-0.01
1777734005.7632916,-12.14,-0.07,-0.54,-0.006,-0.095,9.81,0.0,0.0,0.0
1777734005.773195,-12.14,-0.07,-0.54,-0.006,-0.092,9.81,0.0,0.0,0.0
1777734005.7831895,-12.14,-0.07,-0.54,-0.01,-0.09,9.81,0.0,0.0,0.0
1777734005.7931664,-12.14,-0.07,-0.54,-0.01,-0.092,9.81,-0.01,0.0,0.0
1777734005.8033752,-12.14,-0.07,-0.54,-0.01,-0.091,9.81,0.0,0.0,-0.01
1777734005.8132594,-12.14,-0.07,-0.54,-0.008,-0.093,9.81,0.0,0.0,0.0
1777734005.8235466,-12.14,-0.07,-0.54,-0.014,-0.099,9.81,-0.01,0.0,0.0
1777734005.8331454,-12.14,-0.07,-0.54,-0.012,-0.096,9.81,-0.01,0.0,0.0
1777734005.843584,-12.14,-0.07,-0.54,-0.012,-0.093,9.81,0.0,-0.01,-0.01
1777734005.8534575,-12.14,-0.07,-0.54,-0.016,-0.09,9.81,0.0,0.0,0.0
1777734005.8634157,-12.14,-0.07,-0.54,-0.013,-0.09,9.81,-0.01,-0.01,-0.01
1777734005.873104,-12.14,-0.07,-0.54,-0.017,-0.086,9.81,0.0,0.0,-0.01
1777734005.8834772,-12.14,-0.08,-0.53,-0.014,-0.085,9.81,0.0,0.0,-0.01
1777734005.8939612,-12.14,-0.08,-0.53,-0.013,-0.084,9.81,0.0,0.0,0.0
1777734005.903404,-12.14,-0.07,-0.53,-0.012,-0.089,9.81,0.0,0.0,0.0
1777734005.9139209,-12.14,-0.08,-0.54,-0.012,-0.087,9.81,-0.01,0.0,-0.01
1777734005.9285653,-12.14,-0.08,-0.54,-0.013,-0.09,9.81,-0.01,0.0,0.0
1777734005.945681,-12.14,-0.08,-0.54,-0.019,-0.089,9.81,-0.01,0.0,0.0
1777734005.9492848,-12.14,-0.08,-0.54,-0.018,-0.09,9.81,0.0,0.0,-0.01
1777734005.957879,-12.14,-0.08,-0.54,-0.019,-0.089,9.81,0.0,0.0,-0.01
1777734005.9665735,-12.14,-0.08,-0.54,-0.02,-0.092,9.81,0.0,0.0,-0.01
1777734005.974689,-12.14,-0.08,-0.54,-0.014,-0.093,9.81,0.0,0.0,-0.01
1777734005.9834335,-12.14,-0.08,-0.54,-0.014,-0.093,9.81,0.0,-0.01,-0.01
1777734005.9930384,-12.14,-0.08,-0.54,-0.012,-0.092,9.81,-0.01,0.0,-0.01
1777734006.002988,-12.14,-0.08,-0.54,-0.017,-0.09,9.81,0.0,0.0,0.0
1777734006.0130115,-12.14,-0.08,-0.54,-0.016,-0.09,9.81,0.0,0.0,-0.01
1777734006.023013,-12.14,-0.08,-0.54,-0.019,-0.092,9.81,0.0,0.0,-0.01
1777734006.0330043,-12.14,-0.08,-0.54,-0.023,-0.097,9.81,-0.01,0.0,-0.01
1777734006.043008,-12.14,-0.08,-0.54,-0.024,-0.097,9.81,0.0,0.0,-0.01
1777734006.0529852,-12.14,-0.08,-0.54,-0.019,-0.095,9.81,-0.01,0.0,0.0
1777734006.0629766,-12.14,-0.08,-0.54,-0.018,-0.095,9.81,0.0,0.0,-0.01
1777734006.072935,-12.14,-0.08,-0.54,-0.017,-0.097,9.81,0.0,0.0,0.0
1777734006.0829935,-12.14,-0.08,-0.54,-0.018,-0.097,9.81,0.0,0.0,0.0
1777734006.0929296,-12.14,-0.08,-0.54,-0.01,-0.095,9.81,0.0,0.0,0.0
1777734006.1029198,-12.14,-0.08,-0.54,-0.011,-0.091,9.81,0.0,0.0,-0.01
1777734006.1128993,-12.14,-0.08,-0.54,-0.016,-0.089,9.81,0.0,0.0,-0.01
1777734006.1229553,-12.14,-0.08,-0.54,-0.016,-0.093,9.81,0.0,0.0,0.0
1777734006.1328893,-12.14,-0.08,-0.54,-0.011,-0.091,9.81,0.0,0.0,0.0
1777734006.142903,-12.14,-0.08,-0.54,-0.011,-0.087,9.81,0.0,0.0,-0.01
1777734006.1528869,-12.14,-0.08,-0.54,-0.01,-0.09,9.81,-0.01,-0.01,0.0
1777734006.1628697,-12.14,-0.08,-0.54,-0.012,-0.092,9.81,0.0,0.0,-0.01
1777734006.1720502,-12.14,-0.08,-0.54,-0.013,-0.091,9.81,0.0,0.0,-0.01
1777734006.1820204,-12.14,-0.08,-0.54,-0.016,-0.093,9.81,-0.01,0.0,-0.01
1777734006.192025,-12.14,-0.08,-0.54,-0.014,-0.087,9.81,-0.01,0.0,-0.01
1777734006.202842,-12.14,-0.08,-0.54,-0.013,-0.089,9.81,-0.01,0.0,-0.01
1777734006.2128253,-12.15,-0.08,-0.54,-0.014,-0.091,9.81,-0.01,0.0,0.0
1777734006.2228723,-12.15,-0.08,-0.54,-0.013,-0.089,9.81,-0.01,-0.01,0.0
1777734006.2332766,-12.15,-0.08,-0.54,-0.012,-0.087,9.81,0.0,0.0,-0.01
1777734006.2419884,-12.15,-0.08,-0.54,-0.013,-0.091,9.81,0.0,0.0,-0.01
1777734006.25197,-12.15,-0.08,-0.54,-0.016,-0.093,9.81,0.0,0.0,-0.01
1777734006.2627947,-12.15,-0.08,-0.54,-0.017,-0.096,9.81,0.0,0.0,-0.01
1777734006.2719743,-12.15,-0.08,-0.54,-0.012,-0.095,9.81,0.0,0.0,0.0
1777734006.2820082,-12.15,-0.08,-0.54,-0.014,-0.097,9.81,-0.01,0.0,0.0
1777734006.2929173,-12.15,-0.08,-0.54,-0.016,-0.092,9.81,-0.01,0.0,0.0
1777734006.302762,-12.15,-0.09,-0.54,-0.014,-0.093,9.81,0.0,-0.01,0.0
1777734006.312197,-12.15,-0.09,-0.54,-0.017,-0.091,9.81,0.0,0.0,0.0
1777734006.3220298,-12.15,-0.09,-0.54,-0.02,-0.091,9.81,0.0,0.0,-0.01
1777734006.331974,-12.15,-0.09,-0.54,-0.014,-0.093,9.81,0.0,0.0,-0.01
1777734006.3425727,-12.15,-0.09,-0.54,-0.013,-0.097,9.81,0.0,0.0,-0.01
1777734006.352286,-12.15,-0.09,-0.54,-0.014,-0.093,9.81,0.0,-0.01,0.0
1777734006.3623304,-12.15,-0.09,-0.54,-0.013,-0.092,9.81,0.0,0.0,0.0
1777734006.3718877,-12.15,-0.09,-0.54,-0.011,-0.089,9.81,-0.01,0.0,0.0
1777734006.3819299,-12.15,-0.09,-0.54,-0.01,-0.087,9.81,0.0,0.0,0.0
1777734006.3918302,-12.15,-0.08,-0.54,-0.011,-0.092,9.81,0.0,-0.01,-0.01
1777734006.402178,-12.15,-0.08,-0.54,-0.01,-0.093,9.81,0.0,-0.01,-0.01
1777734006.411802,-12.15,-0.08,-0.54,-0.01,-0.095,9.81,0.0,0.0,-0.01
1777734006.4218338,-12.15,-0.08,-0.54,-0.011,-0.095,9.81,-0.01,0.0,0.0
1777734006.43218,-12.15,-0.09,-0.54,-0.012,-0.096,9.81,0.0,0.0,0.0
1777734006.4417937,-12.15,-0.08,-0.54,-0.014,-0.102,9.81,-0.01,0.0,0.0
1777734006.451777,-12.15,-0.09,-0.54,-0.011,-0.104,9.81,-0.01,0.0,0.0
1777734006.4617715,-12.15,-0.08,-0.54,-0.014,-0.095,9.81,0.0,0.0,-0.01
1777734006.4718308,-12.15,-0.09,-0.54,-0.011,-0.092,9.81,0.0,0.0,-0.01
1777734006.481799,-12.15,-0.08,-0.54,-0.013,-0.085,9.81,0.0,0.0,-0.01
1777734006.4925623,-12.15,-0.09,-0.54,-0.018,-0.087,9.81,0.0,-0.01,0.0
1777734006.5017643,-12.15,-0.09,-0.54,-0.018,-0.09,9.81,0.0,0.0,-0.01
1777734006.5123477,-12.15,-0.09,-0.54,-0.018,-0.084,9.81,0.0,0.0,-0.01
1777734006.521729,-12.15,-0.09,-0.54,-0.012,-0.084,9.81,0.0,0.0,-0.01
1777734006.5317504,-12.15,-0.08,-0.54,-0.011,-0.084,9.81,0.0,-0.01,-0.01
1777734006.5421803,-12.15,-0.08,-0.54,-0.002,-0.085,9.81,-0.01,-0.01,0.0
1777734006.5520158,-12.15,-0.08,-0.54,-0.005,-0.084,9.81,-0.01,-0.01,0.0
1777734006.5617518,-12.15,-0.08,-0.54,-0.002,-0.087,9.81,-0.01,0.0,0.0
1777734006.5717394,-12.15,-0.08,-0.54,-0.004,-0.087,9.81,-0.01,0.0,-0.01
1777734006.5821283,-12.15,-0.08,-0.54,-0.005,-0.086,9.81,0.0,-0.01,-0.01
1777734006.591766,-12.15,-0.08,-0.54,-0.005,-0.086,9.81,0.0,-0.01,-0.01
1777734006.6017156,-12.15,-0.08,-0.54,-0.01,-0.092,9.81,0.0,0.0,0.0
1777734006.6117141,-12.15,-0.08,-0.54,-0.011,-0.093,9.81,-0.01,0.0,0.0
1777734006.6216688,-12.15,-0.08,-0.54,-0.012,-0.093,9.81,0.0,0.0,0.0
1777734006.631671,-12.15,-0.08,-0.54,-0.011,-0.092,9.81,0.0,-0.01,0.0
1777734006.641653,-12.15,-0.08,-0.54,-0.013,-0.092,9.81,-0.01,0.0,-0.01
1777734006.6517422,-12.15,-0.08,-0.54,-0.016,-0.09,9.81,0.0,-0.01,-0.01
1777734006.6616805,-12.15,-0.07,-0.54,-0.008,-0.095,9.81,0.0,0.0,-0.01
1777734006.6716707,-12.15,-0.07,-0.54,-0.007,-0.095,9.81,-0.01,-0.01,-0.01
1777734006.6816723,-12.15,-0.07,-0.54,-0.012,-0.097,9.81,0.0,-0.01,-0.01
1777734006.6916623,-12.15,-0.07,-0.54,-0.008,-0.093,9.81,-0.01,0.0,-0.01
1777734006.7016683,-12.15,-0.07,-0.54,-0.007,-0.101,9.81,0.0,0.0,0.0
1777734006.7116182,-12.15,-0.07,-0.54,-0.014,-0.099,9.81,0.0,0.0,-0.01
1777734006.721626,-12.15,-0.08,-0.54,-0.018,-0.097,9.81,0.0,0.0,-0.01
1777734006.7315915,-12.15,-0.08,-0.54,-0.02,-0.096,9.81,0.0,0.0,-0.01
1777734006.7416012,-12.15,-0.08,-0.54,-0.018,-0.099,9.81,0.0,0.0,-0.01
1777734006.7515953,-12.15,-0.08,-0.54,-0.02,-0.096,9.81,0.0,0.0,0.0
1777734006.761559,-12.15,-0.08,-0.54,-0.025,-0.093,9.81,0.0,0.0,-0.01
1777734006.771552,-12.15,-0.08,-0.54,-0.024,-0.096,9.81,0.0,-0.01,-0.01
1777734006.7815313,-12.15,-0.08,-0.54,-0.02,-0.092,9.81,0.0,0.0,-0.01
1777734006.7915733,-12.15,-0.08,-0.54,-0.014,-0.096,9.81,0.0,0.0,-0.01
1777734006.8015707,-12.15,-0.08,-0.54,-0.019,-0.098,9.81,0.0,0.0,-0.01
1777734006.8120563,-12.15,-0.08,-0.54,-0.016,-0.096,9.81,0.0,0.0,-0.01
1777734006.8215048,-12.15,-0.08,-0.54,-0.013,-0.093,9.81,0.0,0.0,0.0
1777734006.8315415,-12.15,-0.08,-0.54,-0.01,-0.089,9.81,0.0,0.0,0.0
1777734006.8423545,-12.15,-0.08,-0.54,-0.017,-0.09,9.81,0.0,0.0,-0.01
1777734006.8520045,-12.15,-0.08,-0.54,-0.017,-0.093,9.81,0.0,0.0,-0.01
1777734006.861477,-12.15,-0.08,-0.54,-0.017,-0.095,9.81,0.0,0.0,-0.01
1777734006.8715153,-12.15,-0.08,-0.54,-0.014,-0.095,9.81,-0.01,0.0,0.0
1777734006.8817527,-12.15,-0.08,-0.54,-0.014,-0.097,9.81,0.0,0.0,0.0
1777734006.8918433,-12.15,-0.08,-0.54,-0.013,-0.091,9.81,0.0,0.0,-0.01
1777734006.901812,-12.15,-0.08,-0.54,-0.008,-0.09,9.81,0.0,0.0,0.0
1777734006.911461,-12.15,-0.08,-0.54,-0.006,-0.095,9.81,0.0,0.0,0.0
1777734006.9205804,-12.15,-0.08,-0.54,-0.005,-0.098,9.81,0.0,0.0,0.0
1777734006.931616,-12.15,-0.08,-0.54,-0.011,-0.092,9.81,-0.01,0.0,-0.01
1777734006.9414423,-12.15,-0.08,-0.54,-0.016,-0.091,9.81,0.0,0.0,-0.01
1777734006.951442,-12.15,-0.08,-0.54,-0.016,-0.09,9.81,0.0,-0.01,0.0
1777734006.9605906,-12.15,-0.08,-0.54,-0.018,-0.087,9.81,0.0,0.0,0.0
1777734006.971432,-12.15,-0.08,-0.54,-0.02,-0.089,9.81,0.0,0.0,0.0
1777734006.981398,-12.15,-0.09,-0.54,-0.02,-0.091,9.81,0.0,0.0,-0.01
1777734006.9905655,-12.15,-0.09,-0.54,-0.02,-0.091,9.81,0.0,0.0,-0.01
1777734007.0011528,-12.15,-0.09,-0.54,-0.019,-0.092,9.81,0.0,0.0,0.0
1777734007.0105534,-12.15,-0.09,-0.54,-0.019,-0.096,9.81,0.0,-0.01,-0.01
1777734007.0205636,-12.15,-0.09,-0.54,-0.018,-0.091,9.81,-0.01,-0.01,-0.01
1777734007.0305367,-12.15,-0.09,-0.54,-0.024,-0.091,9.81,0.0,-0.01,-0.01
1777734007.0405335,-12.15,-0.09,-0.54,-0.026,-0.091,9.81,0.0,0.0,0.0
1777734007.0513387,-12.15,-0.09,-0.54,-0.02,-0.091,9.81,0.0,0.0,0.0
1777734007.0605204,-12.15,-0.09,-0.54,-0.017,-0.087,9.81,-0.01,0.0,0.0
1777734007.0705032,-12.15,-0.09,-0.54,-0.019,-0.087,9.81,-0.01,0.0,0.0
1777734007.0805118,-12.15,-0.09,-0.54,-0.02,-0.089,9.81,0.0,0.0,-0.01
1777734007.0904787,-12.15,-0.09,-0.54,-0.014,-0.09,9.81,-0.01,0.0,-0.01
1777734007.1005158,-12.15,-0.09,-0.54,-0.018,-0.096,9.81,-0.01,0.0,-0.01
1777734007.1104717,-12.15,-0.09,-0.54,-0.025,-0.101,9.81,0.0,0.0,-0.01
1777734007.1209404,-12.15,-0.09,-0.54,-0.025,-0.102,9.81,0.0,0.0,-0.01
1777734007.1304717,-12.15,-0.09,-0.54,-0.023,-0.101,9.81,0.0,0.0,0.0
1777734007.1404638,-12.15,-0.09,-0.54,-0.014,-0.099,9.81,0.0,-0.01,-0.01
1777734007.150431,-12.15,-0.09,-0.54,-0.011,-0.097,9.81,0.0,0.0,-0.01
1777734007.1604035,-12.15,-0.09,-0.54,-0.008,-0.092,9.81,0.0,0.0,-0.01
1777734007.1703947,-12.15,-0.09,-0.54,-0.006,-0.091,9.81,0.0,0.0,-0.01
1777734007.1804185,-12.15,-0.09,-0.54,-0.001,-0.096,9.81,0.0,0.0,-0.01
1777734007.1904273,-12.15,-0.09,-0.54,-0.005,-0.102,9.81,0.0,0.0,-0.01
1777734007.2004032,-12.15,-0.09,-0.54,-0.012,-0.099,9.81,0.0,0.0,-0.01
1777734007.2103846,-12.15,-0.09,-0.54,-0.019,-0.097,9.81,-0.01,0.0,0.0
1777734007.2203553,-12.15,-0.09,-0.54,-0.02,-0.093,9.81,0.0,0.0,0.0
1777734007.2303462,-12.15,-0.09,-0.54,-0.018,-0.093,9.81,0.0,-0.01,0.0
1777734007.2405183,-12.15,-0.09,-0.54,-0.018,-0.095,9.81,0.0,-0.01,-0.01
1777734007.2503927,-12.15,-0.09,-0.54,-0.016,-0.095,9.81,0.0,-0.01,0.0
1777734007.260385,-12.15,-0.09,-0.54,-0.014,-0.093,9.81,0.0,0.0,-0.01
1777734007.270351,-12.15,-0.09,-0.54,-0.01,-0.095,9.81,0.0,0.0,-0.01
1777734007.28061,-12.15,-0.09,-0.54,-0.001,-0.091,9.81,0.0,0.0,0.0
1777734007.2903163,-12.15,-0.09,-0.54,-0.001,-0.09,9.81,0.0,-0.01,0.0
1777734007.3002744,-12.15,-0.09,-0.54,0.0,-0.086,9.81,0.0,0.0,-0.01
1777734007.3104548,-12.15,-0.09,-0.54,-0.001,-0.081,9.81,-0.01,0.0,-0.01
1777734007.3203228,-12.15,-0.09,-0.54,-0.005,-0.081,9.81,0.0,0.0,0.0
1777734007.330285,-12.15,-0.09,-0.54,-0.008,-0.086,9.81,0.0,0.0,0.0
1777734007.3402715,-12.15,-0.09,-0.54,-0.01,-0.085,9.81,0.0,0.0,-0.01
1777734007.3502653,-12.15,-0.09,-0.54,-0.017,-0.092,9.81,-0.01,0.0,0.0
1777734007.360298,-12.15,-0.09,-0.54,-0.02,-0.095,9.81,0.0,0.0,0.0
1777734007.3702948,-12.15,-0.09,-0.54,-0.019,-0.09,9.81,0.0,-0.01,0.0
1777734007.380246,-12.15,-0.09,-0.54,-0.016,-0.091,9.81,0.0,0.0,0.0
1777734007.3902283,-12.15,-0.09,-0.54,-0.014,-0.093,9.81,0.0,0.0,-0.01
1777734007.4002411,-12.15,-0.09,-0.54,-0.017,-0.09,9.81,0.0,0.0,-0.01
1777734007.410227,-12.15,-0.09,-0.54,-0.012,-0.091,9.81,0.0,0.0,-0.01
1777734007.4204314,-12.15,-0.08,-0.53,-0.014,-0.092,9.81,0.0,0.0,-0.01
1777734007.4302373,-12.15,-0.08,-0.53,-0.017,-0.087,9.81,0.0,0.0,-0.01
1777734007.44028,-12.15,-0.08,-0.53,-0.018,-0.085,9.81,0.0,0.0,0.0
1777734007.4501948,-12.15,-0.08,-0.53,-0.017,-0.089,9.81,-0.01,0.0,0.0
1777734007.460193,-12.15,-0.08,-0.53,-0.017,-0.086,9.81,0.0,0.0,-0.01
1777734007.4702225,-12.15,-0.08,-0.53,-0.014,-0.086,9.81,0.0,0.0,-0.01
1777734007.4802072,-12.15,-0.08,-0.53,-0.017,-0.089,9.81,0.0,0.0,-0.01
1777734007.4901848,-12.15,-0.08,-0.53,-0.016,-0.089,9.81,0.0,0.0,-0.01
1777734007.500244,-12.15,-0.08,-0.53,-0.016,-0.095,9.81,0.0,-0.01,0.0
1777734007.5101585,-12.15,-0.08,-0.53,-0.017,-0.089,9.81,0.0,0.0,0.0
1777734007.5201387,-12.15,-0.08,-0.53,-0.007,-0.086,9.81,0.0,0.0,-0.01
1777734007.5301075,-12.15,-0.08,-0.53,-0.005,-0.09,9.81,-0.01,0.0,0.0
1777734007.5401587,-12.15,-0.08,-0.53,-0.005,-0.095,9.81,0.0,0.0,-0.01
1777734007.5501518,-12.15,-0.08,-0.53,-0.008,-0.097,9.81,-0.01,0.0,-0.01
1777734007.5601366,-12.15,-0.08,-0.53,-0.008,-0.095,9.81,-0.01,0.0,-0.01
1777734007.5701072,-12.15,-0.08,-0.53,-0.004,-0.092,9.81,-0.01,0.0,0.0
1777734007.5800946,-12.15,-0.08,-0.53,-0.01,-0.091,9.81,0.0,-0.01,0.0
1777734007.59008,-12.15,-0.08,-0.53,-0.01,-0.091,9.81,-0.01,-0.01,0.0
1777734007.6000564,-12.15,-0.08,-0.53,-0.01,-0.091,9.81,0.0,0.0,0.0
1777734007.6100845,-12.15,-0.08,-0.53,-0.016,-0.093,9.81,0.0,0.0,-0.01
1777734007.6200635,-12.15,-0.08,-0.53,-0.013,-0.096,9.81,0.0,0.0,-0.01
1777734007.6300442,-12.15,-0.08,-0.53,-0.012,-0.093,9.81,0.0,0.0,-0.01
1777734007.6400545,-12.15,-0.08,-0.53,-0.014,-0.095,9.81,-0.01,0.0,-0.01
1777734007.6492405,-12.15,-0.09,-0.54,-0.023,-0.098,9.81,0.0,0.0,0.0
1777734007.6592066,-12.15,-0.09,-0.54,-0.018,-0.099,9.81,-0.01,0.0,-0.01
1777734007.6692069,-12.15,-0.09,-0.54,-0.013,-0.099,9.81,0.0,-0.01,-0.01
1777734007.6791985,-12.15,-0.09,-0.54,-0.006,-0.103,9.81,-0.01,0.0,-0.01
1777734007.6900527,-12.15,-0.09,-0.54,-0.004,-0.103,9.81,0.0,0.0,-0.01
1777734007.70002,-12.15,-0.09,-0.54,-0.001,-0.099,9.81,-0.01,0.0,0.0
1777734007.7092009,-12.15,-0.09,-0.54,-0.005,-0.098,9.81,0.0,0.0,0.0
1777734007.7191737,-12.15,-0.09,-0.54,-0.008,-0.093,9.81,-0.01,0.0,0.0
1777734007.7299972,-12.15,-0.09,-0.54,-0.016,-0.092,9.81,0.0,0.0,0.0
1777734007.7399783,-12.15,-0.09,-0.54,-0.018,-0.091,9.81,0.0,0.0,-0.01
1777734007.7491722,-12.15,-0.09,-0.54,-0.022,-0.09,9.81,-0.01,-0.01,-0.01
1777734007.7599552,-12.15,-0.09,-0.54,-0.019,-0.091,9.81,-0.01,0.0,0.0
1777734007.769946,-12.15,-0.09,-0.54,-0.024,-0.096,9.81,-0.01,0.0,-0.01
1777734007.7795446,-12.15,-0.09,-0.54,-0.019,-0.097,9.81,0.0,0.0,-0.01
1777734007.7891374,-12.15,-0.09,-0.54,-0.014,-0.095,9.81,0.0,0.0,-0.01
1777734007.7991152,-12.15,-0.09,-0.54,-0.008,-0.096,9.81,0.0,0.0,-0.01
1777734007.8090968,-12.15,-0.09,-0.54,-0.004,-0.097,9.81,0.0,-0.01,0.0
1777734007.819108,-12.15,-0.08,-0.54,-0.007,-0.092,9.81,0.0,-0.01,0.0
1777734007.8290741,-12.15,-0.08,-0.54,-0.008,-0.091,9.81,0.0,-0.01,0.0
1777734007.8391447,-12.15,-0.08,-0.54,-0.008,-0.091,9.81,0.0,0.0,-0.01
1777734007.849047,-12.15,-0.08,-0.54,-0.006,-0.092,9.81,0.0,0.0,-0.01
1777734007.8590457,-12.15,-0.08,-0.54,-0.01,-0.093,9.81,0.0,0.0,-0.01
1777734007.8690069,-12.15,-0.08,-0.54,-0.012,-0.095,9.81,0.0,-0.01,-0.01
1777734007.8790517,-12.15,-0.08,-0.54,-0.008,-0.095,9.81,0.0,-0.01,-0.01
1777734007.8890424,-12.15,-0.08,-0.54,-0.008,-0.096,9.81,-0.01,0.0,0.0
1777734007.8990564,-12.15,-0.08,-0.54,-0.012,-0.09,9.81,0.0,0.0,0.0
1777734007.909,-12.15,-0.08,-0.54,-0.011,-0.089,9.81,0.0,-0.01,0.0
1777734007.918976,-12.15,-0.08,-0.54,-0.006,-0.087,9.81,0.0,0.0,-0.01
1777734007.928987,-12.15,-0.08,-0.54,0.0,-0.084,9.81,0.0,0.0,-0.01
1777734007.9389968,-12.15,-0.08,-0.54,0.0,-0.086,9.81,0.0,0.0,-0.01
1777734007.948953,-12.15,-0.08,-0.54,-0.005,-0.091,9.81,0.0,0.0,-0.01
1777734007.9589736,-12.15,-0.08,-0.54,-0.01,-0.097,9.81,0.0,0.0,-0.01
1777734007.9689622,-12.15,-0.08,-0.54,-0.011,-0.101,9.81,0.0,0.0,0.0
1777734007.9789631,-12.15,-0.08,-0.54,-0.013,-0.096,9.81,0.0,0.0,0.0
1777734007.9889789,-12.15,-0.08,-0.54,-0.013,-0.091,9.81,0.0,-0.01,0.0
1777734007.9989722,-12.15,-0.08,-0.54,-0.013,-0.089,9.81,0.0,0.0,0.0
1777734008.0089953,-12.15,-0.08,-0.54,-0.013,-0.09,9.81,0.0,-0.01,-0.01
1777734008.0189404,-12.15,-0.08,-0.54,-0.012,-0.089,9.81,0.0,0.0,-0.01
1777734008.0289252,-12.15,-0.08,-0.54,-0.013,-0.095,9.81,0.0,-0.01,-0.01
1777734008.0389342,-12.15,-0.08,-0.54,-0.014,-0.101,9.81,0.0,0.0,-0.01
1777734008.0489159,-12.15,-0.08,-0.54,-0.014,-0.103,9.81,0.0,-0.01,-0.01
1777734008.058886,-12.15,-0.08,-0.54,-0.012,-0.096,9.81,0.0,0.0,0.0
1777734008.0689032,-12.15,-0.08,-0.54,-0.018,-0.098,9.81,0.0,0.0,0.0
1777734008.0788982,-12.15,-0.08,-0.54,-0.017,-0.096,9.81,0.0,0.0,0.0
1777734008.088871,-12.15,-0.08,-0.54,-0.017,-0.097,9.81,0.0,0.0,-0.01
1777734008.099144,-12.15,-0.08,-0.54,-0.016,-0.09,9.81,0.0,0.0,-0.01
1777734008.109289,-12.15,-0.08,-0.54,-0.017,-0.087,9.81,-0.01,0.0,-0.01
1777734008.1188354,-12.15,-0.08,-0.54,-0.014,-0.086,9.81,-0.01,-0.01,-0.01
1777734008.1288702,-12.15,-0.08,-0.54,-0.016,-0.085,9.81,-0.01,-0.01,-0.01
1777734008.1388316,-12.15,-0.08,-0.54,-0.014,-0.086,9.81,-0.01,0.0,0.0
1777734008.1488352,-12.15,-0.08,-0.54,-0.007,-0.096,9.81,0.0,0.0,0.0
1777734008.158825,-12.15,-0.08,-0.54,-0.004,-0.099,9.81,0.0,0.0,0.0
1777734008.168896,-12.16,-0.08,-0.54,-0.008,-0.098,9.81,0.0,0.0,-0.01
1777734008.178809,-12.16,-0.08,-0.54,-0.012,-0.096,9.81,0.0,0.0,0.0
1777734008.1887999,-12.16,-0.08,-0.54,-0.012,-0.098,9.81,0.0,0.0,0.0
1777734008.1988077,-12.16,-0.08,-0.54,-0.008,-0.098,9.81,0.0,0.0,0.0
1777734008.208821,-12.16,-0.08,-0.54,-0.008,-0.097,9.81,0.0,0.0,0.0
1777734008.2187626,-12.16,-0.08,-0.54,-0.012,-0.091,9.81,0.0,0.0,0.0
1777734008.2287962,-12.16,-0.08,-0.54,-0.011,-0.093,9.81,0.0,0.0,-0.01
1777734008.2387812,-12.16,-0.08,-0.54,-0.011,-0.091,9.81,-0.01,-0.01,-0.01
1777734008.2487767,-12.16,-0.08,-0.54,-0.011,-0.095,9.81,0.0,0.0,-0.01
1777734008.2587526,-12.16,-0.08,-0.54,-0.012,-0.097,9.81,0.0,0.0,-0.01
1777734008.2687495,-12.16,-0.08,-0.54,-0.007,-0.102,9.81,-0.01,0.0,-0.01
1777734008.2787147,-12.16,-0.08,-0.54,-0.01,-0.099,9.81,-0.01,0.0,0.0
1777734008.2887657,-12.16,-0.08,-0.54,-0.01,-0.098,9.81,0.0,0.0,0.0
1777734008.2987342,-12.16,-0.08,-0.54,-0.017,-0.099,9.81,0.0,0.0,-0.01
1777734008.3087137,-12.16,-0.08,-0.54,-0.017,-0.099,9.81,0.0,-0.01,0.0
1777734008.318691,-12.16,-0.08,-0.55,-0.022,-0.102,9.81,0.0,0.0,0.0
1777734008.3286927,-12.16,-0.08,-0.55,-0.025,-0.102,9.81,0.0,-0.01,-0.01
1777734008.3387146,-12.16,-0.08,-0.55,-0.025,-0.097,9.81,0.0,0.0,0.0
1777734008.348671,-12.16,-0.08,-0.55,-0.03,-0.092,9.81,0.0,0.0,0.0
1777734008.3586693,-12.16,-0.08,-0.54,-0.03,-0.092,9.81,0.0,-0.01,-0.01
1777734008.3686643,-12.16,-0.08,-0.54,-0.026,-0.097,9.81,0.0,-0.01,-0.01
1777734008.378642,-12.16,-0.08,-0.54,-0.026,-0.098,9.81,0.0,-0.01,-0.01
1777734008.3886416,-12.16,-0.08,-0.55,-0.023,-0.103,9.81,0.0,0.0,-0.01
1777734008.3978505,-12.16,-0.08,-0.55,-0.023,-0.102,9.81,0.0,0.0,-0.01
1777734008.4086583,-12.16,-0.08,-0.55,-0.023,-0.102,9.81,0.0,-0.01,0.0
1777734008.417942,-12.16,-0.08,-0.55,-0.022,-0.105,9.81,0.0,-0.01,-0.01
1777734008.4289281,-12.16,-0.08,-0.55,-0.014,-0.103,9.81,0.0,-0.01,0.0
1777734008.4386268,-12.16,-0.08,-0.55,-0.011,-0.102,9.81,-0.01,0.0,-0.01
1777734008.4485888,-12.16,-0.08,-0.55,-0.011,-0.107,9.81,-0.01,0.0,0.0
1777734008.4590209,-12.16,-0.08,-0.55,-0.013,-0.102,9.81,0.0,-0.01,-0.01
1777734008.4677737,-12.16,-0.08,-0.55,-0.016,-0.102,9.81,-0.01,0.0,0.0
1777734008.4777784,-12.16,-0.08,-0.55,-0.016,-0.097,9.81,0.0,0.0,-0.01
1777734008.4877315,-12.16,-0.08,-0.55,-0.011,-0.097,9.81,0.0,-0.01,0.0
1777734008.497754,-12.16,-0.08,-0.55,-0.01,-0.101,9.81,0.0,0.0,0.0
1777734008.5077446,-12.16,-0.08,-0.55,-0.007,-0.102,9.81,0.0,0.0,0.0
1777734008.517762,-12.16,-0.08,-0.55,-0.011,-0.098,9.81,0.0,0.0,0.0
1777734008.5277328,-12.16,-0.08,-0.55,-0.016,-0.095,9.81,-0.01,0.0,0.0
1777734008.5377035,-12.16,-0.08,-0.55,-0.016,-0.095,9.81,0.0,0.0,-0.01
1777734008.5479035,-12.16,-0.08,-0.55,-0.014,-0.096,9.81,0.0,0.0,-0.01
1777734008.5576994,-12.16,-0.08,-0.55,-0.016,-0.099,9.81,-0.01,-0.01,-0.01
1777734008.5676725,-12.16,-0.08,-0.55,-0.018,-0.107,9.81,0.0,0.0,-0.01
1777734008.5776982,-12.16,-0.08,-0.55,-0.012,-0.105,9.81,0.0,0.0,0.0
1777734008.5876732,-12.16,-0.08,-0.55,-0.011,-0.102,9.81,0.0,-0.01,0.0
1777734008.5976527,-12.16,-0.08,-0.55,-0.011,-0.095,9.81,0.0,0.0,-0.01
1777734008.6076522,-12.16,-0.08,-0.55,-0.012,-0.092,9.81,0.0,0.0,-0.01
1777734008.6176355,-12.16,-0.08,-0.55,-0.008,-0.092,9.81,-0.01,0.0,-0.01
1777734008.6276088,-12.16,-0.08,-0.55,-0.011,-0.092,9.81,0.0,-0.01,-0.01
1777734008.6376188,-12.16,-0.08,-0.55,-0.013,-0.091,9.81,0.0,-0.01,-0.01
1777734008.6476247,-12.16,-0.08,-0.55,-0.008,-0.091,9.81,-0.01,-0.01,0.0
1777734008.657641,-12.16,-0.08,-0.55,-0.01,-0.09,9.81,0.0,0.0,0.0
1777734008.6676328,-12.16,-0.08,-0.55,-0.013,-0.093,9.81,0.0,-0.01,0.0
1777734008.6775737,-12.16,-0.08,-0.55,-0.013,-0.09,9.81,0.0,0.0,0.0
1777734008.6875863,-12.16,-0.08,-0.55,-0.007,-0.083,9.81,0.0,0.0,-0.01
1777734008.697554,-12.16,-0.08,-0.55,-0.002,-0.085,9.81,0.0,-0.01,-0.01
1777734008.7075377,-12.16,-0.07,-0.55,-0.001,-0.091,9.81,-0.01,0.0,-0.01
1777734008.7175486,-12.16,-0.07,-0.55,-0.001,-0.097,9.81,-0.01,0.0,-0.01
1777734008.727577,-12.16,-0.07,-0.55,-0.006,-0.093,9.81,-0.01,0.0,0.0
1777734008.7375681,-12.16,-0.07,-0.55,-0.011,-0.096,9.81,-0.01,-0.01,0.0
1777734008.747551,-12.16,-0.07,-0.55,-0.01,-0.092,9.81,0.0,0.0,0.0
1777734008.7575462,-12.16,-0.07,-0.55,-0.014,-0.087,9.81,-0.01,-0.01,-0.01
1777734008.767525,-12.16,-0.07,-0.55,-0.012,-0.091,9.81,0.0,0.0,-0.01
1777734008.7775264,-12.16,-0.07,-0.55,-0.013,-0.09,9.81,0.0,0.0,-0.01
1777734008.7874954,-12.16,-0.07,-0.55,-0.012,-0.091,9.81,0.0,0.0,-0.01
1777734008.7975657,-12.16,-0.07,-0.55,-0.013,-0.087,9.81,0.0,-0.01,0.0
1777734008.8075287,-12.16,-0.07,-0.55,-0.01,-0.091,9.81,0.0,0.0,0.0
1777734008.817473,-12.16,-0.07,-0.55,-0.01,-0.089,9.81,0.0,0.0,0.0
1777734008.827515,-12.16,-0.07,-0.55,-0.011,-0.089,9.81,0.0,-0.01,-0.01
1777734008.837463,-12.16,-0.07,-0.55,-0.008,-0.09,9.81,0.0,0.0,-0.01
1777734008.8474622,-12.16,-0.07,-0.55,-0.008,-0.087,9.81,-0.01,0.0,-0.01
1777734008.8574739,-12.16,-0.07,-0.55,-0.012,-0.087,9.81,0.0,-0.01,-0.01
1777734008.86746,-12.16,-0.07,-0.55,-0.016,-0.092,9.81,-0.01,0.0,0.0
1777734008.8774517,-12.16,-0.07,-0.55,-0.013,-0.095,9.81,-0.01,-0.01,0.0
1777734008.8877158,-12.16,-0.07,-0.55,-0.011,-0.092,9.81,0.0,0.0,-0.01
1777734008.8974366,-12.16,-0.07,-0.55,-0.013,-0.089,9.81,-0.01,-0.01,-0.01
1777734008.9074686,-12.16,-0.07,-0.55,-0.017,-0.083,9.81,0.0,0.0,0.0
1777734008.9174418,-12.16,-0.07,-0.55,-0.019,-0.08,9.81,0.0,0.0,-0.01
1777734008.927415,-12.16,-0.07,-0.55,-0.018,-0.083,9.81,0.0,0.0,-0.01
1777734008.9374084,-12.16,-0.07,-0.55,-0.019,-0.09,9.81,0.0,0.0,-0.01
1777734008.9474115,-12.16,-0.07,-0.55,-0.023,-0.092,9.81,0.0,0.0,-0.01
1777734008.957406,-12.16,-0.07,-0.55,-0.019,-0.096,9.81,-0.01,-0.01,0.0
1777734008.9673977,-12.16,-0.07,-0.55,-0.012,-0.092,9.81,-0.01,-0.01,0.0
1777734008.9773517,-12.16,-0.07,-0.55,-0.01,-0.09,9.81,0.0,-0.01,0.0
1777734008.9873893,-12.16,-0.07,-0.55,-0.008,-0.09,9.81,0.0,0.0,0.0
1777734008.9973776,-12.16,-0.07,-0.55,-0.013,-0.092,9.81,-0.01,0.0,-0.01
1777734009.007374,-12.16,-0.07,-0.55,-0.011,-0.091,9.81,0.0,0.0,-0.01
1777734009.0173817,-12.16,-0.07,-0.55,-0.013,-0.095,9.81,-0.01,0.0,-0.01
1777734009.0273845,-12.16,-0.07,-0.55,-0.016,-0.093,9.81,0.0,0.0,-0.01
1777734009.0373394,-12.16,-0.07,-0.55,-0.016,-0.089,9.81,0.0,-0.01,0.0
1777734009.0473263,-12.16,-0.07,-0.54,-0.011,-0.087,9.81,0.0,-0.01,0.0
1777734009.0573049,-12.16,-0.07,-0.54,-0.011,-0.084,9.81,0.0,0.0,0.0
1777734009.067297,-12.16,-0.07,-0.54,-0.011,-0.084,9.81,0.0,0.0,-0.01
1777734009.077255,-12.16,-0.07,-0.54,-0.017,-0.083,9.81,0.0,0.0,-0.01
1777734009.0873113,-12.16,-0.08,-0.54,-0.016,-0.083,9.81,0.0,0.0,-0.01
1777734009.0972836,-12.16,-0.08,-0.54,-0.011,-0.09,9.81,0.0,0.0,-0.01
1777734009.1073,-12.16,-0.07,-0.54,-0.012,-0.089,9.81,0.0,-0.01,-0.01
1777734009.1164482,-12.16,-0.08,-0.54,-0.014,-0.091,9.81,0.0,0.0,0.0
1777734009.1272664,-12.16,-0.07,-0.54,-0.012,-0.09,9.81,0.0,0.0,0.0
1777734009.1372705,-12.16,-0.07,-0.54,-0.016,-0.091,9.81,0.0,-0.01,-0.01
1777734009.1472397,-12.16,-0.08,-0.54,-0.013,-0.087,9.81,0.0,0.0,-0.01
1777734009.156447,-12.16,-0.07,-0.54,-0.013,-0.09,9.81,0.0,0.0,-0.01
1777734009.1663878,-12.16,-0.07,-0.54,-0.014,-0.095,9.81,0.0,-0.01,0.0
1777734009.1763804,-12.16,-0.07,-0.54,-0.014,-0.096,9.81,0.0,-0.01,-0.01
1777734009.187237,-12.16,-0.07,-0.54,-0.014,-0.095,9.81,0.0,0.0,0.0
1777734009.1971853,-12.16,-0.07,-0.54,-0.013,-0.095,9.81,0.0,0.0,0.0
1777734009.207215,-12.16,-0.07,-0.54,-0.02,-0.093,9.81,-0.01,-0.01,-0.01
1777734009.2163773,-12.16,-0.07,-0.54,-0.012,-0.101,9.81,0.0,0.0,-0.01
1777734009.226359,-12.16,-0.07,-0.54,-0.016,-0.107,9.81,0.0,0.0,-0.01
1777734009.2363517,-12.16,-0.07,-0.54,-0.018,-0.105,9.81,0.0,0.0,-0.01
1777734009.2463322,-12.16,-0.07,-0.54,-0.02,-0.103,9.81,0.0,0.0,-0.01
1777734009.256326,-12.16,-0.07,-0.54,-0.017,-0.099,9.81,0.0,-0.01,-0.01
1777734009.2663238,-12.16,-0.07,-0.54,-0.018,-0.096,9.81,0.0,-0.01,-0.01
1777734009.2763467,-12.16,-0.07,-0.54,-0.016,-0.097,9.81,-0.01,-0.01,-0.01
1777734009.2863069,-12.16,-0.07,-0.54,-0.012,-0.097,9.81,0.0,-0.01,0.0
1777734009.2963257,-12.16,-0.07,-0.54,-0.013,-0.097,9.81,0.0,0.0,-0.01
1777734009.3063061,-12.16,-0.07,-0.54,-0.012,-0.095,9.81,0.0,0.0,-0.01
1777734009.3162854,-12.16,-0.07,-0.54,-0.01,-0.097,9.81,0.0,0.0,-0.01
1777734009.3262892,-12.16,-0.07,-0.54,-0.01,-0.099,9.81,0.0,0.0,-0.01
1777734009.3363078,-12.16,-0.07,-0.54,-0.01,-0.096,9.81,0.0,-0.01,-0.01
1777734009.346279,-12.16,-0.07,-0.54,-0.01,-0.096,9.81,0.0,0.0,0.0
1777734009.3562737,-12.16,-0.07,-0.54,-0.008,-0.097,9.81,-0.01,0.0,-0.01
1777734009.3662403,-12.16,-0.07,-0.54,-0.011,-0.097,9.81,0.0,-0.01,0.0
1777734009.3762438,-12.16,-0.07,-0.54,-0.013,-0.093,9.81,0.0,-0.01,-0.01
1777734009.3862648,-12.16,-0.07,-0.54,-0.014,-0.098,9.81,0.0,-0.01,-0.01
1777734009.3962612,-12.16,-0.07,-0.54,-0.019,-0.097,9.81,0.0,-0.01,-0.01
1777734009.4061997,-12.16,-0.07,-0.54,-0.017,-0.096,9.81,0.0,0.0,-0.01
1777734009.4161978,-12.16,-0.07,-0.54,-0.014,-0.099,9.81,-0.01,0.0,0.0
1777734009.4261806,-12.16,-0.07,-0.54,-0.013,-0.095,9.81,0.0,0.0,0.0
1777734009.436324,-12.16,-0.07,-0.54,-0.006,-0.09,9.81,-0.01,0.0,0.0
1777734009.4461658,-12.16,-0.07,-0.54,-0.005,-0.09,9.81,0.0,0.0,0.0
1777734009.4561672,-12.16,-0.07,-0.54,-0.01,-0.095,9.81,0.0,0.0,-0.01
1777734009.4661708,-12.16,-0.07,-0.54,-0.011,-0.09,9.81,0.0,0.0,0.0
1777734009.4761863,-12.16,-0.07,-0.54,-0.012,-0.087,9.81,-0.01,0.0,0.0
1777734009.4861465,-12.16,-0.07,-0.54,-0.018,-0.087,9.81,0.0,0.0,-0.01
1777734009.49615,-12.16,-0.07,-0.54,-0.019,-0.087,9.81,0.0,0.0,0.0
1777734009.5061698,-12.16,-0.08,-0.54,-0.019,-0.085,9.81,0.0,0.0,0.0
1777734009.516173,-12.16,-0.08,-0.53,-0.017,-0.086,9.81,0.0,0.0,0.0
1777734009.5261042,-12.16,-0.07,-0.53,-0.019,-0.087,9.81,0.0,0.0,0.0
1777734009.5361135,-12.16,-0.08,-0.53,-0.02,-0.087,9.81,0.0,-0.01,-0.01
1777734009.5461254,-12.16,-0.08,-0.53,-0.02,-0.09,9.81,0.0,0.0,-0.01
1777734009.556133,-12.16,-0.08,-0.53,-0.017,-0.087,9.81,0.0,0.0,-0.01
1777734009.5660882,-12.16,-0.08,-0.53,-0.016,-0.09,9.81,0.0,0.0,-0.01
1777734009.576077,-12.16,-0.08,-0.53,-0.02,-0.096,9.81,0.0,-0.01,-0.01
1777734009.5861197,-12.16,-0.08,-0.54,-0.02,-0.099,9.81,0.0,0.0,0.0
1777734009.5961118,-12.16,-0.08,-0.54,-0.02,-0.098,9.81,-0.01,0.0,-0.01
1777734009.60607,-12.16,-0.08,-0.54,-0.018,-0.099,9.81,0.0,0.0,-0.01
1777734009.6160674,-12.16,-0.08,-0.54,-0.019,-0.096,9.81,0.0,0.0,-0.01
1777734009.626087,-12.16,-0.08,-0.54,-0.019,-0.101,9.81,0.0,0.0,-0.01
1777734009.636035,-12.16,-0.08,-0.54,-0.019,-0.102,9.81,0.0,0.0,-0.01
1777734009.6460714,-12.16,-0.08,-0.54,-0.018,-0.099,9.81,0.0,0.0,-0.01
1777734009.6560497,-12.16,-0.08,-0.54,-0.017,-0.101,9.81,0.0,0.0,0.0
1777734009.6660416,-12.16,-0.08,-0.54,-0.017,-0.099,9.81,0.0,0.0,-0.01
1777734009.6761773,-12.16,-0.08,-0.54,-0.019,-0.104,9.81,-0.01,0.0,-0.01
1777734009.6859944,-12.16,-0.08,-0.54,-0.013,-0.098,9.81,0.0,0.0,0.0
1777734009.6960175,-12.16,-0.08,-0.54,-0.012,-0.103,9.81,0.0,0.0,0.0
1777734009.7060664,-12.16,-0.08,-0.54,-0.022,-0.099,9.81,-0.01,0.0,0.0
1777734009.7159832,-12.16,-0.09,-0.54,-0.02,-0.098,9.81,0.0,0.0,-0.01
1777734009.7260234,-12.17,-0.09,-0.54,-0.019,-0.102,9.809,0.0,0.0,0.0
1777734009.736,-12.17,-0.09,-0.54,-0.016,-0.104,9.809,-0.01,0.0,0.0
1777734009.745979,-12.16,-0.09,-0.55,-0.014,-0.098,9.81,-0.01,0.0,0.0
1777734009.7559638,-12.16,-0.09,-0.54,-0.016,-0.097,9.81,0.0,-0.01,-0.01
1777734009.7663567,-12.16,-0.09,-0.54,-0.011,-0.102,9.81,0.0,0.0,-0.01
1777734009.7759166,-12.16,-0.08,-0.55,-0.007,-0.098,9.81,0.0,0.0,0.0
1777734009.7859783,-12.16,-0.08,-0.55,-0.012,-0.097,9.81,0.0,0.0,-0.01
1777734009.7959542,-12.16,-0.08,-0.55,-0.014,-0.095,9.81,-0.01,-0.01,0.0
1777734009.8059316,-12.16,-0.08,-0.55,-0.013,-0.093,9.81,0.0,-0.01,0.0
1777734009.8159313,-12.17,-0.08,-0.55,-0.012,-0.092,9.809,0.0,-0.01,0.0
1777734009.825887,-12.16,-0.08,-0.55,-0.011,-0.089,9.81,0.0,0.0,0.0
1777734009.8358974,-12.17,-0.08,-0.54,-0.016,-0.09,9.809,-0.01,0.0,-0.01
1777734009.845088,-12.16,-0.09,-0.55,-0.014,-0.091,9.81,0.0,0.0,-0.01
1777734009.8551152,-12.17,-0.09,-0.55,-0.018,-0.087,9.809,-0.01,0.0,-0.01
1777734009.8650498,-12.17,-0.09,-0.54,-0.02,-0.084,9.809,-0.01,0.0,0.0
1777734009.8760273,-12.17,-0.09,-0.54,-0.018,-0.083,9.809,0.0,0.0,0.0
1777734009.8858688,-12.17,-0.09,-0.54,-0.013,-0.084,9.809,0.0,0.0,-0.01
1777734009.8950615,-12.17,-0.09,-0.54,-0.012,-0.084,9.809,0.0,0.0,0.0
1777734009.9049923,-12.17,-0.09,-0.54,-0.01,-0.087,9.809,0.0,0.0,-0.01
1777734009.9150057,-12.17,-0.09,-0.54,-0.014,-0.09,9.809,0.0,-0.01,-0.01
1777734009.9250042,-12.17,-0.09,-0.54,-0.019,-0.089,9.809,0.0,-0.01,-0.01
1777734009.935018,-12.17,-0.09,-0.54,-0.016,-0.091,9.809,0.0,0.0,-0.01
1777734009.945831,-12.17,-0.09,-0.54,-0.013,-0.091,9.809,0.0,0.0,-0.01
1777734009.95502,-12.17,-0.09,-0.54,-0.016,-0.097,9.809,0.0,0.0,0.0
1777734009.9649792,-12.17,-0.09,-0.54,-0.012,-0.095,9.809,0.0,0.0,-0.01
1777734009.9750195,-12.17,-0.09,-0.54,-0.012,-0.092,9.809,0.0,0.0,-0.01
1777734009.9849656,-12.17,-0.09,-0.54,-0.01,-0.092,9.809,0.0,0.0,-0.01
1777734009.9949698,-12.17,-0.08,-0.54,-0.011,-0.098,9.809,0.0,-0.01,-0.01
1777734010.0050745,-12.17,-0.08,-0.54,-0.013,-0.096,9.809,-0.01,-0.01,0.0
1777734010.0149426,-12.17,-0.08,-0.54,-0.016,-0.095,9.809,-0.01,-0.01,-0.01
1777734010.0249264,-12.17,-0.08,-0.54,-0.016,-0.095,9.809,-0.01,-0.01,-0.01
1777734010.0349538,-12.17,-0.08,-0.54,-0.01,-0.092,9.809,-0.01,0.0,-0.01
1777734010.0449052,-12.17,-0.08,-0.54,-0.01,-0.089,9.809,-0.01,-0.01,0.0
1777734010.0549493,-12.17,-0.08,-0.54,-0.008,-0.09,9.809,0.0,0.0,-0.01
1777734010.0648696,-12.17,-0.08,-0.54,-0.012,-0.092,9.809,0.0,-0.01,0.0
1777734010.0751252,-12.17,-0.08,-0.54,-0.014,-0.092,9.809,-0.01,-0.01,0.0
1777734010.0848675,-12.17,-0.08,-0.54,-0.013,-0.091,9.809,0.0,-0.01,0.0
1777734010.0948393,-12.17,-0.08,-0.54,-0.013,-0.096,9.809,0.0,0.0,0.0
1777734010.1048272,-12.17,-0.08,-0.54,-0.013,-0.099,9.809,0.0,0.0,0.0
1777734010.114885,-12.17,-0.08,-0.54,-0.018,-0.099,9.809,0.0,0.0,-0.01
1777734010.124835,-12.17,-0.08,-0.54,-0.016,-0.096,9.809,0.0,0.0,-0.01
1777734010.1348443,-12.17,-0.08,-0.54,-0.014,-0.096,9.809,-0.01,-0.01,-0.01
1777734010.1447966,-12.17,-0.08,-0.54,-0.016,-0.095,9.809,0.0,0.0,0.0
1777734010.154828,-12.17,-0.08,-0.54,-0.017,-0.087,9.809,0.0,0.0,0.0
1777734010.1648328,-12.17,-0.08,-0.54,-0.014,-0.09,9.809,0.0,0.0,-0.01
1777734010.1748,-12.17,-0.08,-0.54,-0.01,-0.097,9.809,0.0,-0.01,0.0
1777734010.184768,-12.17,-0.08,-0.54,-0.007,-0.099,9.809,0.0,-0.01,0.0
1777734010.1947994,-12.17,-0.08,-0.55,-0.011,-0.098,9.809,-0.01,0.0,0.0
1777734010.2047987,-12.17,-0.08,-0.54,-0.014,-0.101,9.809,0.0,0.0,-0.01
1777734010.214762,-12.17,-0.08,-0.54,-0.012,-0.098,9.809,0.0,0.0,-0.01
1777734010.2247415,-12.17,-0.08,-0.54,-0.01,-0.096,9.809,0.0,0.0,0.0
1777734010.2347758,-12.17,-0.08,-0.54,-0.016,-0.089,9.809,0.0,0.0,-0.01
1777734010.244781,-12.17,-0.08,-0.54,-0.022,-0.089,9.809,0.0,0.0,-0.01
1777734010.2547567,-12.17,-0.08,-0.54,-0.023,-0.087,9.809,0.0,-0.01,-0.01
1777734010.2647321,-12.17,-0.08,-0.54,-0.013,-0.089,9.809,0.0,0.0,-0.01
1777734010.2747061,-12.17,-0.08,-0.54,-0.011,-0.096,9.809,0.0,0.0,-0.01
1777734010.2847135,-12.17,-0.08,-0.54,-0.014,-0.096,9.809,-0.01,-0.01,0.0
1777734010.2947094,-12.17,-0.08,-0.54,-0.017,-0.095,9.809,-0.01,0.0,-0.01
1777734010.3047302,-12.17,-0.08,-0.55,-0.013,-0.096,9.809,0.0,0.0,0.0
1777734010.3147082,-12.17,-0.08,-0.54,-0.012,-0.097,9.809,0.0,-0.01,0.0
1777734010.3246927,-12.17,-0.08,-0.55,-0.014,-0.093,9.809,0.0,0.0,-0.01
1777734010.3347018,-12.17,-0.08,-0.54,-0.016,-0.093,9.809,0.0,0.0,-0.01
1777734010.3446949,-12.17,-0.08,-0.55,-0.013,-0.092,9.809,-0.01,-0.01,-0.01
1777734010.3547668,-12.17,-0.08,-0.55,-0.012,-0.092,9.809,-0.01,0.0,-0.01
1777734010.364677,-12.17,-0.08,-0.54,-0.01,-0.089,9.809,0.0,0.0,-0.01
1777734010.37465,-12.17,-0.08,-0.54,-0.006,-0.093,9.809,0.0,0.0,-0.01
1777734010.3847115,-12.17,-0.08,-0.54,-0.007,-0.091,9.809,0.0,0.0,-0.01
1777734010.394649,-12.17,-0.08,-0.54,-0.004,-0.087,9.809,0.0,-0.01,-0.01
1777734010.404681,-12.17,-0.08,-0.54,-0.004,-0.092,9.809,0.0,-0.01,0.0
1777734010.4146597,-12.17,-0.08,-0.54,-0.011,-0.092,9.809,-0.01,0.0,0.0
1777734010.4246256,-12.17,-0.08,-0.54,-0.016,-0.096,9.809,0.0,0.0,0.0
1777734010.4346342,-12.17,-0.08,-0.54,-0.016,-0.099,9.809,0.0,0.0,0.0
1777734010.4446495,-12.17,-0.08,-0.55,-0.014,-0.098,9.809,0.0,0.0,-0.01
1777734010.4546056,-12.17,-0.08,-0.55,-0.013,-0.098,9.809,0.0,0.0,-0.01
1777734010.4646418,-12.17,-0.08,-0.55,-0.014,-0.102,9.809,0.0,0.0,0.0
1777734010.474697,-12.17,-0.08,-0.55,-0.018,-0.099,9.809,0.0,0.0,-0.01
1777734010.4846125,-12.17,-0.08,-0.55,-0.017,-0.098,9.809,0.0,0.0,-0.01
1777734010.4945855,-12.17,-0.08,-0.55,-0.016,-0.097,9.809,0.0,0.0,-0.01
1777734010.5045974,-12.17,-0.08,-0.55,-0.016,-0.098,9.809,-0.01,-0.01,-0.01
1777734010.5145726,-12.17,-0.08,-0.55,-0.02,-0.092,9.809,0.0,0.0,-0.01
1777734010.5245593,-12.17,-0.08,-0.55,-0.019,-0.092,9.809,0.0,0.0,-0.01
1777734010.5345345,-12.17,-0.08,-0.55,-0.014,-0.096,9.809,0.0,0.0,-0.01
1777734010.544532,-12.17,-0.08,-0.55,-0.012,-0.096,9.809,0.0,-0.01,-0.01
1777734010.554553,-12.16,-0.08,-0.55,-0.014,-0.092,9.81,0.0,0.0,0.0
1777734010.5645378,-12.16,-0.08,-0.55,-0.016,-0.093,9.81,0.0,0.0,-0.01
1777734010.5745351,-12.16,-0.08,-0.55,-0.019,-0.092,9.81,0.0,0.0,-0.01
1777734010.584517,-12.16,-0.08,-0.55,-0.016,-0.089,9.81,0.0,-0.01,0.0
1777734010.5936985,-12.17,-0.08,-0.55,-0.014,-0.097,9.809,0.0,0.0,-0.01
1777734010.6045253,-12.17,-0.08,-0.55,-0.019,-0.098,9.809,0.0,0.0,0.0
1777734010.6144812,-12.17,-0.08,-0.54,-0.019,-0.095,9.809,0.0,0.0,0.0
1777734010.6236804,-12.17,-0.08,-0.54,-0.017,-0.093,9.809,0.0,0.0,-0.01
1777734010.6337876,-12.17,-0.08,-0.54,-0.018,-0.085,9.809,0.0,-0.01,-0.01
1777734010.6444752,-12.17,-0.08,-0.54,-0.016,-0.087,9.809,0.0,0.0,0.0
1777734010.6545577,-12.17,-0.08,-0.54,-0.018,-0.086,9.809,0.0,0.0,-0.01
1777734010.6636856,-12.17,-0.08,-0.54,-0.016,-0.091,9.809,0.0,0.0,-0.01
1777734010.6737804,-12.17,-0.08,-0.54,-0.016,-0.091,9.809,0.0,-0.01,-0.01
1777734010.6836379,-12.17,-0.08,-0.54,-0.012,-0.091,9.809,0.0,-0.01,-0.01
1777734010.6936176,-12.17,-0.08,-0.54,-0.016,-0.093,9.809,0.0,0.0,-0.01
1777734010.7036262,-12.16,-0.08,-0.54,-0.01,-0.099,9.81,0.0,0.0,-0.01
1777734010.7136335,-12.16,-0.08,-0.54,-0.006,-0.093,9.81,0.0,0.0,-0.01
1777734010.7238703,-12.17,-0.08,-0.54,-0.006,-0.091,9.809,0.0,0.0,0.0
1777734010.7882125,-12.17,-0.08,-0.54,-0.008,-0.092,9.809,0.0,-0.01,0.0
1777734010.7897017,-12.17,-0.08,-0.54,-0.007,-0.092,9.809,0.0,0.0,0.0
1777734010.7911975,-12.17,-0.08,-0.54,-0.006,-0.091,9.809,0.0,-0.01,0.0
1777734010.7926612,-12.17,-0.08,-0.54,-0.008,-0.095,9.809,0.0,0.0,-0.01
1777734010.7941396,-12.17,-0.08,-0.54,-0.012,-0.096,9.809,0.0,-0.01,-0.01
1777734010.7956345,-12.17,-0.08,-0.54,-0.008,-0.098,9.809,-0.01,0.0,-0.01
1777734010.7970922,-12.17,-0.08,-0.54,-0.006,-0.097,9.809,-0.01,0.0,0.0
1777734010.8036013,-12.17,-0.08,-0.54,-0.007,-0.092,9.809,0.0,0.0,-0.01
1777734010.8138123,-12.17,-0.07,-0.54,-0.008,-0.095,9.809,0.0,-0.01,-0.01
1777734010.8648424,-12.17,-0.07,-0.54,-0.008,-0.092,9.809,0.0,-0.01,-0.01
1777734010.8895817,-12.17,-0.07,-0.54,-0.008,-0.089,9.809,0.0,-0.01,-0.01
1777734010.8920195,-12.17,-0.07,-0.54,-0.011,-0.092,9.809,0.0,-0.01,-0.01
1777734010.8948045,-12.17,-0.07,-0.54,-0.016,-0.096,9.809,0.0,-0.01,-0.01
1777734010.8963213,-12.17,-0.07,-0.54,-0.013,-0.09,9.809,0.0,-0.01,-0.01
1777734010.899719,-12.17,-0.07,-0.54,-0.017,-0.095,9.809,0.0,0.0,-0.01
1777734010.901494,-12.17,-0.07,-0.54,-0.017,-0.101,9.809,0.0,0.0,-0.01
1777734010.9048367,-12.16,-0.07,-0.54,-0.017,-0.101,9.81,-0.01,0.0,-0.01
1777734010.9070165,-12.16,-0.07,-0.54,-0.017,-0.103,9.81,0.0,0.0,-0.01
1777734010.913854,-12.16,-0.08,-0.54,-0.018,-0.101,9.81,0.0,0.0,-0.01
1777734010.923449,-12.16,-0.08,-0.54,-0.019,-0.099,9.81,-0.01,0.0,0.0
1777734010.9337566,-12.16,-0.07,-0.54,-0.016,-0.101,9.81,0.0,-0.01,-0.01
1777734010.9434555,-12.17,-0.07,-0.54,-0.011,-0.099,9.809,0.0,-0.01,-0.01
1777734010.9534,-12.17,-0.07,-0.54,-0.007,-0.099,9.809,0.0,-0.01,0.0
1777734010.9638965,-12.17,-0.07,-0.54,-0.008,-0.102,9.809,0.0,-0.01,0.0
1777734010.9734273,-12.17,-0.07,-0.54,-0.01,-0.101,9.809,0.0,0.0,0.0
1777734010.983434,-12.17,-0.07,-0.54,-0.011,-0.099,9.809,0.0,-0.01,-0.01
1777734010.9935598,-12.17,-0.07,-0.54,-0.008,-0.093,9.809,-0.01,0.0,-0.01
1777734011.0033839,-12.17,-0.07,-0.54,-0.011,-0.091,9.809,0.0,0.0,0.0
1777734011.0137208,-12.17,-0.07,-0.54,-0.013,-0.09,9.809,-0.01,-0.01,0.0
1777734011.023359,-12.17,-0.07,-0.54,-0.013,-0.097,9.809,-0.01,0.0,0.0
1777734011.033402,-12.17,-0.07,-0.55,-0.016,-0.095,9.809,0.0,0.0,-0.01
1777734011.0433471,-12.17,-0.07,-0.55,-0.017,-0.095,9.809,-0.01,0.0,-0.01
1777734011.0533416,-12.17,-0.07,-0.55,-0.014,-0.096,9.809,0.0,-0.01,-0.01
1777734011.0633535,-12.17,-0.07,-0.54,-0.014,-0.096,9.809,0.0,-0.01,-0.01
1777734011.0733263,-12.17,-0.07,-0.54,-0.018,-0.095,9.809,0.0,-0.01,0.0
1777734011.083327,-12.17,-0.07,-0.54,-0.017,-0.095,9.809,-0.01,-0.01,-0.01
1777734011.0933173,-12.17,-0.07,-0.54,-0.016,-0.089,9.809,-0.01,0.0,0.0
1777734011.1033375,-12.17,-0.07,-0.54,-0.012,-0.089,9.809,0.0,0.0,-0.01
1777734011.1133127,-12.17,-0.07,-0.54,-0.016,-0.09,9.809,0.0,0.0,-0.01
1777734011.1233046,-12.17,-0.07,-0.54,-0.016,-0.091,9.809,0.0,0.0,0.0
1777734011.1333,-12.17,-0.07,-0.54,-0.016,-0.086,9.809,0.0,0.0,0.0
1777734011.1433055,-12.17,-0.07,-0.54,-0.016,-0.09,9.809,-0.01,-0.01,-0.01
1777734011.1532998,-12.17,-0.07,-0.54,-0.022,-0.093,9.809,0.0,-0.01,-0.01
1777734011.163283,-12.17,-0.07,-0.54,-0.025,-0.095,9.809,0.0,0.0,-0.01
1777734011.1732576,-12.17,-0.07,-0.54,-0.016,-0.096,9.809,-0.01,0.0,0.0
1777734011.183276,-12.17,-0.07,-0.55,-0.018,-0.096,9.809,0.0,0.0,-0.01
1777734011.1932678,-12.17,-0.07,-0.54,-0.016,-0.089,9.809,0.0,0.0,0.0
1777734011.203272,-12.17,-0.07,-0.54,-0.019,-0.089,9.809,0.0,0.0,0.0
1777734011.21321,-12.17,-0.07,-0.54,-0.02,-0.089,9.809,0.0,0.0,0.0
1777734011.2232618,-12.17,-0.07,-0.54,-0.016,-0.093,9.809,0.0,0.0,0.0
1777734011.2332838,-12.17,-0.07,-0.54,-0.018,-0.095,9.809,-0.01,0.0,-0.01
1777734011.2432106,-12.17,-0.08,-0.54,-0.016,-0.095,9.809,0.0,0.0,0.0
1777734011.2531955,-12.17,-0.08,-0.54,-0.018,-0.091,9.809,-0.01,0.0,-0.01
1777734011.26319,-12.17,-0.08,-0.55,-0.02,-0.091,9.809,-0.01,0.0,-0.01
1777734011.2731676,-12.17,-0.08,-0.55,-0.024,-0.093,9.809,-0.01,0.0,-0.01
1777734011.2831645,-12.17,-0.08,-0.55,-0.025,-0.093,9.809,-0.01,0.0,0.0
1777734011.293188,-12.17,-0.08,-0.55,-0.028,-0.095,9.809,0.0,-0.01,0.0
1777734011.3031898,-12.17,-0.08,-0.55,-0.024,-0.092,9.809,0.0,0.0,-0.01
1777734011.3131847,-12.17,-0.08,-0.55,-0.02,-0.09,9.809,0.0,-0.01,-0.01
1777734011.3231623,-12.17,-0.08,-0.54,-0.017,-0.091,9.809,0.0,-0.01,0.0
1777734011.3331532,-12.17,-0.08,-0.54,-0.014,-0.09,9.809,0.0,-0.01,-0.01
1777734011.3431344,-12.17,-0.08,-0.54,-0.022,-0.092,9.809,0.0,0.0,-0.01
1777734011.3531146,-12.17,-0.08,-0.55,-0.014,-0.092,9.809,0.0,0.0,-0.01
1777734011.3623016,-12.17,-0.08,-0.54,-0.018,-0.086,9.809,0.0,0.0,0.0
1777734011.3731349,-12.17,-0.08,-0.54,-0.014,-0.084,9.809,0.0,0.0,-0.01
1777734011.3831165,-12.17,-0.08,-0.54,-0.017,-0.083,9.809,0.0,0.0,-0.01
1777734011.3923118,-12.17,-0.08,-0.54,-0.018,-0.09,9.809,0.0,0.0,-0.01
1777734011.402319,-12.17,-0.08,-0.54,-0.019,-0.095,9.809,0.0,0.0,0.0
1777734011.412265,-12.17,-0.08,-0.54,-0.02,-0.101,9.809,-0.01,0.0,-0.01
1777734011.4225051,-12.17,-0.08,-0.54,-0.022,-0.102,9.809,0.0,-0.01,0.0
1777734011.432246,-12.17,-0.08,-0.55,-0.025,-0.103,9.809,0.0,-0.01,-0.01
1777734011.4425652,-12.17,-0.08,-0.55,-0.022,-0.099,9.809,0.0,0.0,-0.01
1777734011.4522238,-12.17,-0.08,-0.55,-0.024,-0.099,9.809,0.0,0.0,-0.01
1777734011.4622881,-12.17,-0.08,-0.55,-0.02,-0.097,9.809,0.0,0.0,0.0
1777734011.472213,-12.17,-0.08,-0.55,-0.017,-0.099,9.809,0.0,0.0,0.0
1777734011.4822311,-12.17,-0.08,-0.55,-0.013,-0.098,9.809,0.0,0.0,0.0
1777734011.4922755,-12.17,-0.08,-0.55,-0.012,-0.097,9.809,0.0,0.0,0.0
1777734011.502898,-12.17,-0.08,-0.55,-0.013,-0.098,9.809,0.0,0.0,-0.01
1777734011.5132551,-12.17,-0.08,-0.55,-0.014,-0.096,9.809,-0.01,-0.01,-0.01
1777734011.5226479,-12.17,-0.08,-0.55,-0.014,-0.096,9.809,-0.01,-0.01,0.0
1777734011.532194,-12.17,-0.08,-0.55,-0.012,-0.103,9.809,0.0,0.0,-0.01
1777734011.5421689,-12.17,-0.08,-0.55,-0.014,-0.101,9.809,0.0,0.0,0.0
1777734011.5526648,-12.17,-0.08,-0.55,-0.017,-0.099,9.809,0.0,-0.01,0.0
1777734011.5623405,-12.17,-0.08,-0.55,-0.017,-0.101,9.809,0.0,0.0,0.0
1777734011.5721738,-12.17,-0.08,-0.55,-0.017,-0.097,9.809,0.0,-0.01,0.0
1777734011.5821445,-12.17,-0.08,-0.55,-0.023,-0.098,9.809,0.0,0.0,-0.01
1777734011.5921838,-12.17,-0.08,-0.55,-0.026,-0.099,9.809,0.0,0.0,-0.01
1777734011.6023142,-12.17,-0.08,-0.55,-0.024,-0.097,9.809,0.0,0.0,-0.01
1777734011.612265,-12.17,-0.08,-0.55,-0.02,-0.092,9.809,0.0,0.0,0.0
1777734011.6221194,-12.17,-0.08,-0.55,-0.016,-0.092,9.809,0.0,0.0,-0.01
1777734011.6320937,-12.17,-0.08,-0.55,-0.013,-0.092,9.809,0.0,-0.01,-0.01
1777734011.6420908,-12.17,-0.08,-0.55,-0.008,-0.091,9.809,0.0,0.0,-0.01
1777734011.6520467,-12.17,-0.08,-0.55,-0.01,-0.093,9.809,-0.01,0.0,-0.01
1777734011.6621215,-12.17,-0.08,-0.55,-0.012,-0.093,9.809,-0.01,0.0,-0.01
1777734011.6721036,-12.17,-0.08,-0.55,-0.012,-0.098,9.809,0.0,0.0,-0.01
1777734011.6820917,-12.17,-0.08,-0.55,-0.012,-0.099,9.809,0.0,0.0,-0.01
1777734011.6920948,-12.17,-0.08,-0.55,-0.011,-0.097,9.809,0.0,-0.01,-0.01
1777734011.7020588,-12.17,-0.08,-0.55,-0.014,-0.097,9.809,0.0,0.0,0.0
1777734011.7120707,-12.17,-0.08,-0.55,-0.016,-0.095,9.809,0.0,0.0,0.0
1777734011.7220511,-12.17,-0.08,-0.55,-0.013,-0.087,9.809,0.0,0.0,0.0
1777734011.7320094,-12.17,-0.08,-0.55,-0.013,-0.091,9.809,0.0,0.0,0.0
1777734011.7420118,-12.17,-0.08,-0.55,-0.012,-0.087,9.809,0.0,0.0,-0.01
1777734011.7520645,-12.17,-0.08,-0.55,-0.013,-0.085,9.809,-0.01,0.0,0.0
1777734011.7619972,-12.17,-0.08,-0.55,-0.014,-0.085,9.809,-0.01,-0.01,-0.01
1777734011.772594,-12.17,-0.08,-0.55,-0.011,-0.09,9.809,0.0,0.0,-0.01
1777734011.7820225,-12.17,-0.08,-0.55,-0.011,-0.096,9.809,-0.01,0.0,-0.01
1777734011.791984,-12.17,-0.08,-0.55,-0.007,-0.096,9.809,-0.01,0.0,0.0
1777734011.8019805,-12.17,-0.08,-0.55,-0.01,-0.101,9.809,0.0,0.0,-0.01
1777734011.811973,-12.17,-0.08,-0.55,-0.011,-0.099,9.809,0.0,0.0,0.0
1777734011.8219805,-12.17,-0.08,-0.55,-0.007,-0.092,9.809,-0.01,0.0,0.0
1777734011.8319614,-12.17,-0.08,-0.55,-0.01,-0.086,9.809,0.0,0.0,0.0
1777734011.8419716,-12.17,-0.08,-0.55,-0.011,-0.083,9.809,0.0,0.0,-0.01
1777734011.8519711,-12.17,-0.08,-0.54,-0.012,-0.081,9.809,0.0,0.0,0.0
1777734011.8619473,-12.17,-0.08,-0.54,-0.017,-0.086,9.809,0.0,-0.01,-0.01
1777734011.8719432,-12.17,-0.08,-0.54,-0.018,-0.084,9.809,-0.01,-0.01,-0.01
1777734011.8819447,-12.17,-0.08,-0.54,-0.014,-0.086,9.809,0.0,-0.01,-0.01
1777734011.891992,-12.17,-0.08,-0.54,-0.01,-0.095,9.809,0.0,-0.01,-0.01
1777734011.901935,-12.17,-0.08,-0.55,-0.018,-0.092,9.809,0.0,-0.01,0.0
1777734011.9119263,-12.17,-0.08,-0.55,-0.018,-0.097,9.809,-0.01,-0.01,0.0
1777734011.9218862,-12.17,-0.08,-0.55,-0.016,-0.097,9.809,0.0,0.0,0.0
1777734011.9319158,-12.17,-0.08,-0.55,-0.011,-0.097,9.809,0.0,0.0,0.0
1777734011.9419098,-12.17,-0.08,-0.55,-0.013,-0.096,9.809,0.0,0.0,-0.01
1777734011.9518697,-12.17,-0.08,-0.54,-0.014,-0.093,9.809,0.0,0.0,-0.01
1777734011.9618587,-12.17,-0.08,-0.54,-0.019,-0.089,9.809,0.0,0.0,0.0
1777734011.9718838,-12.17,-0.08,-0.54,-0.022,-0.089,9.809,0.0,0.0,0.0
1777734011.9819365,-12.17,-0.08,-0.54,-0.016,-0.087,9.809,0.0,-0.01,-0.01
1777734011.99185,-12.17,-0.08,-0.54,-0.02,-0.089,9.809,0.0,-0.01,-0.01
1777734012.0018432,-12.17,-0.08,-0.54,-0.024,-0.089,9.809,-0.01,-0.01,0.0
1777734012.0118423,-12.17,-0.08,-0.54,-0.024,-0.089,9.809,-0.01,-0.01,0.0
1777734012.02182,-12.17,-0.08,-0.54,-0.019,-0.095,9.809,-0.01,-0.01,0.0
1777734012.0318003,-12.17,-0.08,-0.54,-0.017,-0.093,9.809,0.0,0.0,-0.01
1777734012.0417807,-12.17,-0.08,-0.54,-0.011,-0.091,9.809,0.0,0.0,-0.01
1777734012.0510232,-12.17,-0.08,-0.54,-0.011,-0.093,9.809,-0.01,0.0,-0.01
1777734012.0609672,-12.17,-0.08,-0.54,-0.014,-0.096,9.809,0.0,0.0,-0.01
1777734012.0717795,-12.17,-0.08,-0.54,-0.012,-0.093,9.809,0.0,0.0,-0.01
1777734012.0810027,-12.17,-0.08,-0.54,-0.011,-0.092,9.809,0.0,0.0,-0.01
1777734012.0918,-12.17,-0.08,-0.54,-0.008,-0.089,9.809,0.0,0.0,0.0
1777734012.101746,-12.17,-0.08,-0.54,-0.014,-0.093,9.809,0.0,0.0,0.0
1777734012.1109245,-12.17,-0.08,-0.54,-0.018,-0.098,9.809,0.0,0.0,0.0
1777734012.1209223,-12.17,-0.08,-0.54,-0.018,-0.093,9.809,-0.01,0.0,-0.01
1777734012.1309109,-12.17,-0.08,-0.54,-0.022,-0.095,9.809,0.0,-0.01,-0.01
1777734012.140893,-12.17,-0.08,-0.54,-0.02,-0.101,9.809,0.0,-0.01,-0.01
1777734012.1517398,-12.17,-0.08,-0.55,-0.017,-0.099,9.809,-0.01,0.0,-0.01
1777734012.1614556,-12.17,-0.08,-0.55,-0.014,-0.097,9.809,-0.01,-0.01,-0.01
1777734012.1708934,-12.17,-0.08,-0.54,-0.006,-0.099,9.809,0.0,0.0,-0.01
1777734012.180887,-12.17,-0.08,-0.55,-0.006,-0.101,9.809,0.0,-0.01,0.0
1777734012.1908998,-12.17,-0.08,-0.55,-0.007,-0.101,9.809,-0.01,0.0,-0.01
1777734012.200954,-12.17,-0.08,-0.55,-0.014,-0.099,9.809,-0.01,0.0,-0.01
1777734012.2108812,-12.17,-0.08,-0.55,-0.01,-0.097,9.809,0.0,0.0,-0.01
1777734012.2208478,-12.17,-0.08,-0.55,-0.008,-0.096,9.809,0.0,0.0,-0.01
1777734012.2308493,-12.17,-0.08,-0.55,-0.014,-0.097,9.809,0.0,-0.01,-0.01
1777734012.2408342,-12.17,-0.08,-0.55,-0.01,-0.097,9.809,0.0,0.0,-0.01
1777734012.2508388,-12.17,-0.08,-0.55,-0.01,-0.095,9.809,0.0,0.0,-0.01
1777734012.260844,-12.17,-0.08,-0.55,-0.011,-0.095,9.809,0.0,0.0,0.0
1777734012.2710333,-12.17,-0.08,-0.55,-0.017,-0.095,9.809,0.0,0.0,0.0
1777734012.2808008,-12.17,-0.08,-0.55,-0.017,-0.096,9.809,-0.01,0.0,0.0
1777734012.2908375,-12.17,-0.08,-0.55,-0.01,-0.093,9.809,-0.01,0.0,0.0
1777734012.3008175,-12.17,-0.08,-0.55,-0.008,-0.095,9.809,-0.01,0.0,-0.01
1777734012.3108473,-12.17,-0.08,-0.55,-0.005,-0.093,9.809,0.0,0.0,-0.01
1777734012.3207839,-12.17,-0.08,-0.55,-0.007,-0.093,9.809,0.0,-0.01,0.0
1777734012.3307843,-12.17,-0.08,-0.55,-0.008,-0.093,9.809,0.0,0.0,0.0
1777734012.3407624,-12.17,-0.08,-0.55,-0.016,-0.093,9.809,-0.01,0.0,0.0
1777734012.3507462,-12.17,-0.08,-0.55,-0.02,-0.095,9.809,0.0,0.0,-0.01
1777734012.3607318,-12.17,-0.08,-0.55,-0.016,-0.096,9.809,0.0,0.0,-0.01
1777734012.370709,-12.17,-0.08,-0.55,-0.013,-0.095,9.809,0.0,0.0,-0.01
1777734012.380706,-12.17,-0.08,-0.55,-0.013,-0.098,9.809,-0.01,0.0,-0.01
1777734012.3907616,-12.17,-0.08,-0.55,-0.013,-0.102,9.809,0.0,0.0,-0.01
1777734012.4007235,-12.17,-0.08,-0.55,-0.011,-0.101,9.809,0.0,0.0,0.0
1777734012.410701,-12.17,-0.08,-0.55,-0.007,-0.097,9.809,0.0,-0.01,0.0
1777734012.4207296,-12.17,-0.08,-0.55,-0.007,-0.093,9.809,0.0,0.0,0.0
1777734012.4307323,-12.17,-0.08,-0.55,-0.01,-0.089,9.809,-0.01,-0.01,0.0
1777734012.4407024,-12.17,-0.08,-0.55,-0.01,-0.08,9.809,0.0,-0.01,0.0
1777734012.450683,-12.17,-0.08,-0.55,-0.006,-0.081,9.809,0.0,0.0,-0.01
1777734012.4606678,-12.17,-0.08,-0.55,-0.008,-0.089,9.809,0.0,0.0,-0.01
1777734012.4707088,-12.17,-0.08,-0.55,-0.007,-0.093,9.809,0.0,0.0,-0.01
1777734012.4806895,-12.17,-0.08,-0.55,-0.007,-0.093,9.809,0.0,-0.01,0.0
1777734012.4906497,-12.17,-0.08,-0.55,-0.006,-0.091,9.809,-0.01,0.0,0.0
1777734012.500678,-12.17,-0.08,-0.55,-0.01,-0.083,9.809,0.0,0.0,-0.01
1777734012.5106716,-12.17,-0.08,-0.55,-0.011,-0.084,9.809,0.0,0.0,0.0
1777734012.5211582,-12.17,-0.08,-0.55,-0.01,-0.09,9.809,0.0,-0.01,-0.01
1777734012.5306737,-12.17,-0.08,-0.55,-0.013,-0.091,9.809,-0.01,-0.01,-0.01
1777734012.5406618,-12.17,-0.08,-0.55,-0.013,-0.093,9.809,0.0,0.0,-0.01
1777734012.5506325,-12.17,-0.08,-0.55,-0.017,-0.092,9.809,0.0,-0.01,0.0
1777734012.5606205,-12.17,-0.08,-0.55,-0.012,-0.097,9.809,0.0,0.0,0.0
1777734012.5705783,-12.17,-0.08,-0.55,-0.02,-0.097,9.809,-0.01,0.0,0.0
1777734012.5806067,-12.17,-0.08,-0.55,-0.022,-0.092,9.809,-0.01,0.0,-0.01
1777734012.590606,-12.17,-0.08,-0.55,-0.017,-0.096,9.809,0.0,0.0,-0.01
1777734012.6006637,-12.17,-0.08,-0.55,-0.019,-0.098,9.809,0.0,0.0,-0.01
1777734012.6105998,-12.17,-0.08,-0.55,-0.019,-0.101,9.809,0.0,-0.01,-0.01
1777734012.6205878,-12.17,-0.08,-0.55,-0.017,-0.093,9.809,0.0,-0.01,-0.01
1777734012.6305876,-12.17,-0.08,-0.55,-0.018,-0.09,9.809,0.0,-0.01,-0.01
1777734012.6406162,-12.17,-0.08,-0.55,-0.018,-0.093,9.809,0.0,0.0,-0.01
1777734012.6505861,-12.17,-0.08,-0.55,-0.019,-0.099,9.809,0.0,0.0,-0.01
1777734012.660521,-12.17,-0.08,-0.55,-0.018,-0.099,9.809,0.0,0.0,-0.01
1777734012.6705024,-12.17,-0.08,-0.55,-0.018,-0.098,9.809,0.0,0.0,-0.01
1777734012.680568,-12.17,-0.08,-0.55,-0.016,-0.091,9.809,0.0,0.0,-0.01
1777734012.6905408,-12.17,-0.08,-0.55,-0.017,-0.09,9.809,0.0,0.0,-0.01
1777734012.7005908,-12.17,-0.08,-0.55,-0.016,-0.092,9.809,0.0,-0.01,-0.01
1777734012.7105024,-12.17,-0.08,-0.55,-0.014,-0.092,9.809,0.0,0.0,0.0
1777734012.7204933,-12.17,-0.08,-0.55,-0.014,-0.09,9.809,0.0,-0.01,-0.01
1777734012.7304747,-12.17,-0.08,-0.55,-0.016,-0.087,9.809,0.0,0.0,-0.01
1777734012.7404678,-12.17,-0.08,-0.55,-0.014,-0.09,9.809,0.0,0.0,-0.01
1777734012.7505426,-12.17,-0.08,-0.55,-0.016,-0.095,9.809,0.0,0.0,-0.01
1777734012.760492,-12.17,-0.08,-0.55,-0.016,-0.096,9.809,0.0,0.0,-0.01
1777734012.7704725,-12.17,-0.08,-0.55,-0.012,-0.098,9.809,0.0,0.0,-0.01
1777734012.7805154,-12.17,-0.08,-0.55,-0.013,-0.101,9.809,-0.01,0.0,0.0
1777734012.790462,-12.17,-0.08,-0.55,-0.011,-0.099,9.809,0.0,0.0,-0.01
1777734012.8004553,-12.17,-0.08,-0.55,-0.02,-0.099,9.809,0.0,0.0,0.0
1777734012.8097174,-12.17,-0.08,-0.55,-0.017,-0.097,9.809,-0.01,-0.01,-0.01
1777734012.8196125,-12.17,-0.08,-0.55,-0.017,-0.098,9.809,0.0,-0.01,-0.01
1777734012.8304443,-12.17,-0.08,-0.55,-0.017,-0.099,9.809,-0.01,0.0,0.0
1777734012.8407092,-12.17,-0.08,-0.55,-0.017,-0.097,9.809,0.0,0.0,-0.01
1777734012.8504183,-12.17,-0.08,-0.55,-0.017,-0.092,9.809,-0.01,-0.01,0.0
1777734012.8604217,-12.17,-0.08,-0.55,-0.018,-0.09,9.809,-0.01,-0.01,0.0
1777734012.8695912,-12.17,-0.08,-0.55,-0.02,-0.086,9.809,0.0,0.0,-0.01
1777734012.879883,-12.17,-0.08,-0.55,-0.017,-0.086,9.809,0.0,0.0,-0.01
1777734012.8895667,-12.17,-0.08,-0.55,-0.012,-0.089,9.809,0.0,0.0,-0.01
1777734012.8996093,-12.17,-0.08,-0.55,-0.014,-0.089,9.809,0.0,0.0,-0.01
1777734012.9097042,-12.17,-0.08,-0.55,-0.011,-0.09,9.809,0.0,0.0,-0.01
1777734012.9195304,-12.17,-0.08,-0.55,-0.006,-0.093,9.809,0.0,0.0,-0.01
1777734012.9302726,-12.17,-0.08,-0.55,-0.01,-0.096,9.809,0.0,0.0,-0.01
1777734012.939523,-12.17,-0.08,-0.55,-0.01,-0.098,9.809,-0.01,0.0,-0.01
1777734012.9496732,-12.17,-0.08,-0.55,-0.011,-0.093,9.809,0.0,0.0,-0.01
1777734012.9595313,-12.17,-0.08,-0.55,-0.016,-0.093,9.809,0.0,0.0,-0.01
1777734012.9695296,-12.17,-0.08,-0.55,-0.017,-0.09,9.809,0.0,0.0,0.0
1777734012.979993,-12.17,-0.08,-0.55,-0.019,-0.09,9.809,0.0,0.0,0.0
1777734012.9895253,-12.17,-0.08,-0.55,-0.024,-0.086,9.809,-0.01,-0.01,0.0
1777734012.999493,-12.17,-0.08,-0.55,-0.02,-0.092,9.809,-0.01,0.0,-0.01
1777734013.0094872,-12.17,-0.08,-0.55,-0.018,-0.097,9.809,0.0,0.0,-0.01
1777734013.0195358,-12.17,-0.08,-0.55,-0.017,-0.098,9.809,0.0,0.0,-0.01
1777734013.0294447,-12.17,-0.08,-0.55,-0.016,-0.095,9.809,0.0,-0.01,0.0
1777734013.0394526,-12.17,-0.08,-0.55,-0.014,-0.095,9.809,-0.01,0.0,0.0
1777734013.049466,-12.17,-0.08,-0.55,-0.014,-0.096,9.809,0.0,0.0,-0.01
1777734013.0594163,-12.17,-0.08,-0.55,-0.013,-0.095,9.809,0.0,0.0,-0.01
1777734013.0694942,-12.17,-0.08,-0.55,-0.014,-0.092,9.809,-0.01,0.0,-0.01
1777734013.0794172,-12.17,-0.08,-0.55,-0.017,-0.096,9.809,-0.01,0.0,-0.01
1777734013.0894113,-12.17,-0.08,-0.55,-0.016,-0.098,9.809,-0.01,0.0,-0.01
1777734013.0994017,-12.17,-0.08,-0.55,-0.016,-0.098,9.809,0.0,0.0,-0.01
1777734013.109527,-12.17,-0.08,-0.55,-0.019,-0.101,9.809,0.0,-0.01,-0.01
1777734013.1193757,-12.17,-0.08,-0.55,-0.016,-0.098,9.809,0.0,0.0,0.0
1777734013.129395,-12.17,-0.08,-0.55,-0.016,-0.095,9.809,0.0,0.0,-0.01
1777734013.1395235,-12.17,-0.08,-0.55,-0.016,-0.092,9.809,0.0,-0.01,-0.01
1777734013.1493945,-12.17,-0.08,-0.55,-0.016,-0.09,9.809,0.0,-0.01,-0.01
1777734013.1593924,-12.17,-0.08,-0.55,-0.012,-0.092,9.809,-0.01,0.0,-0.01
1777734013.169381,-12.17,-0.08,-0.55,-0.013,-0.092,9.809,-0.01,0.0,-0.01
1777734013.1793659,-12.17,-0.08,-0.55,-0.011,-0.099,9.809,0.0,0.0,-0.01
1777734013.1893494,-12.17,-0.08,-0.55,-0.007,-0.101,9.809,0.0,-0.01,-0.01
1777734013.19932,-12.17,-0.08,-0.55,-0.01,-0.105,9.809,0.0,0.0,0.0
1777734013.209317,-12.17,-0.08,-0.55,-0.01,-0.099,9.809,-0.01,0.0,0.0
1777734013.219348,-12.17,-0.08,-0.55,-0.012,-0.097,9.809,0.0,0.0,0.0
1777734013.2293415,-12.17,-0.08,-0.55,-0.01,-0.096,9.809,-0.01,-0.01,-0.01
1777734013.2393367,-12.17,-0.08,-0.55,-0.01,-0.097,9.809,-0.01,0.0,-0.01
1777734013.249302,-12.17,-0.08,-0.55,-0.006,-0.096,9.809,0.0,0.0,-0.01
1777734013.2592924,-12.17,-0.08,-0.55,-0.013,-0.095,9.809,0.0,0.0,-0.01
1777734013.269291,-12.17,-0.08,-0.55,-0.013,-0.093,9.809,-0.01,-0.01,-0.01
1777734013.2792857,-12.17,-0.08,-0.55,-0.013,-0.097,9.809,-0.01,0.0,-0.01
1777734013.2892811,-12.17,-0.08,-0.55,-0.016,-0.095,9.809,0.0,0.0,0.0
1777734013.299313,-12.17,-0.08,-0.55,-0.016,-0.091,9.809,0.0,0.0,-0.01
1777734013.3092551,-12.17,-0.08,-0.55,-0.01,-0.089,9.809,0.0,0.0,-0.01
1777734013.3192823,-12.17,-0.08,-0.55,-0.008,-0.093,9.809,0.0,0.0,0.0
1777734013.329258,-12.17,-0.08,-0.55,-0.012,-0.095,9.809,0.0,0.0,-0.01
1777734013.3392603,-12.17,-0.08,-0.55,-0.018,-0.09,9.809,0.0,0.0,0.0
1777734013.3492067,-12.17,-0.08,-0.55,-0.013,-0.089,9.809,0.0,0.0,0.0
1777734013.3592627,-12.17,-0.08,-0.55,-0.014,-0.091,9.809,0.0,0.0,0.0
1777734013.3692234,-12.17,-0.08,-0.55,-0.011,-0.093,9.809,0.0,-0.01,0.0
1777734013.3792465,-12.17,-0.08,-0.55,-0.01,-0.092,9.809,-0.01,-0.01,0.0
1777734013.3891973,-12.17,-0.08,-0.55,-0.005,-0.092,9.809,0.0,0.0,0.0
1777734013.3992295,-12.17,-0.08,-0.55,-0.005,-0.093,9.809,-0.01,0.0,0.0
1777734013.409229,-12.18,-0.08,-0.55,-0.006,-0.092,9.809,0.0,0.0,-0.01
1777734013.4191902,-12.18,-0.08,-0.55,-0.007,-0.087,9.809,0.0,0.0,-0.01
1777734013.4291496,-12.18,-0.08,-0.55,-0.008,-0.084,9.809,0.0,0.0,0.0
1777734013.439196,-12.17,-0.08,-0.55,-0.007,-0.081,9.809,-0.01,0.0,-0.01
1777734013.4491892,-12.17,-0.08,-0.55,-0.008,-0.083,9.809,0.0,-0.01,-0.01
1777734013.4592147,-12.17,-0.08,-0.55,-0.012,-0.087,9.809,0.0,-0.01,-0.01
1777734013.4691694,-12.17,-0.08,-0.55,-0.013,-0.091,9.809,-0.01,0.0,0.0
1777734013.4791455,-12.17,-0.08,-0.55,-0.02,-0.091,9.809,-0.01,0.0,0.0
1777734013.4891422,-12.17,-0.08,-0.55,-0.019,-0.093,9.809,-0.01,-0.01,0.0
1777734013.4991202,-12.17,-0.08,-0.55,-0.018,-0.091,9.809,0.0,0.0,-0.01
1777734013.5083208,-12.18,-0.08,-0.55,-0.016,-0.087,9.809,0.0,0.0,-0.01
1777734013.5191264,-12.18,-0.08,-0.55,-0.017,-0.085,9.809,0.0,0.0,0.0
1777734013.5292273,-12.18,-0.08,-0.55,-0.013,-0.087,9.809,-0.01,0.0,-0.01
1777734013.539104,-12.18,-0.08,-0.55,-0.008,-0.086,9.809,0.0,0.0,-0.01
1777734013.5482862,-12.18,-0.08,-0.55,-0.011,-0.089,9.809,0.0,0.0,0.0
1777734013.559109,-12.18,-0.08,-0.55,-0.008,-0.092,9.809,0.0,0.0,-0.01
1777734013.5690775,-12.18,-0.08,-0.55,-0.008,-0.092,9.809,0.0,0.0,0.0
1777734013.578728,-12.18,-0.08,-0.55,-0.006,-0.086,9.809,0.0,0.0,-0.01
1777734013.5882945,-12.17,-0.08,-0.55,-0.011,-0.087,9.809,0.0,0.0,-0.01
1777734013.5990772,-12.18,-0.08,-0.55,-0.016,-0.09,9.809,0.0,0.0,-0.01
1777734013.608242,-12.18,-0.08,-0.55,-0.019,-0.091,9.809,0.0,-0.01,0.0
1777734013.618244,-12.17,-0.08,-0.55,-0.017,-0.095,9.809,0.0,0.0,-0.01
1777734013.6282136,-12.17,-0.08,-0.55,-0.01,-0.097,9.809,0.0,0.0,-0.01
1777734013.6382184,-12.17,-0.07,-0.55,-0.007,-0.102,9.809,0.0,0.0,-0.01
1777734013.6487188,-12.17,-0.07,-0.55,-0.002,-0.102,9.809,0.0,0.0,-0.01
1777734013.658187,-12.17,-0.07,-0.55,-0.004,-0.104,9.809,0.0,0.0,-0.01
1777734013.668222,-12.17,-0.07,-0.55,-0.002,-0.103,9.809,0.0,0.0,-0.01
1777734013.678183,-12.17,-0.07,-0.55,-0.001,-0.101,9.809,0.0,0.0,-0.01
1777734013.688207,-12.17,-0.07,-0.55,-0.004,-0.098,9.809,0.0,0.0,-0.01
1777734013.698162,-12.17,-0.07,-0.55,-0.005,-0.102,9.809,0.0,0.0,-0.01
1777734013.7081494,-12.17,-0.07,-0.55,-0.008,-0.102,9.809,-0.01,-0.01,-0.01
1777734013.7181418,-12.17,-0.07,-0.55,-0.016,-0.102,9.809,0.0,0.0,0.0
1777734013.728212,-12.17,-0.07,-0.55,-0.013,-0.096,9.809,0.0,0.0,0.0
1777734013.7381375,-12.17,-0.07,-0.55,-0.012,-0.091,9.809,0.0,-0.01,0.0
1777734013.7481287,-12.17,-0.07,-0.55,-0.014,-0.09,9.809,0.0,0.0,-0.01
1777734013.7581449,-12.17,-0.07,-0.55,-0.011,-0.097,9.809,0.0,0.0,-0.01
1777734013.768137,-12.17,-0.07,-0.55,-0.011,-0.097,9.809,0.0,-0.01,-0.01
1777734013.7780719,-12.17,-0.07,-0.55,-0.01,-0.098,9.809,0.0,0.0,0.0
1777734013.7881324,-12.18,-0.07,-0.55,-0.013,-0.092,9.809,0.0,0.0,0.0
1777734013.7980804,-12.18,-0.07,-0.55,-0.012,-0.089,9.809,0.0,0.0,0.0
1777734013.808078,-12.18,-0.08,-0.55,-0.018,-0.089,9.809,0.0,0.0,-0.01
1777734013.8180795,-12.18,-0.08,-0.55,-0.019,-0.09,9.809,-0.01,0.0,-0.01
1777734013.8280501,-12.17,-0.08,-0.55,-0.016,-0.09,9.809,0.0,0.0,-0.01
1777734013.8381133,-12.17,-0.08,-0.55,-0.014,-0.093,9.809,0.0,0.0,-0.01
1777734013.8481348,-12.17,-0.08,-0.55,-0.014,-0.093,9.809,0.0,-0.01,-0.01
1777734013.858057,-12.17,-0.08,-0.55,-0.018,-0.096,9.809,0.0,0.0,-0.01
1777734013.8680763,-12.18,-0.08,-0.55,-0.019,-0.096,9.809,-0.01,-0.01,0.0
1777734013.8780296,-12.18,-0.08,-0.55,-0.016,-0.091,9.809,-0.01,0.0,0.0
1777734013.888007,-12.18,-0.08,-0.55,-0.011,-0.089,9.809,0.0,0.0,-0.01
1777734013.8980498,-12.18,-0.08,-0.55,-0.002,-0.087,9.809,0.0,0.0,0.0
1777734013.9080315,-12.18,-0.07,-0.55,-0.006,-0.092,9.809,0.0,0.0,-0.01
1777734013.9182014,-12.18,-0.08,-0.55,-0.006,-0.097,9.809,-0.01,0.0,-0.01
1777734013.9279947,-12.18,-0.07,-0.55,-0.005,-0.096,9.809,0.0,0.0,0.0
1777734013.9380355,-12.18,-0.07,-0.55,-0.011,-0.096,9.809,0.0,-0.01,0.0
1777734013.9480147,-12.18,-0.07,-0.55,-0.013,-0.09,9.809,0.0,0.0,-0.01
1777734013.9580324,-12.18,-0.07,-0.55,-0.013,-0.091,9.809,-0.01,0.0,0.0
1777734013.968028,-12.18,-0.07,-0.55,-0.007,-0.09,9.809,0.0,-0.01,-0.01
1777734013.9782724,-12.18,-0.07,-0.55,-0.008,-0.086,9.809,0.0,0.0,-0.01
1777734013.987989,-12.18,-0.07,-0.55,-0.01,-0.085,9.809,0.0,-0.01,-0.01
1777734013.9979596,-12.18,-0.07,-0.55,-0.011,-0.092,9.809,0.0,0.0,-0.01
1777734014.0079575,-12.18,-0.07,-0.55,-0.022,-0.09,9.809,0.0,0.0,-0.01
1777734014.0179534,-12.18,-0.08,-0.55,-0.019,-0.087,9.809,0.0,0.0,0.0
1777734014.027996,-12.18,-0.08,-0.55,-0.018,-0.086,9.809,0.0,0.0,-0.01
1777734014.037944,-12.17,-0.08,-0.55,-0.016,-0.091,9.809,0.0,0.0,-0.01
1777734014.0479412,-12.17,-0.08,-0.55,-0.01,-0.091,9.809,-0.01,0.0,-0.01
1777734014.0579367,-12.17,-0.07,-0.55,-0.012,-0.093,9.809,0.0,0.0,-0.01
1777734014.0679386,-12.17,-0.08,-0.55,-0.008,-0.091,9.809,0.0,0.0,-0.01
1777734014.0779066,-12.17,-0.07,-0.54,-0.006,-0.096,9.809,0.0,0.0,-0.01
1777734014.087887,-12.17,-0.07,-0.54,-0.005,-0.097,9.809,0.0,-0.01,0.0
1777734014.0979145,-12.17,-0.07,-0.55,-0.005,-0.091,9.809,0.0,-0.01,0.0
1777734014.1078627,-12.17,-0.07,-0.54,-0.006,-0.085,9.809,-0.01,-0.01,-0.01
1777734014.1178718,-12.17,-0.07,-0.54,-0.01,-0.086,9.809,-0.01,0.0,-0.01
1777734014.12785,-12.17,-0.07,-0.54,-0.008,-0.084,9.809,0.0,0.0,-0.01
1777734014.138006,-12.17,-0.07,-0.54,-0.01,-0.09,9.809,0.0,0.0,-0.01
1777734014.1479006,-12.17,-0.07,-0.54,-0.01,-0.091,9.809,-0.01,0.0,0.0
1777734014.1578786,-12.17,-0.07,-0.54,-0.008,-0.091,9.809,-0.01,-0.01,0.0
1777734014.1678553,-12.17,-0.07,-0.54,-0.007,-0.092,9.809,0.0,-0.01,0.0
1777734014.1778774,-12.17,-0.07,-0.54,-0.005,-0.097,9.809,0.0,-0.01,0.0
1777734014.187856,-12.17,-0.06,-0.54,-0.011,-0.095,9.809,-0.01,0.0,-0.01
1777734014.197821,-12.17,-0.06,-0.54,-0.012,-0.095,9.809,0.0,0.0,-0.01
1777734014.2078228,-12.17,-0.06,-0.54,-0.011,-0.096,9.809,0.0,-0.01,-0.01
1777734014.217814,-12.17,-0.06,-0.54,-0.013,-0.093,9.809,0.0,-0.01,-0.01
1777734014.2277932,-12.17,-0.06,-0.54,-0.013,-0.091,9.809,0.0,-0.01,0.0
1777734014.2377682,-12.17,-0.06,-0.54,-0.017,-0.09,9.809,0.0,-0.01,0.0
1777734014.2477994,-12.18,-0.06,-0.54,-0.017,-0.089,9.809,0.0,0.0,0.0
1777734014.2577975,-12.17,-0.06,-0.54,-0.01,-0.091,9.809,0.0,-0.01,0.0
1777734014.2677767,-12.17,-0.06,-0.54,-0.004,-0.096,9.809,0.0,-0.01,-0.01
1777734014.27777,-12.17,-0.06,-0.54,-0.006,-0.098,9.809,0.0,-0.01,-0.01
1777734014.2873008,-12.17,-0.06,-0.54,-0.002,-0.095,9.809,0.0,0.0,-0.01
1777734014.2977943,-12.17,-0.06,-0.54,-0.004,-0.097,9.809,0.0,0.0,0.0
1777734014.3077555,-12.17,-0.06,-0.54,-0.011,-0.099,9.809,0.0,0.0,0.0
1777734014.317142,-12.18,-0.06,-0.54,-0.016,-0.099,9.809,0.0,0.0,0.0
1777734014.3269482,-12.17,-0.06,-0.54,-0.014,-0.099,9.809,-0.01,0.0,-0.01
1777734014.3372064,-12.18,-0.06,-0.54,-0.018,-0.096,9.809,-0.01,0.0,-0.01
1777734014.3469076,-12.17,-0.06,-0.54,-0.017,-0.095,9.809,0.0,0.0,0.0
1777734014.3573835,-12.17,-0.06,-0.54,-0.02,-0.095,9.809,0.0,0.0,-0.01
1777734014.367056,-12.17,-0.06,-0.54,-0.02,-0.096,9.809,0.0,-0.01,-0.01
1777734014.377018,-12.17,-0.06,-0.54,-0.02,-0.092,9.809,0.0,-0.01,-0.01
1777734014.3871982,-12.17,-0.06,-0.54,-0.016,-0.091,9.809,0.0,-0.01,0.0
1777734014.3971672,-12.17,-0.06,-0.54,-0.01,-0.095,9.809,0.0,-0.01,-0.01
1777734014.4071417,-12.17,-0.06,-0.54,-0.008,-0.093,9.809,-0.01,0.0,-0.01
1777734014.417026,-12.17,-0.06,-0.54,-0.012,-0.093,9.809,-0.01,0.0,0.0
1777734014.4269607,-12.17,-0.06,-0.54,-0.016,-0.096,9.809,0.0,0.0,0.0
1777734014.4372487,-12.17,-0.06,-0.54,-0.02,-0.096,9.809,0.0,0.0,-0.01
1777734014.446831,-12.17,-0.07,-0.54,-0.023,-0.095,9.809,-0.01,0.0,0.0
1777734014.4568908,-12.17,-0.07,-0.54,-0.022,-0.093,9.809,0.0,-0.01,0.0
1777734014.4672663,-12.17,-0.07,-0.54,-0.025,-0.087,9.809,0.0,0.0,-0.01
1777734014.4769213,-12.17,-0.07,-0.54,-0.026,-0.086,9.809,-0.01,0.0,0.0
1777734014.486882,-12.17,-0.07,-0.54,-0.024,-0.085,9.809,-0.01,-0.01,-0.01
1777734014.4968448,-12.17,-0.07,-0.54,-0.024,-0.09,9.809,0.0,-0.01,-0.01
1777734014.5069077,-12.17,-0.07,-0.54,-0.018,-0.092,9.809,-0.01,-0.01,-0.01
1777734014.5172637,-12.17,-0.07,-0.54,-0.012,-0.095,9.809,-0.01,0.0,-0.01
1777734014.5269978,-12.18,-0.06,-0.54,-0.011,-0.097,9.809,0.0,0.0,0.0
1777734014.5368068,-12.18,-0.07,-0.54,-0.012,-0.099,9.809,0.0,0.0,0.0
1777734014.5468733,-12.18,-0.07,-0.55,-0.017,-0.097,9.809,0.0,0.0,0.0
1777734014.5568056,-12.18,-0.07,-0.54,-0.02,-0.097,9.809,0.0,0.0,0.0
1777734014.5667632,-12.18,-0.07,-0.55,-0.024,-0.101,9.809,0.0,0.0,0.0
1777734014.576741,-12.18,-0.07,-0.55,-0.024,-0.102,9.809,0.0,0.0,-0.01
1777734014.5867348,-12.18,-0.07,-0.55,-0.022,-0.099,9.809,-0.01,0.0,-0.01
1777734014.5978017,-12.18,-0.07,-0.55,-0.012,-0.095,9.809,-0.01,-0.01,-0.01
1777734014.6067433,-12.18,-0.07,-0.55,-0.012,-0.091,9.809,0.0,-0.01,0.0
1777734014.6168451,-12.18,-0.07,-0.55,-0.008,-0.091,9.809,0.0,-0.01,0.0
1777734014.626749,-12.18,-0.07,-0.55,-0.005,-0.091,9.809,0.0,0.0,0.0
1777734014.6423962,-12.18,-0.07,-0.54,-0.01,-0.091,9.809,0.0,-0.01,-0.01
1777734014.652424,-12.18,-0.07,-0.54,-0.014,-0.092,9.809,0.0,-0.01,-0.01
1777734014.6640005,-12.18,-0.07,-0.54,-0.014,-0.093,9.809,-0.01,-0.01,0.0
1777734014.6667025,-12.18,-0.07,-0.54,-0.013,-0.099,9.809,0.0,0.0,0.0
1777734014.6767356,-12.18,-0.07,-0.55,-0.014,-0.102,9.809,0.0,0.0,0.0
1777734014.686665,-12.18,-0.07,-0.55,-0.017,-0.104,9.809,0.0,0.0,0.0
1777734014.697079,-12.18,-0.07,-0.55,-0.018,-0.102,9.809,-0.01,0.0,0.0
1777734014.7066963,-12.18,-0.07,-0.55,-0.018,-0.103,9.809,-0.01,0.0,-0.01
1777734014.7166388,-12.18,-0.07,-0.55,-0.019,-0.101,9.809,0.0,-0.01,-0.01
1777734014.726631,-12.18,-0.07,-0.55,-0.02,-0.101,9.809,0.0,-0.01,-0.01
1777734014.7366576,-12.18,-0.07,-0.55,-0.022,-0.103,9.809,-0.01,-0.01,-0.01
1777734014.7466524,-12.18,-0.07,-0.55,-0.016,-0.102,9.809,0.0,-0.01,0.0
1777734014.756641,-12.18,-0.07,-0.55,-0.014,-0.103,9.809,0.0,-0.01,0.0
1777734014.766616,-12.18,-0.07,-0.55,-0.016,-0.098,9.809,0.0,-0.01,0.0
1777734014.7766287,-12.18,-0.07,-0.55,-0.017,-0.096,9.809,0.0,0.0,-0.01
1777734014.7865944,-12.18,-0.07,-0.55,-0.014,-0.093,9.809,0.0,0.0,0.0
1777734014.796625,-12.18,-0.07,-0.55,-0.011,-0.095,9.809,-0.01,0.0,-0.01
1777734014.8065689,-12.18,-0.07,-0.55,-0.008,-0.093,9.809,0.0,0.0,-0.01
1777734014.816607,-12.18,-0.07,-0.55,-0.014,-0.092,9.809,0.0,0.0,0.0
1777734014.8266504,-12.18,-0.07,-0.55,-0.013,-0.089,9.809,-0.01,0.0,-0.01
1777734014.8365698,-12.18,-0.07,-0.55,-0.016,-0.08,9.809,0.0,0.0,0.0
1777734014.8466074,-12.18,-0.07,-0.55,-0.017,-0.083,9.809,0.0,-0.01,-0.01
1777734014.8566306,-12.18,-0.07,-0.55,-0.012,-0.083,9.809,-0.01,-0.01,-0.01
1777734014.8665729,-12.18,-0.07,-0.55,-0.011,-0.087,9.809,-0.01,0.0,-0.01
1777734014.8765597,-12.18,-0.07,-0.55,-0.012,-0.085,9.809,0.0,0.0,-0.01
1777734014.8866408,-12.18,-0.07,-0.55,-0.012,-0.09,9.809,0.0,-0.01,-0.01
1777734014.896532,-12.18,-0.07,-0.55,-0.01,-0.091,9.809,-0.01,0.0,0.0
1777734014.9065208,-12.18,-0.07,-0.55,-0.007,-0.09,9.809,-0.01,0.0,-0.01
1777734014.9165118,-12.18,-0.07,-0.55,-0.014,-0.085,9.809,0.0,0.0,0.0
1777734014.9266846,-12.18,-0.07,-0.55,-0.022,-0.084,9.809,0.0,0.0,0.0
1777734014.9365015,-12.18,-0.07,-0.55,-0.018,-0.089,9.809,0.0,0.0,-0.01
1777734014.94648,-12.18,-0.07,-0.55,-0.018,-0.09,9.809,0.0,0.0,-0.01
1777734014.9565296,-12.18,-0.07,-0.55,-0.016,-0.09,9.809,0.0,-0.01,0.0
1777734014.9664724,-12.18,-0.07,-0.54,-0.017,-0.091,9.809,0.0,0.0,-0.01
1777734014.9764585,-12.18,-0.07,-0.55,-0.014,-0.092,9.809,0.0,-0.01,-0.01
1777734014.985715,-12.18,-0.07,-0.55,-0.013,-0.092,9.809,0.0,0.0,0.0
1777734014.9965062,-12.18,-0.07,-0.55,-0.008,-0.089,9.809,0.0,0.0,0.0
1777734015.0068536,-12.18,-0.07,-0.54,-0.007,-0.086,9.809,0.0,-0.01,-0.01
1777734015.0164487,-12.18,-0.07,-0.54,-0.013,-0.091,9.809,0.0,0.0,-0.01
1777734015.0267985,-12.18,-0.07,-0.54,-0.016,-0.09,9.809,0.0,-0.01,-0.01
1777734015.0364213,-12.18,-0.07,-0.54,-0.016,-0.092,9.809,0.0,0.0,-0.01
1777734015.046053,-12.18,-0.07,-0.54,-0.017,-0.09,9.809,-0.01,0.0,-0.01
1777734015.0556114,-12.18,-0.07,-0.54,-0.013,-0.086,9.809,0.0,0.0,-0.01
1777734015.0659626,-12.18,-0.07,-0.54,-0.017,-0.089,9.809,0.0,0.0,-0.01
1777734015.0756009,-12.18,-0.07,-0.54,-0.017,-0.091,9.809,-0.01,-0.01,0.0
1777734015.0857825,-12.18,-0.07,-0.54,-0.02,-0.091,9.809,0.0,-0.01,-0.01
1777734015.095577,-12.18,-0.07,-0.54,-0.02,-0.09,9.809,-0.01,0.0,-0.01
1777734015.105739,-12.18,-0.07,-0.54,-0.02,-0.09,9.809,0.0,-0.01,-0.01
1777734015.1157086,-12.18,-0.07,-0.54,-0.018,-0.087,9.809,-0.01,0.0,0.0
1777734015.1256716,-12.18,-0.07,-0.54,-0.018,-0.091,9.809,0.0,0.0,-0.01
1777734015.1358654,-12.18,-0.07,-0.54,-0.014,-0.092,9.809,0.0,0.0,-0.01
1777734015.145716,-12.18,-0.07,-0.54,-0.01,-0.093,9.809,0.0,0.0,0.0
1777734015.1555579,-12.18,-0.07,-0.54,-0.007,-0.092,9.809,0.0,0.0,-0.01
1777734015.1656508,-12.18,-0.07,-0.54,-0.011,-0.095,9.809,0.0,0.0,-0.01
1777734015.175547,-12.18,-0.07,-0.54,-0.018,-0.093,9.809,0.0,0.0,-0.01
1777734015.1855054,-12.18,-0.07,-0.54,-0.022,-0.09,9.809,-0.01,0.0,0.0
1777734015.1955335,-12.18,-0.07,-0.54,-0.026,-0.092,9.809,-0.01,-0.01,-0.01
1777734015.2054741,-12.18,-0.08,-0.54,-0.026,-0.093,9.809,0.0,-0.01,-0.01
1777734015.2155526,-12.18,-0.08,-0.54,-0.023,-0.095,9.809,0.0,0.0,0.0
1777734015.2255237,-12.18,-0.08,-0.54,-0.018,-0.089,9.809,0.0,0.0,-0.01
1777734015.2355387,-12.18,-0.08,-0.54,-0.018,-0.093,9.809,0.0,-0.01,-0.01
1777734015.2455075,-12.18,-0.08,-0.54,-0.014,-0.092,9.809,0.0,0.0,-0.01
1777734015.2554622,-12.18,-0.07,-0.54,-0.018,-0.09,9.809,0.0,0.0,0.0
1777734015.2654898,-12.18,-0.08,-0.54,-0.014,-0.087,9.809,-0.01,0.0,0.0
1777734015.2754774,-12.18,-0.08,-0.54,-0.012,-0.091,9.809,0.0,0.0,-0.01
1777734015.285437,-12.18,-0.08,-0.54,-0.011,-0.089,9.809,0.0,0.0,0.0
1777734015.2954853,-12.18,-0.08,-0.54,-0.013,-0.09,9.809,0.0,0.0,0.0
1777734015.305429,-12.18,-0.08,-0.54,-0.014,-0.096,9.809,-0.01,0.0,0.0
1777734015.315422,-12.18,-0.08,-0.54,-0.013,-0.093,9.809,0.0,0.0,-0.01
1777734015.3254108,-12.18,-0.08,-0.54,-0.014,-0.095,9.809,0.0,-0.01,-0.01
1777734015.3354056,-12.18,-0.08,-0.54,-0.014,-0.101,9.809,0.0,0.0,0.0
1777734015.3457134,-12.19,-0.08,-0.55,-0.014,-0.098,9.809,0.0,-0.01,0.0
1777734015.3557496,-12.19,-0.08,-0.54,-0.008,-0.111,9.809,0.0,0.0,0.0
1777734015.365385,-12.19,-0.07,-0.55,-0.013,-0.103,9.809,0.0,-0.01,0.0
1777734015.3757215,-12.19,-0.07,-0.54,-0.013,-0.101,9.809,0.0,0.0,0.0
1777734015.3854997,-12.19,-0.07,-0.54,-0.011,-0.096,9.809,0.0,-0.01,0.0
1777734015.3954144,-12.19,-0.07,-0.54,-0.01,-0.096,9.809,0.0,0.0,-0.01
1777734015.4056275,-12.19,-0.07,-0.54,-0.014,-0.095,9.809,0.0,0.0,-0.01
1777734015.4156377,-12.18,-0.08,-0.54,-0.014,-0.096,9.809,-0.01,0.0,-0.01
1777734015.425295,-12.19,-0.08,-0.54,-0.018,-0.095,9.809,0.0,0.0,-0.01
1777734015.4353094,-12.19,-0.08,-0.55,-0.016,-0.089,9.809,-0.01,-0.01,0.0
1777734015.445641,-12.19,-0.08,-0.55,-0.014,-0.087,9.809,-0.01,0.0,0.0
1777734015.4553235,-12.19,-0.08,-0.55,-0.014,-0.087,9.809,-0.01,-0.01,0.0
1777734015.4656508,-12.19,-0.08,-0.55,-0.013,-0.091,9.809,-0.01,0.0,-0.01
1777734015.475441,-12.19,-0.07,-0.55,-0.011,-0.096,9.809,0.0,0.0,-0.01
1777734015.4853003,-12.19,-0.08,-0.55,-0.013,-0.097,9.809,0.0,-0.01,-0.01
1777734015.4952898,-12.19,-0.08,-0.55,-0.016,-0.11,9.809,0.0,0.0,-0.01
1777734015.5052757,-12.19,-0.08,-0.55,-0.018,-0.114,9.809,0.0,0.0,-0.01
1777734015.515251,-12.19,-0.08,-0.55,-0.013,-0.111,9.809,0.0,0.0,0.0
1777734015.5257654,-12.19,-0.08,-0.55,-0.011,-0.102,9.809,0.0,0.0,0.0
1777734015.535687,-12.19,-0.08,-0.55,-0.01,-0.095,9.809,0.0,-0.01,0.0
1777734015.5453992,-12.19,-0.08,-0.55,-0.005,-0.091,9.809,0.0,0.0,-0.01
1777734015.5560987,-12.19,-0.07,-0.54,-0.005,-0.091,9.809,0.0,0.0,-0.01
1777734015.5655735,-12.19,-0.07,-0.54,-0.011,-0.086,9.809,0.0,-0.01,-0.01
1777734015.5755646,-12.19,-0.07,-0.54,-0.011,-0.091,9.809,0.0,-0.01,0.0
1777734015.5852153,-12.19,-0.07,-0.54,-0.01,-0.091,9.809,0.0,-0.01,0.0
1777734015.5952015,-12.19,-0.07,-0.54,-0.01,-0.096,9.809,-0.01,0.0,0.0
1777734015.6052003,-12.19,-0.07,-0.55,-0.01,-0.097,9.809,-0.01,0.0,0.0
1777734015.6156347,-12.19,-0.07,-0.55,-0.011,-0.099,9.809,-0.01,0.0,-0.01
1777734015.6252372,-12.19,-0.07,-0.55,-0.012,-0.099,9.809,0.0,0.0,-0.01
1777734015.635284,-12.19,-0.07,-0.55,-0.017,-0.102,9.809,0.0,0.0,-0.01
1777734015.6452057,-12.19,-0.07,-0.55,-0.019,-0.105,9.809,0.0,-0.01,-0.01
1777734015.6553347,-12.19,-0.07,-0.55,-0.02,-0.105,9.809,0.0,0.0,0.0
1777734015.665971,-12.19,-0.08,-0.55,-0.019,-0.098,9.809,0.0,0.0,0.0
1777734015.6755085,-12.19,-0.08,-0.55,-0.022,-0.095,9.809,-0.01,0.0,0.0
1777734015.685457,-12.19,-0.08,-0.55,-0.02,-0.089,9.809,0.0,0.0,0.0
1777734015.6952388,-12.19,-0.08,-0.55,-0.019,-0.085,9.809,0.0,-0.01,-0.01
1777734015.7052886,-12.19,-0.08,-0.54,-0.02,-0.086,9.809,0.0,0.0,-0.01
1777734015.7142413,-12.19,-0.08,-0.55,-0.019,-0.09,9.809,0.0,0.0,0.0
1777734015.7242248,-12.19,-0.08,-0.55,-0.02,-0.095,9.809,-0.01,0.0,-0.01
1777734015.735149,-12.19,-0.08,-0.55,-0.019,-0.098,9.809,0.0,-0.01,0.0
1777734015.7456088,-12.19,-0.08,-0.55,-0.022,-0.102,9.809,0.0,0.0,0.0
1777734015.7542753,-12.19,-0.08,-0.55,-0.018,-0.104,9.809,0.0,0.0,0.0
1777734015.765221,-12.19,-0.08,-0.55,-0.02,-0.104,9.809,0.0,0.0,0.0
1777734015.7755122,-12.19,-0.08,-0.55,-0.02,-0.102,9.809,0.0,-0.01,-0.01
1777734015.7842562,-12.19,-0.08,-0.55,-0.017,-0.103,9.809,0.0,0.0,0.0
1777734015.794232,-12.19,-0.08,-0.55,-0.019,-0.103,9.809,0.0,0.0,-0.01
1777734015.8052382,-12.19,-0.08,-0.55,-0.025,-0.098,9.809,0.0,0.0,-0.01
1777734015.814292,-12.19,-0.08,-0.55,-0.026,-0.091,9.809,-0.01,0.0,0.0
1777734015.8242068,-12.19,-0.08,-0.55,-0.026,-0.089,9.809,0.0,0.0,0.0
1777734015.8367074,-12.19,-0.08,-0.55,-0.026,-0.081,9.809,-0.01,0.0,0.0
1777734015.8447518,-12.19,-0.08,-0.55,-0.026,-0.086,9.809,-0.01,0.0,-0.01
1777734015.8545923,-12.19,-0.08,-0.55,-0.026,-0.092,9.809,-0.01,-0.01,-0.01
1777734015.8645284,-12.19,-0.09,-0.55,-0.026,-0.097,9.809,0.0,-0.01,-0.01
1777734015.8742075,-12.19,-0.09,-0.55,-0.023,-0.099,9.809,-0.01,0.0,-0.01
1777734015.8842766,-12.19,-0.09,-0.55,-0.022,-0.099,9.809,-0.01,0.0,0.0
1777734015.894305,-12.19,-0.09,-0.55,-0.018,-0.101,9.809,0.0,0.0,0.0
1777734015.9049892,-12.19,-0.09,-0.55,-0.017,-0.099,9.809,-0.01,0.0,0.0
1777734015.9141908,-12.19,-0.08,-0.55,-0.016,-0.096,9.809,-0.01,0.0,-0.01
1777734015.9246175,-12.19,-0.08,-0.55,-0.01,-0.089,9.809,0.0,-0.01,-0.01
1777734015.9342036,-12.19,-0.08,-0.55,-0.014,-0.09,9.809,-0.01,-0.01,0.0
1777734015.944292,-12.19,-0.08,-0.55,-0.013,-0.092,9.809,0.0,0.0,-0.01
1777734015.9541662,-12.19,-0.08,-0.55,-0.013,-0.09,9.809,-0.01,-0.01,-0.01
1777734015.964475,-12.19,-0.08,-0.55,-0.017,-0.086,9.809,0.0,0.0,-0.01
1777734015.974141,-12.19,-0.09,-0.55,-0.011,-0.085,9.809,0.0,0.0,0.0
1777734015.9848504,-12.19,-0.09,-0.55,-0.01,-0.087,9.809,0.0,0.0,0.0
1777734015.9941602,-12.19,-0.08,-0.55,-0.007,-0.09,9.809,-0.01,0.0,-0.01
1777734016.0040936,-12.19,-0.08,-0.55,-0.006,-0.092,9.809,0.0,0.0,-0.01
1777734016.014099,-12.19,-0.08,-0.55,-0.001,-0.09,9.809,0.0,0.0,-0.01
1777734016.0250878,-12.19,-0.08,-0.55,-0.004,-0.093,9.809,0.0,0.0,-0.01
1777734016.0344596,-12.19,-0.08,-0.55,-0.01,-0.092,9.809,0.0,-0.01,0.0
1777734016.0441372,-12.19,-0.08,-0.55,-0.008,-0.09,9.809,0.0,0.0,0.0
1777734016.054124,-12.19,-0.08,-0.55,-0.01,-0.086,9.809,-0.01,-0.01,0.0
1777734016.0640888,-12.19,-0.08,-0.55,-0.023,-0.069,9.809,-0.01,0.0,0.0
1777734016.074065,-12.19,-0.08,-0.55,-0.025,0.006,9.809,0.0,-0.01,-0.01
1777734016.0840533,-12.17,-0.09,-0.52,-0.226,0.093,9.809,-0.01,-0.01,-0.01
1777734016.0940876,-12.15,-0.16,-0.48,-0.344,0.225,9.81,-0.01,-0.01,-0.02
1777734016.104031,-12.11,-0.23,-0.45,-0.49,0.042,9.434,0.01,0.02,-0.02
1777734016.114038,-12.07,-0.31,-0.46,-0.492,-0.159,9.369,0.02,0.02,-0.04
1777734016.124042,-12.04,0.11,-0.15,-0.234,1.403,9.485,0.0,0.02,-0.02
1777734016.1340647,-11.95,0.06,0.01,0.641,-0.545,9.573,0.16,-0.17,-0.03
1777734016.1440213,-11.95,0.09,-0.06,0.084,-0.134,9.513,0.06,-0.02,-0.01
1777734016.1540134,-11.82,0.33,-0.37,-0.74,-0.751,9.559,-0.05,-0.04,-0.03
1777734016.1640325,-11.74,0.15,-0.67,-0.873,-0.274,8.918,-0.15,-0.12,-0.07
1777734016.1740475,-11.69,0.12,-0.65,-0.45,0.16,7.403,-0.12,0.02,-0.04
1777734016.1840162,-11.67,0.28,-0.51,-0.013,0.389,7.878,-0.02,0.01,-0.02
1777734016.1940186,-11.7,0.41,-0.36,0.208,-0.212,8.39,0.07,-0.05,-0.01
1777734016.2040203,-11.76,0.43,-0.28,-0.014,-0.569,8.767,0.08,-0.05,0.02
1777734016.2140431,-11.82,0.48,-0.32,-0.144,-0.546,9.044,0.05,-0.02,0.03
1777734016.2239845,-11.85,0.42,-0.33,0.122,-0.504,9.209,0.02,-0.03,0.02
1777734016.2339737,-11.85,0.49,-0.35,0.08,-0.302,9.168,-0.02,0.02,0.02
1777734016.2439897,-11.83,0.5,-0.4,-0.014,0.047,9.029,-0.02,-0.02,-0.01
1777734016.253988,-11.79,0.43,-0.37,0.032,0.374,9.074,-0.05,0.01,-0.02
1777734016.2643166,-11.76,0.52,-0.29,0.208,0.459,9.209,-0.02,0.02,-0.02
1777734016.2739964,-11.73,0.41,-0.2,0.17,-0.145,9.367,0.03,-0.03,-0.03
1777734016.2839375,-11.73,0.39,-0.26,-0.018,0.026,9.484,0.03,0.03,-0.02
1777734016.2939386,-11.72,0.33,-0.3,-0.036,-0.037,9.57,-0.02,0.02,-0.01
1777734016.303945,-11.71,0.3,-0.31,-0.034,0.054,9.596,-0.02,0.02,-0.01
1777734016.3139954,-11.69,0.26,-0.34,-0.263,-0.037,9.628,-0.02,0.01,-0.02
1777734016.3243768,-11.71,0.18,-0.35,-0.478,-0.043,9.676,-0.02,0.0,-0.01
1777734016.336855,-11.74,0.09,-0.33,-0.497,-0.234,9.713,0.0,0.01,0.01
1777734016.3439658,-11.77,0.09,-0.4,-0.241,-0.353,9.737,0.02,0.03,0.02
1777734016.354009,-11.8,0.12,-0.51,-0.411,-0.31,9.757,-0.04,-0.01,0.02
1777734016.364006,-11.84,0.08,-0.54,-0.503,-0.083,9.77,-0.05,-0.03,0.02
1777734016.373934,-11.86,0.08,-0.49,-0.278,-0.017,9.685,-0.02,-0.01,0.02
1777734016.3839347,-11.86,0.14,-0.46,-0.344,-0.11,9.719,0.02,-0.02,0.01
1777734016.393879,-11.85,0.13,-0.48,-0.32,-0.235,9.743,0.02,-0.03,-0.01
1777734016.403892,-11.83,0.13,-0.51,-0.115,-0.21,9.76,-0.01,-0.01,-0.01
1777734016.4138892,-11.81,0.18,-0.5,-0.085,-0.222,9.774,-0.01,-0.01,-0.02
1777734016.4230173,-11.8,0.19,-0.5,-0.085,-0.251,9.784,0.0,-0.02,-0.02
1777734016.4339268,-11.79,0.18,-0.5,0.026,-0.259,9.79,0.01,-0.02,-0.01
1777734016.443828,-11.78,0.2,-0.5,0.128,-0.224,9.794,0.0,0.01,-0.01
1777734016.4538271,-11.76,0.22,-0.49,0.047,-0.166,9.798,0.0,-0.01,-0.01
1777734016.463086,-11.75,0.18,-0.47,-0.038,-0.139,9.803,0.0,-0.01,-0.02
1777734016.4730597,-11.74,0.15,-0.46,-0.013,-0.128,9.804,0.01,0.01,-0.02
1777734016.483818,-11.75,0.13,-0.44,-0.006,-0.108,9.806,0.01,0.02,-0.01
1777734016.4930296,-11.76,0.11,-0.43,-0.051,-0.104,9.805,0.01,0.01,0.0
1777734016.5030239,-11.76,0.1,-0.42,-0.145,-0.116,9.806,0.0,0.0,0.0
1777734016.5138032,-11.76,0.07,-0.45,-0.225,-0.086,9.808,-0.01,0.0,0.0
1777734016.5238225,-11.76,0.04,-0.46,-0.24,-0.008,9.808,-0.02,0.0,-0.01
1777734016.5338125,-11.76,0.03,-0.45,-0.23,0.028,9.808,-0.02,0.0,0.0
1777734016.5429962,-11.76,0.03,-0.43,-0.265,-0.03,9.808,0.0,-0.01,0.0
1777734016.5529096,-11.76,0.02,-0.44,-0.272,-0.089,9.809,0.0,-0.01,0.0
1777734016.5629299,-11.77,0.01,-0.47,-0.248,-0.243,9.809,-0.01,-0.01,-0.01
1777734016.5737736,-11.87,0.04,-0.57,-0.02,-0.631,9.81,-0.01,-0.01,0.01
1777734016.5829124,-12.1,0.07,-0.6,-0.054,-0.392,9.809,-0.02,-0.02,0.08
1777734016.5928762,-12.28,0.09,-0.6,0.001,-0.028,9.81,-0.01,-0.01,0.13
1777734016.602888,-12.36,0.09,-0.59,-0.001,0.247,9.81,-0.02,-0.02,0.08
1777734016.6129115,-12.33,0.1,-0.55,0.09,0.393,9.81,-0.02,0.0,0.02
1777734016.623199,-12.22,0.1,-0.5,0.049,0.641,9.81,-0.01,-0.01,-0.03
1777734016.6329916,-12.03,0.07,-0.46,0.059,0.447,9.81,0.0,0.0,-0.08
1777734016.6428385,-11.8,0.08,-0.44,0.107,0.23,9.809,0.0,0.01,-0.11
1777734016.6530497,-11.57,0.05,-0.44,-0.17,-0.107,9.809,0.01,-0.01,-0.13
1777734016.6628356,-11.39,-0.03,-0.49,-0.225,-0.587,9.81,0.02,0.0,-0.12
1777734016.6728313,-11.32,-0.06,-0.57,-0.11,-0.907,9.81,0.01,0.02,-0.09
1777734016.6828406,-11.34,-0.04,-0.59,-0.128,-0.975,9.81,0.01,0.01,-0.03
1777734016.6931021,-11.44,-0.05,-0.61,-0.205,-0.951,9.809,0.02,-0.02,0.02
1777734016.7028205,-11.58,-0.05,-0.61,-0.211,-0.715,9.809,0.02,-0.01,0.06
1777734016.712837,-11.72,-0.05,-0.58,-0.217,-0.448,9.809,0.01,-0.01,0.08
1777734016.722844,-11.85,-0.04,-0.54,-0.166,-0.133,9.809,0.01,-0.02,0.08
1777734016.7328393,-11.93,-0.02,-0.48,-0.152,0.093,9.809,0.0,-0.02,0.06
1777734016.7428164,-11.99,-0.02,-0.45,-0.192,0.267,9.809,0.0,-0.02,0.04
1777734016.7528481,-12.0,-0.02,-0.41,-0.137,0.4,9.809,0.0,-0.01,0.02
1777734016.7627811,-11.97,-0.02,-0.37,-0.071,0.486,9.809,-0.01,0.0,0.0
1777734016.7728112,-11.9,-0.02,-0.36,-0.071,0.462,9.809,-0.01,-0.01,-0.03
1777734016.7829034,-11.81,-0.02,-0.36,-0.089,0.433,9.81,-0.02,-0.01,-0.05
1777734016.7927856,-11.71,-0.04,-0.36,-0.079,0.281,9.809,-0.02,0.0,-0.05
1777734016.8027864,-11.62,-0.05,-0.4,-0.072,0.091,9.809,-0.02,0.0,-0.05
1777734016.8127787,-11.57,-0.06,-0.46,-0.063,-0.156,9.809,-0.02,0.0,-0.05
1777734016.8227694,-11.57,-0.07,-0.53,-0.046,-0.347,9.809,-0.02,0.0,-0.02
1777734016.8327715,-11.61,-0.07,-0.59,-0.056,-0.473,9.81,-0.02,0.0,0.0
1777734016.8427668,-11.68,-0.07,-0.63,-0.073,-0.519,9.81,-0.02,-0.01,0.02
1777734016.8527036,-11.76,-0.08,-0.66,-0.092,-0.489,9.81,-0.02,-0.01,0.04
1777734016.8627257,-11.84,-0.08,-0.68,-0.114,-0.416,9.809,-0.01,-0.01,0.05
1777734016.8727329,-11.91,-0.1,-0.69,-0.107,-0.285,9.809,-0.01,0.0,0.04
1777734016.8827121,-11.93,-0.11,-0.68,-0.102,-0.181,9.81,-0.01,0.0,0.02
1777734016.8926961,-11.92,-0.11,-0.65,-0.131,-0.059,9.809,0.0,0.0,0.01
1777734016.9027002,-11.89,-0.12,-0.61,-0.146,-0.026,9.81,0.01,0.0,-0.02
1777734016.912705,-11.83,-0.13,-0.58,-0.15,-0.002,9.81,0.01,0.0,-0.03
1777734016.9227164,-11.76,-0.13,-0.56,-0.146,-0.017,9.81,0.01,0.0,-0.04
