timestamp,yaw,pitch,roll,accel_x,accel_y,accel_z,gyro_x,gyro_y,gyro_z
1777734841.6594517,-5.33,-0.12,-1.3,-0.025,-0.22,9.811,-0.01,0.0,0.0
1777734841.6694932,-5.33,-0.12,-1.3,-0.023,-0.231,9.811,0.0,-0.01,0.0
1777734841.6794443,-5.33,-0.12,-1.3,-0.019,-0.225,9.811,-0.01,0.0,0.0
1777734841.6894302,-5.33,-0.12,-1.3,-0.023,-0.229,9.811,0.0,0.0,0.0
1777734841.6994536,-5.33,-0.12,-1.3,-0.024,-0.23,9.811,0.0,0.0,0.0
1777734841.7094321,-5.33,-0.12,-1.3,-0.026,-0.225,9.811,0.0,0.0,-0.01
1777734841.7194262,-5.33,-0.12,-1.3,-0.03,-0.216,9.811,0.0,-0.01,0.0
1777734841.7294512,-5.33,-0.13,-1.3,-0.085,-0.22,9.811,0.0,-0.01,0.0
1777734841.7394538,-5.33,-0.14,-1.3,-0.128,-0.228,9.811,0.0,0.0,-0.01
1777734841.7494318,-5.33,-0.14,-1.31,-0.171,-0.231,9.811,-0.01,0.0,0.0
1777734841.7594337,-5.35,-0.15,-1.31,-0.21,-0.216,9.811,-0.01,-0.01,0.0
1777734841.7694397,-5.35,-0.15,-1.31,-0.181,-0.213,9.811,-0.01,-0.01,0.0
1777734841.7794466,-5.34,-0.14,-1.32,-0.137,-0.207,9.811,-0.01,-0.01,0.0
1777734841.7894437,-5.33,-0.16,-1.33,-0.224,-0.365,9.811,-0.01,-0.01,-0.01
1777734841.7994678,-5.33,-0.15,-1.39,-0.115,-0.366,9.811,-0.01,0.0,-0.02
1777734841.8094606,-5.34,-0.14,-1.39,-0.091,-0.329,9.812,-0.02,-0.01,0.0
1777734841.8194652,-5.36,-0.11,-1.39,-0.059,-0.263,9.812,0.0,-0.02,0.01
1777734841.8294647,-5.37,-0.08,-1.36,-0.011,-0.251,9.812,0.01,-0.02,0.01
1777734841.8394628,-5.36,-0.06,-1.37,0.018,-0.126,9.812,0.0,-0.02,0.0
1777734841.849465,-5.33,-0.03,-1.34,0.061,-0.062,9.811,-0.01,-0.02,-0.02
1777734841.859471,-5.3,-0.02,-1.33,0.087,-0.086,9.811,0.0,-0.01,-0.02
1777734841.8694446,-5.28,-0.01,-1.32,0.103,-0.138,9.811,0.0,-0.01,-0.02
1777734841.8794546,-5.29,0.01,-1.33,0.122,-0.15,9.811,0.0,-0.01,-0.01
1777734841.8894315,-5.3,0.01,-1.33,0.14,-0.128,9.811,-0.01,0.0,0.0
1777734841.8994899,-5.32,0.01,-1.32,0.131,-0.099,9.811,-0.01,0.0,0.01
1777734841.9094315,-5.32,0.0,-1.31,0.09,-0.125,9.811,0.0,0.0,0.0
1777734841.9194326,-5.32,-0.01,-1.31,0.017,-0.164,9.811,0.0,0.0,-0.01
1777734841.9294884,-5.31,-0.03,-1.32,-0.053,-0.234,9.811,-0.01,0.0,-0.01
1777734841.9394917,-5.31,-0.05,-1.33,-0.125,-0.274,9.811,0.0,0.0,-0.01
1777734841.9494543,-5.32,-0.06,-1.33,-0.16,-0.284,9.811,-0.01,0.0,0.0
1777734841.9594512,-5.32,-0.06,-1.33,-0.17,-0.262,9.811,0.0,-0.01,0.0
1777734841.969477,-5.33,-0.06,-1.32,-0.15,-0.232,9.811,0.0,-0.01,0.0
1777734841.9794686,-5.32,-0.06,-1.32,-0.099,-0.198,9.811,0.0,-0.01,0.0
1777734841.989465,-5.32,-0.05,-1.32,-0.041,-0.175,9.811,-0.01,-0.01,-0.01
1777734841.9994638,-5.3,-0.04,-1.31,0.013,-0.163,9.811,-0.01,-0.01,-0.01
1777734842.009462,-5.3,-0.03,-1.31,0.041,-0.186,9.811,0.0,-0.01,-0.01
1777734842.0194936,-5.31,-0.03,-1.31,0.043,-0.201,9.811,0.0,0.0,0.0
1777734842.0294726,-5.32,-0.03,-1.31,0.03,-0.208,9.811,-0.01,0.0,0.0
1777734842.0394638,-5.33,-0.04,-1.31,-0.001,-0.212,9.811,-0.01,0.0,0.0
1777734842.049473,-5.33,-0.05,-1.31,-0.04,-0.202,9.811,0.0,0.0,0.0
1777734842.0594695,-5.32,-0.06,-1.31,-0.085,-0.214,9.811,0.0,0.0,-0.01
1777734842.0686378,-5.32,-0.07,-1.3,-0.131,-0.243,9.811,0.0,0.0,-0.01
1777734842.078608,-5.32,-0.07,-1.3,-0.189,-0.286,9.811,0.0,-0.01,-0.01
1777734842.0894678,-5.32,-0.07,-1.31,-0.204,-0.31,9.811,0.0,-0.01,-0.01
1777734842.099474,-5.32,-0.07,-1.31,-0.188,-0.286,9.811,0.0,-0.01,0.0
1777734842.1086137,-5.32,-0.06,-1.3,-0.122,-0.238,9.811,0.0,-0.01,0.0
1777734842.1186168,-5.31,-0.05,-1.29,-0.051,-0.19,9.811,0.0,-0.01,-0.01
1777734842.1286154,-5.3,-0.02,-1.29,0.013,-0.14,9.811,-0.01,-0.01,-0.01
1777734842.1386182,-5.3,-0.02,-1.27,0.065,-0.134,9.811,-0.01,-0.01,-0.01
1777734842.149472,-5.3,-0.01,-1.27,0.081,-0.147,9.811,0.0,-0.01,-0.01
1777734842.1586373,-5.3,-0.01,-1.27,0.079,-0.163,9.811,-0.01,0.0,0.0
1777734842.1697595,-5.31,-0.02,-1.27,0.041,-0.184,9.811,0.0,0.0,0.0
1777734842.1786392,-5.32,-0.03,-1.27,-0.006,-0.212,9.811,0.0,0.0,0.0
1777734842.188643,-5.32,-0.05,-1.28,-0.068,-0.224,9.811,-0.01,0.0,0.0
1777734842.1986525,-5.32,-0.06,-1.28,-0.122,-0.245,9.811,0.0,0.0,0.0
1777734842.2086484,-5.31,-0.07,-1.29,-0.154,-0.263,9.811,0.0,0.0,-0.01
1777734842.2186332,-5.31,-0.07,-1.29,-0.166,-0.271,9.811,0.0,-0.01,-0.01
1777734842.2286322,-5.31,-0.07,-1.29,-0.134,-0.255,9.811,-0.01,-0.01,-0.01
1777734842.2386334,-5.31,-0.07,-1.29,-0.092,-0.218,9.811,0.0,-0.01,0.0
1777734842.248587,-5.31,-0.06,-1.28,-0.04,-0.206,9.811,0.0,-0.01,0.0
1777734842.25861,-5.31,-0.05,-1.28,0.011,-0.192,9.811,-0.01,-0.01,-0.01
1777734842.268602,-5.3,-0.05,-1.28,0.034,-0.184,9.811,-0.01,0.0,-0.01
1777734842.2786455,-5.3,-0.05,-1.28,0.04,-0.194,9.811,-0.01,0.0,-0.01
1777734842.2886336,-5.31,-0.05,-1.28,0.008,-0.205,9.811,-0.01,0.0,0.0
1777734842.2986345,-5.31,-0.06,-1.28,-0.036,-0.22,9.811,0.0,0.0,0.0
1777734842.3086224,-5.32,-0.07,-1.28,-0.078,-0.232,9.811,0.0,0.0,0.0
1777734842.3186066,-5.32,-0.09,-1.28,-0.113,-0.234,9.811,-0.01,0.0,0.0
1777734842.3286452,-5.32,-0.09,-1.28,-0.132,-0.231,9.811,0.0,0.0,0.0
1777734842.3386314,-5.31,-0.09,-1.28,-0.135,-0.232,9.811,0.0,-0.01,-0.01
1777734842.3486297,-5.31,-0.09,-1.28,-0.11,-0.232,9.811,0.0,-0.01,-0.01
1777734842.3586037,-5.31,-0.09,-1.28,-0.077,-0.231,9.811,-0.01,-0.01,-0.01
1777734842.36862,-5.31,-0.08,-1.28,-0.028,-0.219,9.811,-0.01,-0.01,-0.01
1777734842.378612,-5.31,-0.07,-1.28,-0.001,-0.216,9.811,0.0,-0.01,0.0
1777734842.3886101,-5.31,-0.07,-1.28,0.017,-0.213,9.811,-0.01,0.0,0.0
1777734842.3986132,-5.31,-0.07,-1.28,0.01,-0.218,9.811,0.0,0.0,0.0
1777734842.408598,-5.31,-0.08,-1.28,-0.01,-0.216,9.811,0.0,0.0,0.0
1777734842.4186175,-5.31,-0.09,-1.28,-0.042,-0.228,9.811,0.0,0.0,0.0
1777734842.4286165,-5.31,-0.09,-1.28,-0.075,-0.23,9.811,0.0,0.0,0.0
1777734842.4386237,-5.32,-0.1,-1.28,-0.102,-0.226,9.811,0.0,0.0,0.0
1777734842.4486368,-5.32,-0.11,-1.28,-0.11,-0.241,9.811,0.0,-0.01,0.0
1777734842.4586146,-5.31,-0.11,-1.28,-0.097,-0.231,9.811,0.0,-0.01,0.0
1777734842.4686115,-5.31,-0.1,-1.28,-0.074,-0.234,9.811,-0.01,-0.01,-0.01
1777734842.478615,-5.31,-0.1,-1.28,-0.054,-0.229,9.811,-0.01,-0.01,-0.01
1777734842.4886146,-5.31,-0.1,-1.29,-0.025,-0.23,9.811,0.0,-0.01,-0.01
1777734842.4986312,-5.31,-0.09,-1.28,-0.008,-0.229,9.811,-0.01,-0.01,-0.01
1777734842.5085943,-5.31,-0.09,-1.28,-0.011,-0.218,9.811,0.0,0.0,-0.01
1777734842.5186496,-5.31,-0.1,-1.28,-0.016,-0.211,9.811,0.0,0.0,0.0
1777734842.5286067,-5.31,-0.1,-1.28,-0.04,-0.211,9.811,0.0,0.0,0.0
1777734842.5386374,-5.31,-0.11,-1.28,-0.06,-0.223,9.811,0.0,0.0,0.0
1777734842.548631,-5.31,-0.12,-1.28,-0.078,-0.225,9.811,-0.01,0.0,0.0
1777734842.5586154,-5.31,-0.12,-1.29,-0.092,-0.229,9.811,0.0,0.0,-0.01
1777734842.5686316,-5.31,-0.12,-1.29,-0.09,-0.248,9.811,-0.01,-0.01,-0.01
1777734842.5786183,-5.31,-0.12,-1.29,-0.084,-0.24,9.811,-0.01,-0.01,-0.01
1777734842.5886185,-5.31,-0.12,-1.29,-0.062,-0.234,9.811,0.0,-0.01,0.0
1777734842.598651,-5.31,-0.12,-1.29,-0.034,-0.213,9.811,0.0,-0.01,0.0
1777734842.608668,-5.31,-0.12,-1.28,-0.016,-0.205,9.811,0.0,-0.01,-0.01
1777734842.6186368,-5.31,-0.12,-1.28,-0.008,-0.21,9.811,0.0,-0.01,-0.01
1777734842.6286387,-5.31,-0.12,-1.28,-0.014,-0.211,9.811,-0.01,0.0,-0.01
1777734842.6386425,-5.31,-0.12,-1.29,-0.024,-0.223,9.811,-0.01,0.0,0.0
1777734842.6486778,-5.31,-0.12,-1.29,-0.046,-0.222,9.811,-0.01,0.0,0.0
1777734842.6586504,-5.31,-0.13,-1.29,-0.063,-0.236,9.811,0.0,0.0,0.0
1777734842.6686664,-5.31,-0.13,-1.29,-0.073,-0.236,9.811,0.0,0.0,0.0
1777734842.678652,-5.31,-0.14,-1.3,-0.081,-0.232,9.811,0.0,0.0,-0.01
1777734842.6887102,-5.31,-0.14,-1.29,-0.071,-0.24,9.811,-0.01,-0.01,-0.01
1777734842.6986668,-5.3,-0.14,-1.3,-0.068,-0.235,9.811,0.0,-0.01,-0.01
1777734842.7086647,-5.3,-0.14,-1.3,-0.044,-0.226,9.811,-0.01,-0.01,-0.01
1777734842.7186654,-5.31,-0.14,-1.29,-0.028,-0.238,9.811,-0.01,-0.01,0.0
1777734842.7286682,-5.31,-0.13,-1.3,0.065,-0.25,9.811,0.0,0.0,0.0
1777734842.7386706,-5.3,-0.12,-1.29,0.177,-0.128,9.811,-0.01,0.0,0.0
1777734842.7486317,-5.29,-0.1,-1.25,0.226,-0.103,9.811,0.0,0.0,-0.01
1777734842.7586367,-5.28,-0.11,-1.22,0.275,-0.125,9.811,0.01,0.0,-0.02
1777734842.7686365,-5.28,-0.11,-1.21,0.293,-0.207,9.811,0.01,0.01,-0.01
1777734842.7786222,-5.31,-0.15,-1.21,0.274,-0.26,9.811,0.01,0.02,0.0
1777734842.7886412,-5.36,-0.2,-1.22,0.248,-0.272,9.811,0.0,0.02,0.02
1777734842.7986245,-5.4,-0.25,-1.21,0.11,-0.29,9.811,0.0,0.02,0.02
1777734842.8086193,-5.44,-0.32,-1.22,-0.034,-0.296,9.811,0.0,0.02,0.02
1777734842.818646,-5.46,-0.37,-1.21,-0.157,-0.308,9.811,0.0,0.02,0.02
1777734842.828651,-5.46,-0.42,-1.22,-0.322,-0.345,9.811,0.0,0.02,0.01
1777734842.8386328,-5.45,-0.46,-1.22,-0.422,-0.372,9.811,0.0,0.0,-0.01
1777734842.8486202,-5.44,-0.47,-1.23,-0.429,-0.371,9.811,0.0,0.0,-0.01
1777734842.8586216,-5.44,-0.46,-1.24,-0.382,-0.316,9.811,0.0,-0.01,-0.01
1777734842.8686042,-5.44,-0.44,-1.23,-0.238,-0.255,9.811,0.0,-0.02,-0.01
1777734842.8786592,-5.44,-0.39,-1.23,-0.068,-0.182,9.811,-0.01,-0.02,0.0
1777734842.8878345,-5.43,-0.35,-1.22,0.067,-0.109,9.811,-0.01,-0.02,-0.01
1777734842.8978102,-5.42,-0.32,-1.22,0.199,-0.071,9.811,-0.01,-0.02,-0.01
1777734842.9086463,-5.4,-0.3,-1.22,0.28,-0.116,9.811,-0.01,0.0,-0.02
1777734842.9186358,-5.4,-0.28,-1.23,0.274,-0.223,9.811,0.0,0.0,-0.02
1777734842.9278226,-5.4,-0.29,-1.24,0.214,-0.299,9.811,0.0,0.0,-0.01
1777734842.9386423,-5.43,-0.3,-1.25,0.132,-0.346,9.811,0.0,0.01,0.0
1777734842.9478316,-5.45,-0.33,-1.26,0.013,-0.347,9.811,0.0,0.01,0.01
1777734842.9586606,-5.45,-0.35,-1.26,-0.086,-0.311,9.811,0.0,0.0,0.01
1777734842.967812,-5.45,-0.36,-1.25,-0.159,-0.286,9.811,0.0,0.0,0.0
1777734842.9778278,-5.44,-0.37,-1.25,-0.176,-0.279,9.811,0.0,-0.01,-0.01
1777734842.9878187,-5.43,-0.35,-1.26,-0.135,-0.259,9.811,0.0,-0.01,-0.01
1777734842.997828,-5.43,-0.33,-1.26,-0.067,-0.232,9.811,-0.01,-0.01,-0.01
1777734843.0078247,-5.43,-0.31,-1.26,0.031,-0.19,9.811,-0.01,-0.01,-0.01
1777734843.0178196,-5.43,-0.28,-1.25,0.127,-0.183,9.811,-0.01,-0.01,0.0
1777734843.0278192,-5.43,-0.27,-1.25,0.186,-0.188,9.811,0.0,-0.01,0.0
1777734843.0383713,-5.42,-0.26,-1.26,0.208,-0.19,9.811,-0.01,0.0,-0.01
1777734843.0483372,-5.42,-0.26,-1.26,0.171,-0.223,9.811,-0.01,0.0,-0.01
1777734843.0586624,-5.42,-0.27,-1.26,0.099,-0.263,9.811,0.0,0.0,-0.01
1777734843.0678272,-5.43,-0.28,-1.26,0.028,-0.295,9.811,0.0,0.0,0.0
1777734843.0779,-5.43,-0.29,-1.27,-0.048,-0.301,9.811,0.0,0.0,0.0
1777734843.0878236,-5.44,-0.31,-1.27,-0.102,-0.277,9.811,0.0,0.0,0.0
1777734843.097865,-5.44,-0.31,-1.27,-0.117,-0.255,9.811,0.0,-0.01,0.0
1777734843.1078227,-5.44,-0.3,-1.27,-0.092,-0.231,9.811,0.0,-0.01,-0.01
1777734843.1178844,-5.43,-0.28,-1.27,-0.036,-0.226,9.811,-0.01,-0.01,-0.01
1777734843.1278245,-5.42,-0.27,-1.27,0.026,-0.214,9.811,-0.01,-0.01,-0.01
1777734843.1378605,-5.42,-0.25,-1.28,0.08,-0.213,9.811,-0.01,-0.01,-0.01
1777734843.1478312,-5.42,-0.24,-1.28,0.107,-0.223,9.811,-0.01,-0.01,-0.01
1777734843.157799,-5.43,-0.28,-1.44,-0.153,-0.801,9.811,-0.01,0.0,0.0
1777734843.1678052,-5.43,-0.38,-1.61,-0.162,-0.635,9.814,-0.07,0.03,0.02
1777734843.1777973,-5.39,-0.36,-1.62,-0.342,-0.365,9.812,-0.08,0.02,-0.01
1777734843.1878073,-5.31,-0.38,-1.6,-0.56,-0.152,9.737,-0.02,-0.03,-0.03
1777734843.1978166,-5.22,-0.32,-1.57,-0.405,-0.23,9.739,0.0,-0.03,-0.05
1777734843.207819,-5.15,-0.25,-1.59,-0.594,-0.198,9.76,0.0,-0.05,-0.05
1777734843.2179866,-5.07,-0.2,-1.59,-0.339,-0.068,9.773,-0.01,-0.05,-0.05
1777734843.227832,-5.02,-0.08,-1.59,-0.14,-0.049,9.784,-0.02,-0.05,-0.04
1777734843.2378263,-4.97,0.01,-1.61,-0.101,0.022,9.792,-0.02,-0.05,-0.03
1777734843.2478426,-4.92,0.05,-1.64,0.189,0.187,9.797,-0.03,-0.04,-0.03
1777734843.257924,-4.87,0.15,-1.64,0.463,0.307,9.8,-0.04,-0.02,-0.03
1777734843.2678146,-4.82,0.23,-1.59,0.516,0.289,9.805,-0.02,-0.03,-0.03
1777734843.2778084,-4.81,0.26,-1.55,0.647,0.102,9.808,0.01,-0.02,-0.02
1777734843.2879603,-4.82,0.29,-1.57,0.604,-0.06,9.809,0.01,0.0,-0.01
1777734843.297942,-4.86,0.25,-1.59,0.504,-0.192,9.809,-0.01,0.01,0.01
1777734843.3077958,-4.9,0.2,-1.63,0.387,-0.262,9.81,-0.02,0.02,0.02
1777734843.3178155,-4.95,0.13,-1.64,0.163,-0.295,9.811,-0.02,0.03,0.02
1777734843.3278205,-4.99,0.05,-1.64,-0.028,-0.307,9.812,-0.01,0.02,0.02
1777734843.3379781,-5.04,-0.01,-1.62,-0.182,-0.309,9.811,0.0,0.02,0.02
1777734843.3478293,-5.07,-0.06,-1.59,-0.333,-0.326,9.811,0.02,0.02,0.02
1777734843.3578298,-5.09,-0.1,-1.58,-0.438,-0.279,9.812,0.01,0.0,0.01
1777734843.367819,-5.09,-0.13,-1.56,-0.473,-0.163,9.812,0.0,0.0,0.01
1777734843.377966,-5.07,-0.13,-1.54,-0.442,-0.034,9.812,0.0,-0.01,-0.01
1777734843.3878431,-5.05,-0.12,-1.5,-0.36,0.038,9.812,0.0,-0.02,-0.02
1777734843.3978171,-5.0,-0.08,-1.48,-0.278,0.057,9.812,0.0,-0.02,-0.02
1777734843.4077928,-4.97,-0.05,-1.47,-0.192,0.067,9.811,0.0,-0.02,-0.02
1777734843.4177876,-4.94,-0.01,-1.47,-0.081,0.025,9.812,-0.01,-0.02,-0.02
1777734843.4278083,-4.92,0.01,-1.48,0.012,-0.055,9.812,-0.01,-0.02,-0.02
1777734843.4379485,-4.92,0.03,-1.49,0.095,-0.105,9.812,-0.01,-0.01,-0.01
1777734843.4478087,-4.92,0.05,-1.49,0.174,-0.17,9.812,-0.01,-0.01,0.0
1777734843.4578655,-4.94,0.05,-1.5,0.175,-0.255,9.812,0.0,0.0,0.0
1777734843.4678164,-4.95,0.04,-1.51,0.126,-0.262,9.812,0.0,0.0,0.0
1777734843.4779785,-4.97,0.01,-1.51,0.055,-0.238,9.812,-0.01,0.01,0.01
1777734843.487829,-4.98,-0.02,-1.49,-0.057,-0.208,9.811,0.0,0.01,0.0
1777734843.497976,-4.99,-0.04,-1.48,-0.141,-0.171,9.811,0.0,0.01,0.0
1777734843.5078344,-5.0,-0.06,-1.46,-0.205,-0.131,9.811,0.0,0.0,0.0
1777734843.5179746,-5.0,-0.08,-1.45,-0.254,-0.095,9.811,0.0,0.0,0.0
1777734843.527833,-5.0,-0.09,-1.44,-0.242,-0.05,9.811,-0.01,-0.01,0.0
1777734843.5379553,-4.99,-0.08,-1.43,-0.2,-0.037,9.811,-0.01,-0.01,-0.01
1777734843.5479577,-4.97,-0.07,-1.42,-0.15,-0.057,9.811,-0.01,-0.02,-0.01
1777734843.558001,-4.95,-0.05,-1.42,-0.079,-0.115,9.811,0.0,-0.01,-0.02
1777734843.5678082,-4.95,-0.04,-1.43,-0.03,-0.158,9.812,-0.01,-0.01,-0.02
1777734843.5778048,-4.95,-0.03,-1.43,0.02,-0.19,9.812,-0.01,-0.01,-0.01
1777734843.5878441,-4.95,-0.03,-1.43,0.051,-0.207,9.811,-0.01,0.0,0.0
1777734843.5978107,-4.96,-0.03,-1.43,0.038,-0.205,9.811,0.0,0.0,0.0
1777734843.6078517,-4.97,-0.04,-1.42,0.007,-0.183,9.811,0.0,0.0,0.0
1777734843.6178126,-4.98,-0.05,-1.41,-0.032,-0.152,9.811,0.0,0.0,0.0
1777734843.6278534,-4.98,-0.08,-1.4,-0.087,-0.121,9.811,0.0,0.0,0.0
1777734843.637819,-4.98,-0.09,-1.4,-0.129,-0.102,9.811,-0.01,0.0,0.0
1777734843.6478145,-4.98,-0.1,-1.39,-0.171,-0.108,9.811,0.0,0.0,-0.01
1777734843.6578548,-4.98,-0.1,-1.38,-0.175,-0.119,9.811,0.0,-0.01,-0.01
1777734843.667815,-4.97,-0.1,-1.38,-0.144,-0.134,9.811,-0.01,-0.01,-0.01
1777734843.6778173,-4.97,-0.1,-1.38,-0.109,-0.148,9.811,-0.01,-0.01,-0.01
1777734843.6878195,-4.97,-0.09,-1.38,-0.065,-0.168,9.811,-0.01,-0.01,-0.01
1777734843.6978183,-4.97,-0.08,-1.38,-0.026,-0.178,9.811,0.0,-0.01,-0.01
1777734843.7077906,-4.97,-0.08,-1.38,0.0,-0.175,9.811,0.0,-0.01,-0.01
1777734843.7178204,-4.97,-0.08,-1.37,0.004,-0.159,9.811,0.0,0.0,0.0
1777734843.7278368,-4.97,-0.09,-1.36,-0.006,-0.146,9.811,0.0,0.0,0.0
1777734843.737805,-4.98,-0.09,-1.35,-0.041,-0.14,9.811,0.0,0.0,0.0
1777734843.747826,-4.98,-0.1,-1.35,-0.079,-0.133,9.811,0.0,0.0,0.0
1777734843.7578092,-4.98,-0.11,-1.35,-0.111,-0.129,9.811,-0.01,0.0,0.0
1777734843.7678516,-4.98,-0.12,-1.35,-0.123,-0.144,9.811,-0.01,0.0,0.0
1777734843.7770114,-4.98,-0.12,-1.35,-0.134,-0.158,9.811,-0.01,-0.01,-0.01
1777734843.7878065,-4.98,-0.13,-1.35,-0.123,-0.171,9.811,-0.01,-0.01,-0.01
1777734843.797007,-4.98,-0.12,-1.34,-0.101,-0.183,9.811,0.0,-0.01,-0.01
1777734843.8070056,-4.98,-0.12,-1.34,-0.069,-0.182,9.811,0.0,-0.01,-0.01
1777734843.8180027,-4.98,-0.11,-1.33,-0.038,-0.171,9.811,0.0,-0.01,-0.01
1777734843.8279839,-4.98,-0.11,-1.33,-0.016,-0.156,9.811,0.0,-0.01,0.0
1777734843.8369842,-4.98,-0.11,-1.33,-0.011,-0.147,9.811,0.0,-0.01,0.0
1777734843.8479881,-4.98,-0.11,-1.32,-0.014,-0.144,9.811,0.0,0.0,0.0
1777734843.8579643,-4.98,-0.12,-1.32,-0.031,-0.143,9.811,-0.01,0.0,0.0
1777734843.8670092,-4.98,-0.13,-1.31,-0.06,-0.151,9.811,-0.01,0.0,0.0
1777734843.8778305,-4.98,-0.13,-1.31,-0.085,-0.157,9.811,0.0,0.0,0.0
1777734843.8870318,-4.98,-0.14,-1.31,-0.101,-0.17,9.811,-0.01,0.0,0.0
1777734843.8969824,-4.98,-0.15,-1.31,-0.108,-0.177,9.811,0.0,0.0,0.0
1777734843.9080036,-4.98,-0.15,-1.31,-0.102,-0.187,9.811,-0.01,-0.01,-0.01
1777734843.9179971,-4.98,-0.15,-1.31,-0.087,-0.19,9.811,0.0,-0.01,-0.01
1777734843.9270277,-4.98,-0.14,-1.3,-0.067,-0.186,9.811,0.0,-0.01,-0.01
1777734843.9370053,-4.98,-0.14,-1.3,-0.047,-0.181,9.811,0.0,-0.01,-0.01
1777734843.947012,-4.98,-0.14,-1.3,-0.037,-0.164,9.811,0.0,-0.01,0.0
1777734843.9569943,-4.98,-0.14,-1.3,-0.025,-0.154,9.811,0.0,0.0,0.0
1777734843.9670157,-4.98,-0.14,-1.29,-0.03,-0.148,9.811,-0.01,0.0,0.0
1777734843.9770072,-4.98,-0.15,-1.29,-0.038,-0.15,9.811,-0.01,0.0,0.0
1777734843.987014,-4.98,-0.15,-1.29,-0.043,-0.16,9.811,-0.01,0.0,0.0
1777734843.997013,-4.98,-0.15,-1.29,-0.062,-0.171,9.811,0.0,0.0,0.0
1777734844.0070133,-4.98,-0.16,-1.29,-0.073,-0.176,9.811,-0.01,0.0,0.0
1777734844.0169978,-4.98,-0.16,-1.28,-0.08,-0.182,9.811,0.0,0.0,0.0
1777734844.027027,-4.98,-0.16,-1.28,-0.077,-0.19,9.811,0.0,-0.01,-0.01
1777734844.0370069,-4.98,-0.16,-1.28,-0.069,-0.189,9.811,-0.01,-0.01,-0.01
1777734844.047007,-4.98,-0.16,-1.27,-0.059,-0.181,9.811,0.0,-0.01,-0.01
1777734844.0569787,-4.98,-0.16,-1.27,-0.044,-0.168,9.811,0.0,-0.01,-0.01
1777734844.0671263,-4.98,-0.16,-1.27,-0.029,-0.159,9.811,0.0,-0.01,0.0
1777734844.0769956,-4.98,-0.16,-1.27,-0.029,-0.159,9.811,-0.01,-0.01,0.0
1777734844.086991,-4.98,-0.16,-1.27,-0.031,-0.163,9.811,-0.01,0.0,0.0
1777734844.097113,-4.98,-0.16,-1.27,-0.035,-0.17,9.811,-0.01,0.0,0.0
1777734844.1070244,-4.98,-0.17,-1.27,-0.048,-0.176,9.811,-0.01,0.0,0.0
1777734844.117137,-4.98,-0.17,-1.27,-0.056,-0.183,9.811,-0.01,0.0,0.0
1777734844.127015,-4.98,-0.17,-1.27,-0.067,-0.192,9.811,-0.01,0.0,0.0
1777734844.1369824,-4.98,-0.17,-1.26,-0.08,-0.189,9.811,0.0,0.0,0.0
1777734844.1470196,-4.98,-0.17,-1.26,-0.079,-0.184,9.811,0.0,-0.01,0.0
1777734844.157116,-4.98,-0.17,-1.26,-0.068,-0.172,9.811,0.0,-0.01,-0.01
1777734844.1669896,-4.98,-0.17,-1.25,-0.055,-0.16,9.811,0.0,-0.01,-0.01
1777734844.176977,-4.98,-0.17,-1.25,-0.041,-0.158,9.811,-0.01,-0.01,-0.01
1777734844.187018,-4.98,-0.17,-1.25,-0.037,-0.154,9.811,-0.01,-0.01,-0.01
1777734844.1970894,-4.98,-0.17,-1.25,-0.025,-0.159,9.811,0.0,0.0,-0.01
1777734844.2070377,-4.98,-0.17,-1.25,-0.024,-0.159,9.811,-0.01,0.0,0.0
1777734844.2169697,-4.98,-0.17,-1.25,-0.029,-0.165,9.811,-0.01,0.0,0.0
1777734844.227015,-4.98,-0.17,-1.25,-0.038,-0.18,9.811,-0.01,0.0,0.0
1777734844.2369905,-4.98,-0.18,-1.25,-0.057,-0.184,9.811,-0.01,0.0,0.0
1777734844.2470038,-4.98,-0.18,-1.24,-0.066,-0.186,9.811,0.0,0.0,-0.01
1777734844.2571807,-4.98,-0.19,-1.24,-0.073,-0.182,9.811,0.0,-0.01,-0.01
1777734844.2670329,-4.98,-0.19,-1.24,-0.072,-0.177,9.811,0.0,-0.01,0.0
1777734844.2771397,-4.98,-0.19,-1.23,-0.063,-0.174,9.811,0.0,-0.01,0.0
1777734844.2869976,-4.98,-0.19,-1.23,-0.049,-0.164,9.811,-0.01,-0.01,-0.01
1777734844.2971365,-4.98,-0.18,-1.23,-0.04,-0.156,9.811,0.0,-0.01,-0.01
1777734844.3070002,-4.98,-0.18,-1.22,-0.032,-0.165,9.811,-0.01,-0.01,-0.01
1777734844.3169878,-4.98,-0.18,-1.22,-0.029,-0.174,9.811,-0.01,0.0,-0.01
1777734844.3270047,-4.98,-0.18,-1.22,-0.028,-0.188,9.811,-0.01,0.0,-0.01
1777734844.3370266,-4.98,-0.19,-1.22,-0.032,-0.192,9.811,-0.01,0.0,0.0
1777734844.3470087,-4.98,-0.19,-1.22,-0.046,-0.196,9.811,0.0,0.0,0.0
1777734844.356996,-4.98,-0.19,-1.22,-0.05,-0.19,9.811,0.0,0.0,0.0
1777734844.3670063,-4.98,-0.19,-1.22,-0.061,-0.184,9.811,-0.01,0.0,0.0
1777734844.3770041,-4.98,-0.19,-1.22,-0.066,-0.177,9.811,0.0,0.0,-0.01
1777734844.3870158,-4.98,-0.19,-1.22,-0.061,-0.176,9.811,-0.01,-0.01,-0.01
1777734844.3970244,-4.98,-0.19,-1.22,-0.056,-0.171,9.811,0.0,-0.01,0.0
1777734844.4070394,-4.98,-0.19,-1.22,-0.048,-0.17,9.811,-0.01,-0.01,-0.01
1777734844.4170074,-4.98,-0.19,-1.22,-0.038,-0.169,9.811,-0.01,-0.01,-0.01
1777734844.4270265,-4.98,-0.19,-1.21,-0.035,-0.176,9.811,-0.01,-0.01,-0.01
1777734844.4370105,-4.98,-0.19,-1.21,-0.032,-0.184,9.811,-0.01,0.0,-0.01
1777734844.4473078,-4.98,-0.19,-1.21,-0.04,-0.188,9.811,0.0,0.0,-0.01
1777734844.4569638,-4.98,-0.19,-1.21,-0.042,-0.184,9.811,0.0,0.0,0.0
1777734844.4670362,-4.98,-0.2,-1.21,-0.051,-0.177,9.811,-0.01,0.0,0.0
1777734844.476985,-4.98,-0.2,-1.21,-0.061,-0.177,9.811,0.0,0.0,0.0
1777734844.4870439,-4.98,-0.21,-1.21,-0.068,-0.176,9.811,0.0,0.0,0.0
1777734844.4969885,-4.98,-0.21,-1.2,-0.073,-0.174,9.811,0.0,0.0,-0.01
1777734844.5070176,-4.98,-0.21,-1.2,-0.061,-0.174,9.811,0.0,-0.01,-0.01
1777734844.5169823,-4.98,-0.21,-1.2,-0.051,-0.181,9.811,0.0,-0.01,-0.01
1777734844.527049,-4.98,-0.21,-1.2,-0.046,-0.192,9.811,0.0,-0.01,-0.01
1777734844.5369847,-4.98,-0.2,-1.2,-0.041,-0.195,9.811,0.0,0.0,0.0
1777734844.546981,-4.98,-0.2,-1.2,-0.034,-0.184,9.811,0.0,-0.01,0.0
1777734844.5569866,-4.98,-0.2,-1.2,-0.03,-0.177,9.811,0.0,0.0,0.0
1777734844.567047,-4.98,-0.2,-1.2,-0.034,-0.18,9.811,0.0,0.0,0.0
1777734844.5769906,-4.98,-0.21,-1.2,-0.035,-0.182,9.811,0.0,0.0,0.0
1777734844.5870304,-4.98,-0.21,-1.2,-0.043,-0.18,9.811,0.0,0.0,0.0
1777734844.597,-4.98,-0.21,-1.2,-0.054,-0.178,9.811,-0.01,0.0,0.0
1777734844.6069877,-4.98,-0.21,-1.2,-0.056,-0.177,9.811,-0.01,-0.01,0.0
1777734844.6169803,-4.98,-0.21,-1.19,-0.054,-0.178,9.811,-0.01,-0.01,0.0
1777734844.6270204,-4.98,-0.21,-1.19,-0.048,-0.184,9.811,0.0,-0.01,0.0
1777734844.6370187,-4.98,-0.21,-1.19,-0.046,-0.186,9.811,-0.01,-0.01,-0.01
1777734844.6470265,-4.98,-0.21,-1.19,-0.044,-0.187,9.811,0.0,-0.01,-0.01
1777734844.6569963,-4.98,-0.21,-1.19,-0.046,-0.183,9.811,0.0,0.0,0.0
1777734844.6661835,-4.98,-0.21,-1.19,-0.036,-0.182,9.811,-0.01,-0.01,0.0
1777734844.6770113,-4.98,-0.21,-1.19,-0.038,-0.175,9.811,0.0,0.0,0.0
1777734844.6861727,-4.98,-0.21,-1.18,-0.043,-0.175,9.811,0.0,0.0,0.0
1777734844.6961796,-4.98,-0.21,-1.18,-0.048,-0.172,9.811,-0.01,-0.01,0.0
1777734844.7070024,-4.98,-0.21,-1.18,-0.051,-0.176,9.811,-0.01,0.0,0.0
1777734844.7161832,-4.98,-0.21,-1.18,-0.051,-0.184,9.811,-0.01,0.0,0.0
1777734844.7270312,-4.98,-0.21,-1.18,-0.055,-0.188,9.811,0.0,0.0,-0.01
1777734844.7370133,-4.98,-0.22,-1.18,-0.057,-0.19,9.811,0.0,-0.01,-0.01
1777734844.7461712,-4.98,-0.22,-1.18,-0.054,-0.187,9.811,0.0,0.0,0.0
1777734844.7571805,-4.98,-0.22,-1.18,-0.047,-0.188,9.811,0.0,-0.01,0.0
1777734844.7661903,-4.98,-0.22,-1.17,-0.048,-0.182,9.811,0.0,0.0,0.0
1777734844.7770197,-4.98,-0.22,-1.17,-0.043,-0.174,9.811,0.0,-0.01,0.0
1777734844.7870207,-4.98,-0.22,-1.17,-0.037,-0.172,9.811,-0.01,-0.01,-0.01
1777734844.7961903,-4.98,-0.22,-1.17,-0.044,-0.172,9.811,0.0,0.0,-0.01
1777734844.8061657,-4.98,-0.22,-1.17,-0.044,-0.182,9.811,-0.01,0.0,-0.01
1777734844.8161852,-4.98,-0.22,-1.17,-0.046,-0.192,9.811,-0.01,-0.01,-0.01
1777734844.8261375,-4.98,-0.22,-1.17,-0.05,-0.198,9.811,0.0,0.0,0.0
1777734844.8361545,-4.98,-0.22,-1.17,-0.049,-0.199,9.811,-0.01,0.0,0.0
1777734844.8461819,-4.98,-0.22,-1.17,-0.049,-0.205,9.811,-0.01,0.0,0.0
1777734844.856162,-4.98,-0.22,-1.17,-0.049,-0.201,9.811,0.0,0.0,0.0
1777734844.866179,-4.98,-0.22,-1.17,-0.05,-0.194,9.811,0.0,-0.01,-0.01
1777734844.8761818,-4.98,-0.23,-1.17,-0.05,-0.188,9.811,-0.01,-0.01,0.0
1777734844.8861945,-4.98,-0.22,-1.17,-0.046,-0.184,9.811,0.0,0.0,0.0
1777734844.896185,-4.98,-0.22,-1.17,-0.04,-0.183,9.811,0.0,-0.01,0.0
1777734844.9061852,-4.98,-0.22,-1.17,-0.035,-0.18,9.811,-0.01,-0.01,0.0
1777734844.9161434,-4.98,-0.22,-1.17,-0.031,-0.19,9.811,0.0,0.0,-0.01
1777734844.92619,-4.98,-0.22,-1.17,-0.036,-0.192,9.811,0.0,0.0,-0.01
1777734844.9361613,-4.98,-0.22,-1.17,-0.037,-0.19,9.811,-0.01,0.0,0.0
1777734844.9461546,-4.98,-0.22,-1.17,-0.042,-0.188,9.811,-0.01,-0.01,0.0
1777734844.9561954,-4.99,-0.22,-1.17,-0.04,-0.177,9.811,0.0,0.0,0.0
1777734844.9661672,-4.99,-0.23,-1.17,-0.048,-0.174,9.811,-0.01,0.0,0.0
1777734844.9761336,-4.99,-0.23,-1.17,-0.048,-0.174,9.811,0.0,-0.01,0.0
1777734844.986153,-4.98,-0.23,-1.17,-0.049,-0.186,9.811,-0.01,-0.01,-0.01
1777734844.99614,-4.98,-0.23,-1.17,-0.044,-0.199,9.811,0.0,-0.01,-0.01
1777734845.0061438,-4.98,-0.23,-1.17,-0.04,-0.201,9.811,-0.01,-0.01,-0.01
1777734845.0161877,-4.98,-0.22,-1.17,-0.035,-0.199,9.811,-0.01,-0.01,-0.01
1777734845.0261805,-4.98,-0.22,-1.17,-0.031,-0.194,9.811,0.0,-0.01,0.0
1777734845.0361676,-4.98,-0.22,-1.17,-0.026,-0.19,9.811,-0.01,0.0,0.0
1777734845.0461683,-4.98,-0.22,-1.17,-0.029,-0.189,9.811,0.0,0.0,0.0
1777734845.056333,-4.98,-0.22,-1.17,-0.032,-0.184,9.811,0.0,0.0,-0.01
1777734845.0661702,-4.98,-0.22,-1.17,-0.035,-0.183,9.811,-0.01,0.0,0.0
1777734845.0762007,-4.98,-0.22,-1.17,-0.043,-0.182,9.811,0.0,0.0,0.0
1777734845.0861824,-4.98,-0.23,-1.17,-0.047,-0.184,9.811,-0.01,-0.01,0.0
1777734845.0961826,-4.98,-0.23,-1.17,-0.05,-0.187,9.811,-0.01,0.0,0.0
1777734845.106185,-4.98,-0.23,-1.16,-0.054,-0.193,9.811,-0.01,-0.01,0.0
1777734845.1161783,-4.98,-0.23,-1.17,-0.054,-0.186,9.811,0.0,-0.01,-0.01
1777734845.12617,-4.98,-0.23,-1.16,-0.05,-0.189,9.811,-0.01,-0.01,-0.01
1777734845.1362066,-4.98,-0.23,-1.16,-0.047,-0.189,9.811,0.0,-0.01,0.0
1777734845.146159,-4.98,-0.23,-1.16,-0.041,-0.184,9.811,0.0,0.0,0.0
1777734845.1561577,-4.98,-0.23,-1.16,-0.037,-0.181,9.811,-0.01,-0.01,0.0
1777734845.16621,-4.98,-0.23,-1.16,-0.037,-0.177,9.811,-0.01,0.0,0.0
1777734845.1761775,-4.98,-0.23,-1.16,-0.036,-0.182,9.811,-0.01,0.0,0.0
1777734845.186172,-4.98,-0.23,-1.16,-0.041,-0.189,9.811,0.0,0.0,-0.01
1777734845.1962082,-4.98,-0.23,-1.16,-0.05,-0.192,9.811,-0.01,0.0,0.0
1777734845.2061694,-4.98,-0.23,-1.16,-0.049,-0.193,9.811,-0.01,0.0,0.0
1777734845.2161694,-4.98,-0.23,-1.16,-0.049,-0.195,9.811,-0.01,-0.01,0.0
1777734845.2261732,-4.98,-0.23,-1.16,-0.048,-0.194,9.811,-0.01,0.0,0.0
1777734845.2361913,-4.98,-0.23,-1.16,-0.048,-0.189,9.811,0.0,0.0,-0.01
1777734845.2461782,-4.98,-0.23,-1.16,-0.043,-0.196,9.811,0.0,-0.01,-0.01
1777734845.2561784,-4.98,-0.23,-1.16,-0.041,-0.192,9.811,0.0,0.0,-0.01
1777734845.266194,-4.98,-0.23,-1.16,-0.037,-0.188,9.811,0.0,0.0,0.0
1777734845.2761834,-4.98,-0.23,-1.15,-0.038,-0.178,9.811,0.0,-0.01,0.0
1777734845.286175,-4.98,-0.23,-1.15,-0.037,-0.178,9.811,0.0,0.0,0.0
1777734845.2961886,-4.98,-0.23,-1.15,-0.036,-0.18,9.811,-0.01,0.0,0.0
1777734845.3061917,-4.98,-0.23,-1.15,-0.042,-0.181,9.811,0.0,0.0,-0.01
1777734845.3161922,-4.98,-0.23,-1.15,-0.05,-0.192,9.811,-0.01,0.0,-0.01
1777734845.3261888,-4.98,-0.23,-1.15,-0.05,-0.201,9.811,0.0,0.0,-0.01
1777734845.3361778,-4.98,-0.23,-1.16,-0.054,-0.206,9.811,-0.01,-0.01,-0.01
1777734845.3462017,-4.98,-0.23,-1.16,-0.053,-0.201,9.811,-0.01,0.0,0.0
1777734845.3562047,-4.98,-0.23,-1.15,-0.047,-0.194,9.811,-0.01,-0.01,0.0
1777734845.3662117,-4.98,-0.23,-1.15,-0.043,-0.178,9.811,0.0,-0.01,0.0
1777734845.3761733,-4.98,-0.23,-1.15,-0.035,-0.169,9.811,0.0,0.0,0.0
1777734845.3861578,-4.98,-0.23,-1.15,-0.035,-0.172,9.811,-0.01,0.0,-0.01
1777734845.396211,-4.98,-0.23,-1.15,-0.04,-0.187,9.811,0.0,0.0,-0.01
1777734845.406215,-4.98,-0.23,-1.15,-0.031,-0.195,9.811,-0.01,-0.01,-0.01
1777734845.4162006,-4.98,-0.23,-1.15,-0.034,-0.207,9.811,-0.01,0.0,0.0
1777734845.4261692,-4.99,-0.23,-1.15,-0.034,-0.207,9.811,0.0,-0.01,0.0
1777734845.436226,-4.99,-0.23,-1.15,-0.038,-0.198,9.811,-0.01,0.0,0.0
1777734845.4461882,-4.98,-0.23,-1.15,-0.044,-0.188,9.811,0.0,0.0,0.0
1777734845.4561903,-4.98,-0.23,-1.15,-0.047,-0.187,9.811,-0.01,-0.01,-0.01
1777734845.4661958,-4.98,-0.23,-1.15,-0.044,-0.188,9.811,-0.01,-0.01,-0.01
1777734845.4761992,-4.98,-0.23,-1.15,-0.041,-0.189,9.811,-0.01,-0.01,0.0
1777734845.4861817,-4.98,-0.23,-1.15,-0.03,-0.183,9.811,-0.01,-0.01,0.0
1777734845.4961843,-4.98,-0.23,-1.15,-0.03,-0.176,9.811,-0.01,-0.01,0.0
1777734845.5061557,-4.98,-0.23,-1.15,-0.024,-0.18,9.811,-0.01,0.0,0.0
1777734845.516203,-4.98,-0.23,-1.15,-0.026,-0.198,9.811,0.0,0.0,-0.01
1777734845.5261931,-4.98,-0.23,-1.15,-0.032,-0.199,9.811,-0.01,0.0,-0.01
1777734845.5361764,-4.98,-0.23,-1.15,-0.032,-0.21,9.811,0.0,0.0,-0.01
1777734845.5461915,-4.98,-0.23,-1.15,-0.042,-0.2,9.811,0.0,0.0,0.0
1777734845.5561948,-4.98,-0.23,-1.15,-0.046,-0.192,9.811,-0.01,-0.01,0.0
1777734845.5661817,-4.98,-0.23,-1.15,-0.047,-0.186,9.811,0.0,0.0,0.0
1777734845.576202,-4.98,-0.23,-1.15,-0.048,-0.176,9.811,0.0,0.0,0.0
1777734845.586188,-4.98,-0.23,-1.15,-0.042,-0.178,9.811,0.0,-0.01,-0.01
1777734845.5961883,-4.98,-0.23,-1.15,-0.037,-0.183,9.811,-0.01,-0.01,-0.01
1777734845.6061723,-4.98,-0.23,-1.15,-0.034,-0.187,9.811,-0.01,0.0,-0.01
1777734845.6154,-4.98,-0.23,-1.15,-0.031,-0.194,9.811,-0.01,0.0,-0.01
1777734845.6253757,-4.98,-0.23,-1.15,-0.031,-0.192,9.811,-0.01,-0.01,0.0
1777734845.6353662,-4.98,-0.23,-1.15,-0.032,-0.192,9.811,-0.01,0.0,0.0
1777734845.6461997,-4.98,-0.23,-1.15,-0.038,-0.192,9.811,-0.01,0.0,0.0
1777734845.65536,-4.98,-0.23,-1.15,-0.046,-0.188,9.811,0.0,0.0,0.0
1777734845.6653712,-4.98,-0.23,-1.15,-0.053,-0.19,9.811,0.0,0.0,-0.01
1777734845.675365,-4.98,-0.23,-1.15,-0.053,-0.195,9.811,0.0,0.0,0.0
1777734845.6853466,-4.98,-0.24,-1.15,-0.054,-0.196,9.811,0.0,-0.01,-0.01
1777734845.6953564,-4.98,-0.23,-1.15,-0.051,-0.192,9.811,0.0,0.0,-0.01
1777734845.7053638,-4.98,-0.23,-1.15,-0.046,-0.187,9.811,0.0,-0.01,0.0
1777734845.7153776,-4.98,-0.23,-1.15,-0.036,-0.183,9.811,0.0,-0.01,-0.01
1777734845.7253618,-4.98,-0.23,-1.15,-0.03,-0.19,9.811,-0.01,0.0,-0.01
1777734845.7353637,-4.98,-0.23,-1.15,-0.032,-0.198,9.811,0.0,0.0,-0.01
1777734845.7453744,-4.98,-0.23,-1.15,-0.034,-0.199,9.811,0.0,0.0,-0.01
1777734845.7553883,-4.98,-0.23,-1.15,-0.037,-0.192,9.811,0.0,0.0,0.0
1777734845.765402,-4.98,-0.23,-1.15,-0.044,-0.19,9.811,0.0,0.0,0.0
1777734845.7753959,-4.98,-0.23,-1.15,-0.047,-0.192,9.811,0.0,0.0,0.0
1777734845.7853358,-4.98,-0.23,-1.15,-0.046,-0.192,9.811,0.0,0.0,-0.01
1777734845.795355,-4.98,-0.24,-1.14,-0.048,-0.202,9.811,0.0,0.0,-0.01
1777734845.8053522,-4.98,-0.24,-1.14,-0.05,-0.205,9.811,0.0,0.0,-0.01
1777734845.815338,-4.98,-0.24,-1.14,-0.046,-0.199,9.811,0.0,-0.01,-0.01
1777734845.8253493,-4.98,-0.24,-1.14,-0.041,-0.2,9.811,0.0,-0.01,-0.01
1777734845.835354,-4.98,-0.24,-1.14,-0.038,-0.192,9.811,0.0,0.0,0.0
1777734845.8453333,-4.98,-0.24,-1.14,-0.035,-0.187,9.811,-0.01,0.0,0.0
1777734845.8553667,-4.98,-0.24,-1.14,-0.035,-0.182,9.811,0.0,0.0,0.0
1777734845.8653607,-4.98,-0.24,-1.14,-0.034,-0.181,9.811,-0.01,0.0,0.0
1777734845.8753266,-4.98,-0.24,-1.14,-0.041,-0.181,9.811,-0.01,0.0,0.0
1777734845.885336,-4.98,-0.24,-1.14,-0.043,-0.19,9.811,-0.01,0.0,0.0
1777734845.8953428,-4.98,-0.24,-1.14,-0.042,-0.194,9.811,-0.01,0.0,0.0
1777734845.9053304,-4.98,-0.24,-1.14,-0.041,-0.192,9.811,-0.01,0.0,-0.01
1777734845.9153543,-4.98,-0.24,-1.14,-0.048,-0.193,9.811,-0.01,0.0,-0.01
1777734845.9253995,-4.98,-0.24,-1.14,-0.047,-0.196,9.811,0.0,-0.01,-0.01
1777734845.9353642,-4.98,-0.24,-1.14,-0.05,-0.196,9.811,-0.01,-0.01,0.0
1777734845.9453542,-4.98,-0.24,-1.14,-0.054,-0.193,9.811,0.0,-0.01,0.0
1777734845.9553242,-4.98,-0.24,-1.14,-0.047,-0.18,9.811,0.0,-0.01,0.0
1777734845.9653738,-4.98,-0.24,-1.14,-0.038,-0.177,9.811,0.0,-0.01,0.0
1777734845.9753692,-4.98,-0.24,-1.14,-0.04,-0.178,9.811,-0.01,0.0,0.0
1777734845.9853568,-4.98,-0.24,-1.14,-0.04,-0.186,9.811,-0.01,0.0,-0.01
1777734845.9953265,-4.98,-0.24,-1.14,-0.041,-0.196,9.811,-0.01,0.0,-0.01
1777734846.0053961,-4.98,-0.24,-1.14,-0.04,-0.204,9.811,-0.01,0.0,-0.01
1777734846.0153928,-4.98,-0.24,-1.14,-0.047,-0.212,9.811,-0.01,0.0,-0.01
1777734846.025325,-4.98,-0.24,-1.15,-0.056,-0.205,9.811,0.0,0.0,0.0
1777734846.035346,-4.98,-0.25,-1.14,-0.05,-0.198,9.811,-0.01,-0.01,0.0
1777734846.0453806,-4.98,-0.24,-1.14,-0.048,-0.183,9.811,0.0,-0.01,0.0
1777734846.0553868,-4.98,-0.24,-1.14,-0.044,-0.176,9.811,-0.01,-0.01,0.0
1777734846.0653412,-4.98,-0.24,-1.14,-0.04,-0.176,9.811,0.0,-0.01,0.0
1777734846.075352,-4.98,-0.24,-1.14,-0.032,-0.176,9.811,0.0,-0.01,-0.01
1777734846.08538,-4.98,-0.24,-1.14,-0.022,-0.183,9.811,-0.01,0.0,-0.01
1777734846.0953672,-4.98,-0.24,-1.14,-0.019,-0.193,9.811,0.0,0.0,-0.01
1777734846.105355,-4.98,-0.24,-1.14,-0.026,-0.205,9.811,-0.01,0.0,-0.01
1777734846.1153955,-4.98,-0.24,-1.14,-0.037,-0.207,9.811,-0.01,0.0,0.0
1777734846.125356,-4.98,-0.24,-1.14,-0.04,-0.205,9.811,0.0,0.0,0.0
1777734846.1353805,-4.98,-0.24,-1.14,-0.048,-0.196,9.811,0.0,0.0,0.0
1777734846.1453674,-4.98,-0.24,-1.14,-0.055,-0.187,9.811,0.0,0.0,0.0
1777734846.155339,-4.98,-0.24,-1.14,-0.05,-0.178,9.811,0.0,-0.01,0.0
1777734846.165364,-4.98,-0.24,-1.14,-0.047,-0.174,9.811,-0.01,-0.01,0.0
1777734846.1753778,-4.98,-0.24,-1.14,-0.037,-0.171,9.811,-0.01,-0.01,0.0
1777734846.1853752,-4.98,-0.24,-1.14,-0.034,-0.178,9.811,-0.01,-0.01,0.0
1777734846.195382,-4.98,-0.24,-1.14,-0.034,-0.187,9.811,-0.01,-0.01,0.0
1777734846.205385,-4.98,-0.24,-1.14,-0.031,-0.193,9.811,-0.01,-0.01,0.0
1777734846.215355,-4.98,-0.24,-1.14,-0.036,-0.199,9.811,-0.01,0.0,0.0
1777734846.2253845,-4.98,-0.24,-1.14,-0.043,-0.198,9.811,0.0,0.0,0.0
1777734846.2353606,-4.98,-0.24,-1.14,-0.043,-0.199,9.811,-0.01,0.0,0.0
1777734846.245389,-4.98,-0.24,-1.14,-0.048,-0.188,9.811,0.0,0.0,0.0
1777734846.2554393,-4.98,-0.24,-1.14,-0.046,-0.184,9.811,-0.01,-0.01,-0.01
1777734846.2656102,-4.98,-0.24,-1.14,-0.048,-0.186,9.811,-0.01,-0.01,-0.01
1777734846.275565,-4.98,-0.24,-1.14,-0.044,-0.186,9.811,-0.01,0.0,-0.01
1777734846.2853723,-4.98,-0.24,-1.14,-0.038,-0.188,9.811,-0.01,-0.01,0.0
1777734846.295349,-4.98,-0.24,-1.14,-0.031,-0.186,9.811,-0.01,-0.01,0.0
1777734846.3053892,-4.98,-0.24,-1.14,-0.025,-0.192,9.811,-0.01,0.0,0.0
1777734846.315363,-4.98,-0.24,-1.14,-0.023,-0.202,9.811,-0.01,-0.01,0.0
1777734846.325332,-4.98,-0.24,-1.14,-0.034,-0.195,9.811,0.0,0.0,0.0
1777734846.3353832,-4.98,-0.24,-1.14,-0.04,-0.189,9.811,0.0,0.0,0.0
1777734846.345335,-4.98,-0.24,-1.14,-0.044,-0.183,9.811,0.0,0.0,0.0
1777734846.3553712,-4.98,-0.24,-1.14,-0.054,-0.18,9.811,-0.01,0.0,0.0
1777734846.3653586,-4.98,-0.25,-1.14,-0.059,-0.181,9.811,-0.01,-0.01,0.0
1777734846.3753865,-4.98,-0.25,-1.14,-0.055,-0.181,9.811,-0.01,-0.01,-0.01
1777734846.3853765,-4.98,-0.25,-1.14,-0.047,-0.19,9.811,-0.01,-0.01,-0.01
1777734846.395374,-4.98,-0.24,-1.14,-0.042,-0.195,9.811,0.0,-0.01,-0.01
1777734846.4053452,-4.98,-0.24,-1.14,-0.034,-0.202,9.811,-0.01,0.0,-0.01
1777734846.4153934,-4.98,-0.24,-1.14,-0.029,-0.201,9.811,0.0,0.0,0.0
1777734846.4253383,-4.98,-0.24,-1.14,-0.028,-0.193,9.811,0.0,0.0,0.0
1777734846.435381,-4.98,-0.24,-1.14,-0.034,-0.194,9.811,0.0,0.0,0.0
1777734846.4453566,-4.98,-0.24,-1.14,-0.031,-0.189,9.811,-0.01,0.0,-0.01
1777734846.4545488,-4.98,-0.24,-1.14,-0.04,-0.182,9.811,0.0,0.0,-0.01
1777734846.4653754,-4.98,-0.24,-1.14,-0.048,-0.175,9.811,-0.01,0.0,0.0
1777734846.4753733,-4.98,-0.24,-1.14,-0.044,-0.171,9.811,-0.01,-0.01,0.0
1777734846.4845521,-4.98,-0.24,-1.14,-0.04,-0.174,9.811,-0.01,-0.01,0.0
1777734846.494548,-4.98,-0.24,-1.14,-0.037,-0.18,9.811,-0.01,0.0,0.0
1777734846.5053937,-4.98,-0.24,-1.14,-0.037,-0.192,9.811,0.0,-0.01,0.0
1777734846.5145273,-4.98,-0.24,-1.14,-0.032,-0.194,9.811,0.0,-0.01,-0.01
1777734846.5245452,-4.98,-0.24,-1.14,-0.031,-0.195,9.811,0.0,0.0,0.0
1777734846.534532,-4.98,-0.24,-1.14,-0.024,-0.196,9.811,-0.01,0.0,0.0
1777734846.5445287,-4.98,-0.24,-1.14,-0.025,-0.19,9.811,-0.01,0.0,0.0
1777734846.5545382,-4.98,-0.24,-1.14,-0.029,-0.186,9.811,0.0,0.0,0.0
1777734846.5645242,-4.98,-0.24,-1.14,-0.032,-0.18,9.811,-0.01,0.0,0.0
1777734846.5745227,-4.98,-0.24,-1.14,-0.036,-0.184,9.811,-0.01,-0.01,-0.01
1777734846.5845814,-4.98,-0.24,-1.14,-0.043,-0.19,9.811,-0.01,0.0,-0.01
1777734846.5990448,-4.98,-0.24,-1.14,-0.043,-0.196,9.811,-0.01,0.0,-0.01
1777734846.6100097,-4.98,-0.24,-1.14,-0.046,-0.199,9.811,-0.01,0.0,-0.01
1777734846.616294,-4.98,-0.24,-1.14,-0.043,-0.195,9.811,0.0,-0.01,0.0
1777734846.6269863,-4.98,-0.24,-1.14,-0.051,-0.193,9.811,-0.01,-0.01,0.0
1777734846.6357071,-4.98,-0.24,-1.14,-0.05,-0.195,9.811,0.0,-0.01,0.0
1777734846.6445959,-4.98,-0.24,-1.14,-0.047,-0.189,9.811,-0.01,0.0,0.0
1777734846.655016,-4.98,-0.24,-1.14,-0.043,-0.186,9.811,0.0,0.0,0.0
1777734846.665267,-4.98,-0.24,-1.14,-0.042,-0.18,9.811,-0.01,-0.01,0.0
1777734846.6745787,-4.98,-0.24,-1.14,-0.044,-0.177,9.811,0.0,0.0,0.0
1777734846.684548,-4.98,-0.24,-1.14,-0.041,-0.18,9.811,-0.01,0.0,0.0
1777734846.6945338,-4.98,-0.24,-1.14,-0.038,-0.188,9.811,-0.01,0.0,-0.01
1777734846.7045832,-4.98,-0.24,-1.14,-0.041,-0.199,9.811,-0.01,-0.01,0.0
1777734846.7145805,-4.98,-0.24,-1.14,-0.041,-0.199,9.811,0.0,-0.01,-0.01
1777734846.7245615,-4.98,-0.24,-1.14,-0.043,-0.2,9.811,0.0,-0.01,0.0
1777734846.735338,-4.98,-0.24,-1.14,-0.043,-0.194,9.811,0.0,0.0,-0.01
1777734846.7446187,-4.98,-0.24,-1.14,-0.036,-0.19,9.811,0.0,0.0,0.0
1777734846.7545948,-4.98,-0.24,-1.14,-0.032,-0.187,9.811,0.0,-0.01,0.0
1777734846.764627,-4.98,-0.24,-1.14,-0.026,-0.187,9.811,0.0,0.0,0.0
1777734846.774575,-4.98,-0.24,-1.14,-0.022,-0.188,9.811,-0.01,0.0,0.0
1777734846.7856941,-4.98,-0.24,-1.14,-0.022,-0.189,9.811,-0.01,0.0,0.0
1777734846.7945583,-4.98,-0.24,-1.14,-0.025,-0.199,9.811,-0.01,0.0,-0.01
1777734846.8045545,-4.98,-0.24,-1.14,-0.034,-0.2,9.811,0.0,0.0,-0.01
1777734846.8145716,-4.98,-0.24,-1.14,-0.036,-0.195,9.811,-0.01,0.0,0.0
1777734846.8253846,-4.98,-0.24,-1.14,-0.042,-0.195,9.811,0.0,0.0,0.0
1777734846.8345747,-4.98,-0.24,-1.14,-0.038,-0.192,9.811,0.0,0.0,0.0
1777734846.8446994,-4.98,-0.24,-1.14,-0.032,-0.184,9.811,0.0,0.0,0.0
1777734846.8555086,-4.98,-0.24,-1.14,-0.03,-0.184,9.811,-0.01,-0.01,0.0
1777734846.8645387,-4.98,-0.24,-1.14,-0.03,-0.183,9.811,0.0,-0.01,-0.01
1777734846.8745918,-4.98,-0.24,-1.14,-0.03,-0.184,9.811,-0.01,0.0,-0.01
1777734846.8845787,-4.98,-0.24,-1.14,-0.03,-0.186,9.811,-0.01,-0.01,-0.01
1777734846.8953679,-4.98,-0.23,-1.14,-0.032,-0.198,9.811,-0.01,0.0,-0.01
1777734846.9045482,-4.98,-0.24,-1.14,-0.038,-0.196,9.811,0.0,0.0,-0.01
1777734846.9145226,-4.98,-0.24,-1.14,-0.038,-0.201,9.811,0.0,0.0,-0.01
1777734846.9245481,-4.98,-0.24,-1.14,-0.048,-0.198,9.811,0.0,0.0,0.0
1777734846.9346066,-4.98,-0.24,-1.14,-0.053,-0.2,9.811,0.0,0.0,0.0
1777734846.9447184,-4.98,-0.24,-1.14,-0.054,-0.196,9.811,0.0,0.0,-0.01
1777734846.9545512,-4.98,-0.24,-1.14,-0.053,-0.193,9.811,0.0,0.0,-0.01
1777734846.9645562,-4.98,-0.24,-1.14,-0.046,-0.193,9.811,0.0,-0.01,-0.01
1777734846.9745443,-4.98,-0.24,-1.14,-0.041,-0.193,9.811,-0.01,-0.01,-0.01
1777734846.984558,-4.98,-0.24,-1.14,-0.038,-0.196,9.811,0.0,0.0,0.0
1777734846.9945345,-4.98,-0.24,-1.14,-0.037,-0.199,9.811,0.0,-0.01,0.0
1777734847.004551,-4.98,-0.24,-1.14,-0.036,-0.201,9.811,0.0,-0.01,0.0
1777734847.0145433,-4.98,-0.24,-1.14,-0.038,-0.201,9.811,0.0,0.0,0.0
1777734847.025362,-4.98,-0.24,-1.14,-0.041,-0.199,9.811,-0.01,0.0,0.0
1777734847.0345497,-4.98,-0.24,-1.14,-0.048,-0.199,9.811,0.0,0.0,0.0
1777734847.0445538,-4.98,-0.25,-1.14,-0.05,-0.198,9.811,0.0,0.0,0.0
1777734847.0547943,-4.98,-0.25,-1.14,-0.044,-0.199,9.811,-0.01,0.0,0.0
1777734847.0645592,-4.98,-0.24,-1.14,-0.041,-0.198,9.811,-0.01,-0.01,-0.01
1777734847.074544,-4.98,-0.24,-1.14,-0.037,-0.189,9.811,0.0,0.0,0.0
1777734847.0845816,-4.98,-0.24,-1.14,-0.035,-0.193,9.811,0.0,-0.01,0.0
1777734847.094568,-4.98,-0.24,-1.14,-0.036,-0.198,9.811,0.0,-0.01,-0.01
1777734847.1045663,-4.98,-0.24,-1.14,-0.036,-0.201,9.811,0.0,-0.01,-0.01
1777734847.1145658,-4.98,-0.24,-1.14,-0.035,-0.205,9.811,0.0,-0.01,-0.01
1777734847.1245124,-4.98,-0.24,-1.14,-0.037,-0.2,9.811,0.0,0.0,0.0
1777734847.134577,-4.98,-0.24,-1.14,-0.042,-0.19,9.811,0.0,0.0,0.0
1777734847.144622,-4.98,-0.24,-1.14,-0.038,-0.192,9.811,0.0,0.0,0.0
1777734847.1546094,-4.98,-0.24,-1.14,-0.038,-0.188,9.811,-0.01,0.0,0.0
1777734847.164587,-4.98,-0.24,-1.14,-0.038,-0.187,9.811,-0.01,0.0,-0.01
1777734847.1745934,-4.98,-0.24,-1.14,-0.042,-0.193,9.811,0.0,0.0,0.0
1777734847.184564,-4.98,-0.24,-1.14,-0.037,-0.193,9.811,-0.01,-0.01,0.0
1777734847.1945815,-4.98,-0.24,-1.14,-0.035,-0.195,9.811,-0.01,-0.01,0.0
1777734847.2045496,-4.98,-0.24,-1.14,-0.04,-0.189,9.811,0.0,-0.01,-0.01
1777734847.214553,-4.98,-0.24,-1.14,-0.034,-0.186,9.811,-0.01,-0.01,-0.01
1777734847.224571,-4.98,-0.24,-1.14,-0.031,-0.183,9.811,0.0,-0.01,-0.01
1777734847.2345924,-4.98,-0.24,-1.14,-0.032,-0.181,9.811,0.0,0.0,0.0
1777734847.2445734,-4.98,-0.24,-1.14,-0.034,-0.177,9.811,0.0,-0.01,0.0
1777734847.2545629,-4.98,-0.24,-1.13,-0.038,-0.175,9.811,-0.01,0.0,0.0
1777734847.2645686,-4.98,-0.24,-1.13,-0.04,-0.177,9.811,0.0,0.0,0.0
1777734847.2751524,-4.98,-0.24,-1.14,-0.041,-0.188,9.811,-0.01,-0.01,-0.01
1777734847.2845712,-4.98,-0.24,-1.14,-0.043,-0.193,9.811,-0.01,0.0,-0.01
1777734847.294547,-4.98,-0.24,-1.14,-0.041,-0.195,9.811,-0.01,0.0,-0.01
1777734847.3037546,-4.98,-0.24,-1.14,-0.041,-0.193,9.811,0.0,-0.01,0.0
1777734847.3148353,-4.98,-0.24,-1.14,-0.038,-0.196,9.811,0.0,-0.01,0.0
1777734847.3245566,-4.98,-0.24,-1.14,-0.037,-0.19,9.811,-0.01,0.0,0.0
1777734847.3355074,-4.98,-0.23,-1.14,-0.034,-0.188,9.811,0.0,-0.01,-0.01
1777734847.3437214,-4.98,-0.23,-1.14,-0.042,-0.192,9.811,0.0,0.0,-0.01
1777734847.3545823,-4.98,-0.24,-1.14,-0.044,-0.192,9.811,-0.01,0.0,-0.01
1777734847.3650074,-4.98,-0.24,-1.14,-0.046,-0.196,9.811,0.0,-0.01,0.0
1777734847.3737655,-4.98,-0.24,-1.14,-0.044,-0.194,9.811,0.0,-0.01,0.0
1777734847.384563,-4.98,-0.24,-1.14,-0.046,-0.19,9.811,-0.01,0.0,0.0
1777734847.3936563,-4.98,-0.24,-1.14,-0.047,-0.189,9.811,-0.01,-0.01,0.0
1777734847.4037402,-4.98,-0.24,-1.14,-0.048,-0.195,9.811,0.0,-0.01,-0.01
1777734847.4136183,-4.98,-0.24,-1.14,-0.049,-0.204,9.811,0.0,0.0,-0.01
1777734847.4245303,-4.98,-0.24,-1.14,-0.054,-0.21,9.811,0.0,0.0,-0.01
1777734847.4336674,-4.98,-0.24,-1.14,-0.049,-0.205,9.811,0.0,0.0,0.0
1777734847.4436805,-4.98,-0.24,-1.14,-0.044,-0.198,9.811,-0.01,-0.01,0.0
1777734847.4536393,-4.98,-0.24,-1.14,-0.044,-0.184,9.811,0.0,0.0,0.0
1777734847.4636312,-4.98,-0.24,-1.14,-0.041,-0.184,9.811,-0.01,-0.01,0.0
1777734847.4736366,-4.98,-0.24,-1.14,-0.036,-0.187,9.811,-0.01,-0.01,-0.01
1777734847.484852,-4.98,-0.24,-1.14,-0.035,-0.196,9.811,0.0,-0.01,-0.01
1777734847.4937074,-4.98,-0.24,-1.14,-0.032,-0.198,9.811,0.0,0.0,-0.01
1777734847.5036972,-4.98,-0.24,-1.14,-0.031,-0.195,9.811,0.0,0.0,0.0
1777734847.513688,-4.98,-0.24,-1.14,-0.034,-0.192,9.811,0.0,0.0,0.0
1777734847.52368,-4.98,-0.23,-1.14,-0.037,-0.192,9.811,0.0,-0.01,0.0
1777734847.5351837,-4.98,-0.24,-1.14,-0.037,-0.188,9.811,0.0,0.0,0.0
1777734847.543679,-4.98,-0.24,-1.14,-0.04,-0.189,9.811,-0.01,0.0,-0.01
1777734847.553678,-4.98,-0.24,-1.14,-0.038,-0.192,9.811,0.0,-0.01,-0.01
1777734847.5642982,-4.98,-0.24,-1.14,-0.042,-0.188,9.811,-0.01,-0.01,0.0
1777734847.5736465,-4.98,-0.23,-1.14,-0.041,-0.188,9.811,0.0,0.0,0.0
1777734847.583678,-4.98,-0.23,-1.14,-0.034,-0.189,9.811,0.0,-0.01,0.0
1777734847.5936723,-4.98,-0.23,-1.14,-0.034,-0.186,9.811,0.0,0.0,0.0
1777734847.6036742,-4.98,-0.23,-1.14,-0.03,-0.183,9.811,0.0,0.0,-0.01
1777734847.6136682,-4.98,-0.23,-1.13,-0.03,-0.188,9.811,-0.01,-0.01,-0.01
1777734847.6242127,-4.98,-0.23,-1.13,-0.04,-0.189,9.811,0.0,0.0,-0.01
1777734847.6336849,-4.98,-0.23,-1.14,-0.047,-0.192,9.811,-0.01,0.0,0.0
1777734847.6436875,-4.98,-0.23,-1.13,-0.046,-0.199,9.811,0.0,-0.01,0.0
1777734847.6536832,-4.98,-0.23,-1.14,-0.041,-0.198,9.811,0.0,-0.01,0.0
1777734847.66373,-4.98,-0.23,-1.14,-0.043,-0.192,9.811,0.0,0.0,-0.01
1777734847.673712,-4.98,-0.23,-1.13,-0.05,-0.192,9.811,-0.01,-0.01,0.0
1777734847.6845138,-4.98,-0.23,-1.14,-0.05,-0.192,9.811,0.0,-0.01,-0.01
1777734847.6937149,-4.98,-0.23,-1.14,-0.046,-0.195,9.811,0.0,-0.01,0.0
1777734847.703715,-4.98,-0.23,-1.13,-0.041,-0.201,9.811,0.0,-0.01,0.0
1777734847.714697,-4.98,-0.23,-1.14,-0.034,-0.196,9.811,0.0,-0.01,0.0
1777734847.7237961,-4.98,-0.23,-1.14,-0.032,-0.2,9.811,-0.01,0.0,0.0
1777734847.733715,-4.98,-0.23,-1.14,-0.036,-0.199,9.811,-0.01,-0.01,0.0
1777734847.74431,-4.98,-0.23,-1.14,-0.04,-0.196,9.811,0.0,0.0,0.0
1777734847.7537487,-4.98,-0.23,-1.14,-0.038,-0.196,9.811,0.0,0.0,0.0
1777734847.7637691,-4.98,-0.23,-1.14,-0.04,-0.194,9.811,-0.01,-0.01,0.0
1777734847.774297,-4.98,-0.23,-1.14,-0.038,-0.199,9.811,0.0,0.0,-0.01
1777734847.783776,-4.98,-0.23,-1.14,-0.04,-0.206,9.811,0.0,0.0,-0.01
1777734847.7937162,-4.98,-0.23,-1.14,-0.042,-0.199,9.811,0.0,-0.01,-0.01
1777734847.8036962,-4.98,-0.23,-1.14,-0.04,-0.195,9.811,0.0,0.0,-0.01
1777734847.8136833,-4.98,-0.23,-1.14,-0.04,-0.196,9.811,-0.01,-0.01,0.0
1777734847.82369,-4.98,-0.23,-1.14,-0.038,-0.195,9.811,-0.01,0.0,-0.01
1777734847.8337154,-4.98,-0.23,-1.14,-0.038,-0.199,9.811,0.0,0.0,0.0
1777734847.8436632,-4.98,-0.23,-1.14,-0.047,-0.196,9.811,-0.01,0.0,0.0
1777734847.8536499,-4.98,-0.23,-1.14,-0.049,-0.186,9.811,0.0,-0.01,0.0
1777734847.863669,-4.98,-0.24,-1.14,-0.051,-0.18,9.811,-0.01,0.0,0.0
1777734847.8736696,-4.98,-0.23,-1.14,-0.05,-0.183,9.811,0.0,0.0,0.0
1777734847.8836837,-4.98,-0.24,-1.14,-0.048,-0.188,9.811,-0.01,-0.01,0.0
1777734847.8936737,-4.98,-0.24,-1.14,-0.05,-0.184,9.811,-0.01,-0.01,0.0
1777734847.9036872,-4.98,-0.24,-1.14,-0.04,-0.183,9.811,0.0,0.0,-0.01
1777734847.9136977,-4.98,-0.24,-1.14,-0.038,-0.189,9.811,0.0,-0.01,-0.01
1777734847.9236953,-4.98,-0.23,-1.14,-0.041,-0.189,9.811,0.0,-0.01,0.0
1777734847.9336834,-4.98,-0.24,-1.14,-0.035,-0.194,9.811,0.0,-0.01,-0.01
1777734847.9436924,-4.98,-0.23,-1.14,-0.037,-0.187,9.811,0.0,0.0,-0.01
1777734847.953672,-4.98,-0.23,-1.14,-0.035,-0.187,9.811,0.0,-0.01,0.0
1777734847.9637003,-4.98,-0.23,-1.14,-0.038,-0.189,9.811,-0.01,-0.01,0.0
1777734847.9737425,-4.98,-0.23,-1.14,-0.038,-0.198,9.811,0.0,0.0,0.0
1777734847.9837365,-4.98,-0.23,-1.14,-0.04,-0.201,9.811,0.0,0.0,0.0
1777734847.9937224,-4.98,-0.23,-1.14,-0.04,-0.2,9.811,0.0,0.0,-0.01
1777734848.003771,-4.98,-0.24,-1.14,-0.043,-0.204,9.811,0.0,-0.01,-0.01
1777734848.0139139,-4.98,-0.24,-1.14,-0.044,-0.202,9.811,0.0,0.0,0.0
1777734848.024306,-4.98,-0.24,-1.14,-0.051,-0.196,9.811,0.0,-0.01,0.0
1777734848.0337179,-4.98,-0.24,-1.14,-0.049,-0.194,9.811,-0.01,0.0,0.0
1777734848.043772,-4.98,-0.24,-1.14,-0.044,-0.189,9.811,0.0,0.0,0.0
1777734848.053721,-4.98,-0.24,-1.14,-0.043,-0.184,9.811,0.0,-0.01,0.0
1777734848.063781,-4.98,-0.24,-1.14,-0.042,-0.184,9.811,0.0,-0.01,0.0
1777734848.0737455,-4.98,-0.24,-1.14,-0.048,-0.188,9.811,-0.01,0.0,0.0
1777734848.0837455,-4.98,-0.24,-1.14,-0.051,-0.194,9.811,-0.01,-0.01,-0.01
1777734848.0937176,-4.98,-0.24,-1.14,-0.05,-0.195,9.811,-0.01,0.0,0.0
1777734848.103787,-4.98,-0.24,-1.14,-0.048,-0.199,9.811,-0.01,0.0,0.0
1777734848.1137445,-4.98,-0.24,-1.14,-0.049,-0.199,9.811,0.0,0.0,-0.01
1777734848.1237156,-4.98,-0.24,-1.14,-0.048,-0.201,9.811,0.0,-0.01,0.0
1777734848.1329343,-4.98,-0.24,-1.14,-0.047,-0.201,9.811,0.0,-0.01,0.0
1777734848.1437364,-4.98,-0.24,-1.14,-0.05,-0.199,9.811,-0.01,0.0,0.0
1777734848.1528971,-4.98,-0.24,-1.14,-0.047,-0.199,9.811,0.0,0.0,0.0
1777734848.1655211,-4.98,-0.25,-1.14,-0.049,-0.196,9.811,0.0,-0.01,0.0
1777734848.1737268,-4.98,-0.25,-1.14,-0.05,-0.199,9.811,-0.01,0.0,0.0
1777734848.1829367,-4.98,-0.25,-1.14,-0.046,-0.2,9.811,0.0,-0.01,0.0
1777734848.1945167,-4.98,-0.25,-1.14,-0.044,-0.204,9.811,0.0,0.0,-0.01
1777734848.20373,-4.98,-0.25,-1.14,-0.044,-0.201,9.811,-0.01,0.0,-0.01
1777734848.212906,-4.98,-0.25,-1.14,-0.041,-0.2,9.811,0.0,0.0,0.0
1777734848.2237465,-4.98,-0.25,-1.14,-0.041,-0.195,9.811,0.0,0.0,0.0
1777734848.2329354,-4.98,-0.25,-1.14,-0.042,-0.193,9.811,-0.01,0.0,0.0
1777734848.243763,-4.98,-0.25,-1.14,-0.036,-0.193,9.811,0.0,0.0,0.0
1777734848.253738,-4.98,-0.25,-1.14,-0.035,-0.187,9.811,0.0,-0.01,0.0
1777734848.2629414,-4.98,-0.25,-1.14,-0.036,-0.188,9.811,0.0,-0.01,0.0
1777734848.273766,-4.98,-0.25,-1.14,-0.034,-0.188,9.811,0.0,0.0,0.0
1777734848.2830577,-4.98,-0.24,-1.14,-0.036,-0.199,9.811,-0.01,0.0,-0.01
1777734848.292913,-4.98,-0.24,-1.14,-0.038,-0.198,9.811,0.0,-0.01,-0.01
1777734848.3030052,-4.98,-0.24,-1.14,-0.035,-0.198,9.811,-0.01,-0.01,-0.01
1777734848.31291,-4.98,-0.24,-1.14,-0.034,-0.201,9.811,-0.01,0.0,0.0
1777734848.32294,-4.98,-0.24,-1.14,-0.03,-0.2,9.811,0.0,0.0,0.0
1777734848.333003,-4.98,-0.24,-1.14,-0.034,-0.201,9.811,-0.01,-0.01,0.0
1777734848.3446424,-4.98,-0.24,-1.14,-0.037,-0.194,9.811,0.0,0.0,0.0
1777734848.3529036,-4.98,-0.24,-1.14,-0.04,-0.196,9.811,-0.01,0.0,0.0
1777734848.362952,-4.98,-0.24,-1.14,-0.042,-0.194,9.811,0.0,0.0,-0.01
1777734848.3743598,-4.98,-0.24,-1.14,-0.044,-0.19,9.811,-0.01,0.0,-0.01
1777734848.3828187,-4.98,-0.24,-1.14,-0.042,-0.193,9.811,-0.01,-0.01,0.0
1777734848.3928561,-4.98,-0.24,-1.14,-0.044,-0.194,9.811,0.0,-0.01,0.0
1777734848.4028203,-4.98,-0.24,-1.14,-0.041,-0.192,9.811,0.0,-0.01,0.0
1777734848.412849,-4.98,-0.24,-1.14,-0.036,-0.19,9.811,0.0,0.0,0.0
1777734848.422841,-4.98,-0.24,-1.14,-0.035,-0.189,9.811,0.0,-0.01,-0.01
1777734848.4328272,-4.98,-0.24,-1.14,-0.035,-0.194,9.811,0.0,-0.01,0.0
1777734848.4428172,-4.98,-0.24,-1.14,-0.032,-0.19,9.811,-0.01,0.0,0.0
1777734848.4528592,-4.98,-0.24,-1.14,-0.034,-0.188,9.811,-0.01,0.0,0.0
1777734848.4628348,-4.98,-0.24,-1.14,-0.032,-0.188,9.811,0.0,0.0,0.0
1777734848.4728456,-4.98,-0.24,-1.14,-0.035,-0.192,9.811,-0.01,0.0,0.0
1777734848.4828324,-4.98,-0.24,-1.14,-0.041,-0.192,9.811,-0.01,0.0,0.0
1777734848.492836,-4.99,-0.24,-1.14,-0.04,-0.192,9.811,-0.01,-0.01,0.0
1777734848.5028267,-4.99,-0.24,-1.14,-0.036,-0.196,9.811,0.0,-0.01,0.0
1777734848.5128477,-4.99,-0.24,-1.14,-0.041,-0.19,9.811,0.0,-0.01,0.0
1777734848.5228462,-4.99,-0.24,-1.14,-0.042,-0.189,9.811,-0.01,-0.01,0.0
1777734848.5328405,-4.99,-0.24,-1.14,-0.038,-0.186,9.811,0.0,-0.01,0.0
1777734848.5428402,-4.99,-0.24,-1.14,-0.037,-0.18,9.811,0.0,0.0,0.0
1777734848.5528681,-4.99,-0.24,-1.14,-0.036,-0.184,9.811,-0.01,0.0,-0.01
1777734848.5628831,-4.98,-0.24,-1.14,-0.042,-0.188,9.811,-0.01,-0.01,-0.01
1777734848.5728624,-4.98,-0.24,-1.14,-0.043,-0.184,9.811,0.0,0.0,-0.01
1777734848.5828202,-4.98,-0.24,-1.14,-0.041,-0.184,9.811,-0.01,-0.01,-0.01
1777734848.5928724,-4.98,-0.24,-1.14,-0.043,-0.187,9.811,0.0,-0.01,-0.01
1777734848.6028452,-4.98,-0.24,-1.14,-0.042,-0.193,9.811,0.0,0.0,0.0
1777734848.6128252,-4.98,-0.24,-1.14,-0.042,-0.198,9.811,0.0,0.0,0.0
1777734848.6228168,-4.98,-0.24,-1.14,-0.044,-0.194,9.811,0.0,-0.01,0.0
1777734848.6328528,-4.98,-0.24,-1.14,-0.042,-0.195,9.811,-0.01,-0.01,0.0
1777734848.6428294,-4.98,-0.24,-1.14,-0.036,-0.202,9.811,0.0,-0.01,0.0
1777734848.6529403,-4.98,-0.24,-1.14,-0.029,-0.198,9.811,-0.01,0.0,-0.01
1777734848.662835,-4.98,-0.24,-1.14,-0.028,-0.204,9.811,-0.01,-0.01,0.0
1777734848.6728747,-4.98,-0.24,-1.14,-0.035,-0.204,9.811,0.0,-0.01,0.0
1777734848.6828291,-4.98,-0.24,-1.14,-0.037,-0.204,9.811,0.0,0.0,0.0
1777734848.693556,-4.98,-0.24,-1.14,-0.037,-0.199,9.811,0.0,0.0,0.0
1777734848.7029078,-4.98,-0.24,-1.14,-0.043,-0.193,9.811,-0.01,0.0,-0.01
1777734848.7128448,-4.98,-0.24,-1.14,-0.046,-0.201,9.811,0.0,0.0,-0.01
1777734848.7228928,-4.98,-0.24,-1.14,-0.043,-0.201,9.811,-0.01,0.0,-0.01
1777734848.7328687,-4.98,-0.24,-1.14,-0.043,-0.208,9.811,0.0,0.0,-0.01
1777734848.743862,-4.98,-0.24,-1.14,-0.048,-0.205,9.811,0.0,-0.01,-0.01
1777734848.7528677,-4.98,-0.24,-1.14,-0.038,-0.198,9.811,-0.01,-0.01,0.0
1777734848.7628722,-4.98,-0.24,-1.14,-0.036,-0.184,9.811,0.0,-0.01,0.0
1777734848.7728765,-4.98,-0.24,-1.14,-0.03,-0.181,9.811,0.0,0.0,0.0
1777734848.7828507,-4.99,-0.24,-1.14,-0.034,-0.181,9.811,0.0,0.0,0.0
1777734848.7928755,-4.98,-0.24,-1.14,-0.036,-0.184,9.811,-0.01,0.0,0.0
1777734848.803017,-4.98,-0.24,-1.14,-0.036,-0.192,9.811,0.0,0.0,-0.01
1777734848.812887,-4.98,-0.24,-1.14,-0.043,-0.195,9.811,-0.01,0.0,-0.01
1777734848.8228545,-4.98,-0.24,-1.14,-0.049,-0.199,9.811,0.0,0.0,-0.01
1777734848.8328674,-4.98,-0.24,-1.14,-0.05,-0.202,9.811,-0.01,-0.01,0.0
1777734848.842903,-4.99,-0.25,-1.14,-0.042,-0.198,9.811,0.0,0.0,0.0
1777734848.85286,-4.99,-0.24,-1.14,-0.043,-0.19,9.811,0.0,0.0,0.0
1777734848.8628893,-4.99,-0.24,-1.14,-0.041,-0.183,9.811,0.0,0.0,0.0
1777734848.8728585,-4.99,-0.24,-1.14,-0.043,-0.181,9.811,-0.01,0.0,0.0
1777734848.882845,-4.99,-0.24,-1.14,-0.036,-0.186,9.811,0.0,-0.01,-0.01
1777734848.8928914,-4.99,-0.24,-1.14,-0.037,-0.187,9.811,-0.01,-0.01,0.0
1777734848.902945,-4.99,-0.24,-1.14,-0.032,-0.195,9.811,-0.01,0.0,0.0
1777734848.912894,-4.99,-0.24,-1.14,-0.036,-0.199,9.811,-0.01,0.0,0.0
1777734848.92293,-4.99,-0.24,-1.14,-0.044,-0.204,9.811,-0.01,0.0,0.0
1777734848.93288,-4.99,-0.25,-1.14,-0.047,-0.196,9.811,0.0,0.0,0.0
1777734848.9428728,-4.99,-0.25,-1.14,-0.046,-0.194,9.811,0.0,-0.01,-0.01
1777734848.952946,-4.99,-0.25,-1.14,-0.047,-0.19,9.811,0.0,0.0,-0.01
1777734848.9643621,-4.99,-0.25,-1.14,-0.038,-0.19,9.811,0.0,0.0,0.0
1777734848.9730048,-4.99,-0.25,-1.14,-0.037,-0.186,9.811,0.0,0.0,0.0
1777734848.983152,-4.99,-0.25,-1.14,-0.034,-0.184,9.811,0.0,0.0,0.0
1777734848.992902,-4.99,-0.25,-1.14,-0.036,-0.182,9.811,0.0,0.0,0.0
1777734849.0029266,-4.99,-0.25,-1.14,-0.032,-0.19,9.811,0.0,0.0,-0.01
1777734849.0128827,-4.99,-0.25,-1.14,-0.031,-0.193,9.811,-0.01,0.0,0.0
1777734849.0234594,-4.99,-0.25,-1.14,-0.035,-0.196,9.811,0.0,0.0,0.0
1777734849.0329144,-4.99,-0.25,-1.14,-0.036,-0.199,9.811,-0.01,-0.01,0.0
1777734849.0428987,-4.99,-0.25,-1.14,-0.04,-0.196,9.811,0.0,0.0,0.0
1777734849.0528917,-4.99,-0.25,-1.14,-0.037,-0.194,9.811,0.0,0.0,0.0
1777734849.0629106,-4.99,-0.25,-1.14,-0.038,-0.19,9.811,0.0,0.0,-0.01
1777734849.0728686,-4.99,-0.25,-1.14,-0.035,-0.193,9.811,-0.01,0.0,0.0
1777734849.082978,-4.99,-0.25,-1.14,-0.036,-0.192,9.811,0.0,0.0,0.0
1777734849.0929012,-4.99,-0.25,-1.14,-0.036,-0.19,9.811,-0.01,0.0,0.0
1777734849.1020412,-4.99,-0.25,-1.14,-0.029,-0.193,9.811,0.0,0.0,0.0
1777734849.1129165,-4.99,-0.25,-1.14,-0.025,-0.199,9.811,-0.01,0.0,-0.01
1777734849.1229143,-4.99,-0.24,-1.14,-0.029,-0.202,9.811,0.0,0.0,-0.01
1777734849.132034,-4.99,-0.25,-1.14,-0.037,-0.202,9.811,0.0,0.0,-0.01
1777734849.142051,-4.99,-0.25,-1.14,-0.043,-0.202,9.811,-0.01,0.0,-0.01
1777734849.152898,-4.99,-0.25,-1.14,-0.042,-0.199,9.811,0.0,0.0,0.0
1777734849.1620429,-4.99,-0.25,-1.14,-0.041,-0.195,9.811,-0.01,-0.01,0.0
1777734849.1729913,-4.99,-0.25,-1.14,-0.044,-0.193,9.811,0.0,0.0,0.0
1777734849.182053,-4.99,-0.25,-1.14,-0.046,-0.19,9.811,-0.01,-0.01,-0.01
1777734849.192208,-4.99,-0.25,-1.14,-0.04,-0.19,9.811,0.0,-0.01,0.0
1777734849.202061,-4.99,-0.25,-1.14,-0.04,-0.194,9.811,-0.01,-0.01,-0.01
1777734849.212057,-4.99,-0.25,-1.14,-0.043,-0.192,9.811,0.0,0.0,-0.01
1777734849.2225285,-4.99,-0.25,-1.14,-0.044,-0.194,9.811,0.0,-0.01,0.0
1777734849.232041,-4.99,-0.25,-1.14,-0.047,-0.194,9.811,-0.01,-0.01,0.0
1777734849.2419853,-4.99,-0.25,-1.14,-0.044,-0.196,9.811,0.0,0.0,0.0
1777734849.252004,-4.99,-0.25,-1.14,-0.046,-0.196,9.811,0.0,-0.01,0.0
1777734849.2619967,-4.99,-0.25,-1.14,-0.04,-0.192,9.811,-0.01,0.0,0.0
1777734849.272021,-4.99,-0.25,-1.14,-0.035,-0.189,9.811,0.0,0.0,0.0
1777734849.282065,-4.99,-0.25,-1.14,-0.043,-0.194,9.811,-0.01,0.0,0.0
1777734849.292009,-4.99,-0.25,-1.14,-0.043,-0.196,9.811,0.0,0.0,0.0
1777734849.3020027,-4.99,-0.25,-1.14,-0.038,-0.194,9.811,-0.01,-0.01,-0.01
1777734849.3132377,-4.99,-0.25,-1.14,-0.034,-0.193,9.811,-0.01,0.0,-0.01
1777734849.3219995,-5.0,-0.25,-1.14,-0.032,-0.183,9.811,-0.01,0.0,0.0
1777734849.331986,-5.0,-0.25,-1.14,-0.035,-0.182,9.811,-0.01,-0.01,0.0
1777734849.3420064,-5.0,-0.25,-1.14,-0.04,-0.187,9.811,-0.01,0.0,0.0
1777734849.3520002,-4.99,-0.25,-1.14,-0.042,-0.192,9.811,-0.01,0.0,-0.01
1777734849.3622038,-4.99,-0.25,-1.14,-0.043,-0.2,9.811,0.0,0.0,-0.01
1777734849.3726974,-4.99,-0.25,-1.14,-0.048,-0.207,9.811,0.0,-0.01,-0.01
1777734849.3821018,-4.99,-0.25,-1.14,-0.044,-0.202,9.811,0.0,0.0,-0.01
1777734849.392499,-4.99,-0.25,-1.14,-0.038,-0.195,9.811,0.0,-0.01,0.0
1777734849.4021564,-4.99,-0.25,-1.14,-0.036,-0.188,9.811,-0.01,-0.01,0.0
1777734849.4121475,-4.99,-0.25,-1.14,-0.036,-0.188,9.811,0.0,0.0,0.0
1777734849.4221683,-4.99,-0.25,-1.14,-0.034,-0.188,9.811,0.0,-0.01,-0.01
1777734849.4321067,-4.99,-0.25,-1.14,-0.037,-0.19,9.811,0.0,0.0,-0.01
1777734849.4422107,-4.99,-0.25,-1.14,-0.043,-0.192,9.811,-0.01,0.0,0.0
1777734849.4524016,-4.99,-0.25,-1.14,-0.037,-0.196,9.811,0.0,0.0,0.0
1777734849.4620597,-4.99,-0.25,-1.14,-0.036,-0.196,9.811,0.0,0.0,-0.01
1777734849.4721684,-4.99,-0.25,-1.14,-0.043,-0.194,9.811,0.0,0.0,0.0
1777734849.4823306,-4.99,-0.25,-1.14,-0.042,-0.198,9.811,0.0,0.0,0.0
1777734849.4920783,-4.99,-0.25,-1.14,-0.044,-0.196,9.811,0.0,-0.01,0.0
1777734849.502045,-4.99,-0.25,-1.14,-0.046,-0.193,9.811,-0.01,0.0,0.0
1777734849.5122745,-4.99,-0.25,-1.14,-0.047,-0.193,9.811,0.0,-0.01,0.0
1777734849.5220687,-4.99,-0.25,-1.14,-0.048,-0.194,9.811,-0.01,-0.01,-0.01
1777734849.5328155,-4.99,-0.25,-1.14,-0.043,-0.199,9.811,-0.01,0.0,-0.01
1777734849.5420907,-4.99,-0.25,-1.14,-0.04,-0.196,9.811,-0.01,0.0,-0.01
1777734849.552083,-4.99,-0.25,-1.14,-0.04,-0.196,9.811,-0.01,-0.01,0.0
1777734849.562226,-4.99,-0.25,-1.14,-0.04,-0.192,9.811,-0.01,-0.01,0.0
1777734849.5720723,-4.99,-0.25,-1.14,-0.047,-0.193,9.811,0.0,0.0,0.0
1777734849.5823746,-4.99,-0.25,-1.14,-0.042,-0.193,9.811,0.0,0.0,-0.01
1777734849.5976794,-4.99,-0.25,-1.14,-0.04,-0.192,9.811,-0.01,0.0,-0.01
1777734849.603223,-4.99,-0.25,-1.14,-0.042,-0.194,9.811,0.0,0.0,-0.01
1777734849.6212049,-4.99,-0.25,-1.14,-0.041,-0.198,9.811,0.0,0.0,-0.01
1777734849.6220853,-4.99,-0.25,-1.14,-0.044,-0.201,9.811,0.0,-0.01,-0.01
1777734849.632023,-4.99,-0.25,-1.14,-0.048,-0.195,9.811,0.0,-0.01,0.0
1777734849.6420205,-4.99,-0.25,-1.14,-0.043,-0.198,9.811,-0.01,-0.01,0.0
1777734849.6520355,-4.99,-0.25,-1.14,-0.041,-0.195,9.811,-0.01,-0.01,-0.01
1777734849.6620343,-4.99,-0.25,-1.14,-0.04,-0.193,9.811,0.0,-0.01,0.0
1777734849.6720307,-4.99,-0.25,-1.14,-0.04,-0.192,9.811,0.0,-0.01,0.0
1777734849.6820176,-4.99,-0.25,-1.14,-0.038,-0.19,9.811,0.0,0.0,-0.01
1777734849.69206,-4.99,-0.25,-1.14,-0.034,-0.192,9.811,0.0,0.0,0.0
1777734849.7020123,-4.99,-0.25,-1.14,-0.04,-0.195,9.811,0.0,0.0,0.0
1777734849.712048,-4.99,-0.25,-1.14,-0.043,-0.195,9.811,0.0,0.0,0.0
1777734849.7220244,-4.99,-0.25,-1.14,-0.044,-0.19,9.811,0.0,0.0,0.0
1777734849.7320533,-4.99,-0.25,-1.14,-0.042,-0.195,9.811,0.0,0.0,-0.01
1777734849.7420392,-4.99,-0.25,-1.14,-0.04,-0.196,9.811,-0.01,0.0,0.0
1777734849.7520654,-4.99,-0.25,-1.14,-0.038,-0.193,9.811,0.0,0.0,0.0
1777734849.7620542,-4.99,-0.25,-1.14,-0.043,-0.189,9.811,-0.01,-0.01,-0.01
1777734849.7720578,-4.99,-0.25,-1.14,-0.038,-0.187,9.811,0.0,-0.01,0.0
1777734849.7820656,-4.99,-0.25,-1.14,-0.037,-0.181,9.811,-0.01,-0.01,-0.01
1777734849.7920659,-4.99,-0.25,-1.14,-0.048,-0.186,9.811,0.0,-0.01,0.0
1777734849.8020418,-4.99,-0.25,-1.14,-0.043,-0.188,9.811,0.0,-0.01,0.0
1777734849.8120823,-4.99,-0.25,-1.14,-0.042,-0.184,9.811,0.0,-0.01,0.0
1777734849.8220723,-4.99,-0.25,-1.14,-0.046,-0.189,9.811,0.0,-0.01,0.0
1777734849.8320951,-4.99,-0.25,-1.14,-0.051,-0.187,9.811,0.0,0.0,0.0
1777734849.8420897,-4.99,-0.25,-1.14,-0.048,-0.188,9.811,-0.01,-0.01,0.0
1777734849.8520586,-4.99,-0.25,-1.14,-0.049,-0.188,9.811,-0.01,-0.01,0.0
1777734849.862043,-4.99,-0.25,-1.14,-0.041,-0.194,9.811,0.0,0.0,0.0
1777734849.8722696,-4.99,-0.25,-1.14,-0.041,-0.194,9.811,0.0,0.0,0.0
1777734849.8820505,-4.99,-0.25,-1.14,-0.04,-0.189,9.811,0.0,0.0,0.0
1777734849.892039,-4.99,-0.25,-1.14,-0.038,-0.198,9.811,0.0,0.0,-0.01
1777734849.9020612,-4.99,-0.25,-1.14,-0.041,-0.2,9.811,0.0,0.0,-0.01
1777734849.9120555,-4.99,-0.25,-1.14,-0.042,-0.196,9.811,-0.01,0.0,0.0
1777734849.92145,-4.99,-0.25,-1.14,-0.043,-0.198,9.811,0.0,-0.01,0.0
1777734849.9320726,-4.99,-0.25,-1.14,-0.037,-0.195,9.811,-0.01,0.0,0.0
1777734849.9420586,-4.99,-0.25,-1.14,-0.04,-0.186,9.811,-0.01,0.0,0.0
1777734849.9520502,-4.99,-0.25,-1.14,-0.046,-0.181,9.811,0.0,0.0,-0.01
1777734849.9620945,-4.99,-0.25,-1.14,-0.047,-0.183,9.811,0.0,-0.01,0.0
1777734849.9720676,-4.99,-0.25,-1.14,-0.048,-0.186,9.811,0.0,-0.01,0.0
1777734849.9812248,-4.99,-0.25,-1.14,-0.044,-0.195,9.811,-0.01,0.0,0.0
1777734849.9912133,-4.99,-0.25,-1.14,-0.047,-0.199,9.811,-0.01,0.0,-0.01
1777734850.0012016,-4.99,-0.25,-1.14,-0.049,-0.201,9.811,-0.01,0.0,0.0
1777734850.012078,-4.99,-0.25,-1.14,-0.051,-0.198,9.811,-0.01,-0.01,0.0
1777734850.0212023,-4.99,-0.25,-1.14,-0.047,-0.196,9.811,0.0,0.0,0.0
1777734850.03208,-4.99,-0.25,-1.14,-0.047,-0.19,9.811,0.0,0.0,-0.01
1777734850.0411675,-4.99,-0.25,-1.14,-0.047,-0.187,9.811,0.0,-0.01,0.0
1777734850.0520837,-4.99,-0.25,-1.14,-0.043,-0.194,9.811,0.0,0.0,0.0
1777734850.061235,-4.99,-0.25,-1.14,-0.043,-0.196,9.811,-0.01,0.0,0.0
1777734850.0711997,-4.99,-0.25,-1.14,-0.041,-0.192,9.811,0.0,0.0,-0.01
1777734850.0812237,-4.99,-0.25,-1.14,-0.04,-0.19,9.811,0.0,-0.01,0.0
1777734850.091236,-4.99,-0.25,-1.14,-0.04,-0.186,9.811,0.0,-0.01,0.0
1777734850.101218,-4.99,-0.25,-1.14,-0.041,-0.19,9.811,0.0,-0.01,0.0
1777734850.111264,-4.99,-0.25,-1.14,-0.038,-0.189,9.811,0.0,-0.01,0.0
1777734850.1212738,-4.99,-0.25,-1.14,-0.038,-0.193,9.811,0.0,0.0,-0.01
1777734850.1312714,-4.99,-0.25,-1.14,-0.037,-0.188,9.811,0.0,0.0,-0.01
1777734850.1412365,-4.99,-0.25,-1.14,-0.04,-0.187,9.811,-0.01,0.0,0.0
1777734850.151296,-4.99,-0.25,-1.14,-0.048,-0.195,9.811,-0.01,0.0,0.0
1777734850.1612382,-4.99,-0.25,-1.14,-0.05,-0.195,9.811,0.0,0.0,0.0
1777734850.1712177,-4.99,-0.25,-1.14,-0.05,-0.201,9.811,-0.01,0.0,0.0
1777734850.1812193,-4.99,-0.25,-1.14,-0.05,-0.196,9.811,0.0,-0.01,0.0
1777734850.1912358,-4.99,-0.25,-1.14,-0.049,-0.187,9.811,0.0,0.0,0.0
1777734850.2012076,-4.99,-0.25,-1.14,-0.043,-0.188,9.811,-0.01,0.0,0.0
1777734850.2112389,-4.99,-0.25,-1.14,-0.041,-0.182,9.811,0.0,-0.01,0.0
1777734850.2212296,-4.99,-0.25,-1.14,-0.04,-0.18,9.811,-0.01,-0.01,0.0
1777734850.2312021,-4.99,-0.25,-1.14,-0.032,-0.182,9.811,-0.01,0.0,-0.01
1777734850.2412024,-4.99,-0.25,-1.14,-0.032,-0.184,9.811,-0.01,-0.01,0.0
1777734850.2512052,-4.99,-0.25,-1.14,-0.035,-0.194,9.811,-0.01,0.0,0.0
1777734850.261249,-4.99,-0.25,-1.14,-0.04,-0.196,9.811,-0.01,0.0,0.0
1777734850.2712579,-4.99,-0.25,-1.14,-0.038,-0.194,9.811,-0.01,-0.01,0.0
1777734850.2812083,-4.99,-0.25,-1.14,-0.044,-0.192,9.811,0.0,0.0,0.0
1777734850.29144,-4.99,-0.25,-1.14,-0.046,-0.184,9.811,0.0,0.0,0.0
1777734850.301219,-4.99,-0.25,-1.14,-0.044,-0.189,9.811,0.0,0.0,0.0
1777734850.3112185,-4.99,-0.25,-1.14,-0.036,-0.193,9.811,0.0,-0.01,-0.01
1777734850.3212035,-4.99,-0.25,-1.14,-0.034,-0.199,9.811,0.0,0.0,-0.01
1777734850.3312294,-4.99,-0.25,-1.14,-0.032,-0.196,9.811,0.0,0.0,-0.01
1777734850.3412216,-4.99,-0.25,-1.14,-0.036,-0.196,9.811,-0.01,-0.01,-0.01
1777734850.3512223,-4.99,-0.25,-1.14,-0.044,-0.199,9.811,0.0,0.0,0.0
1777734850.3612142,-4.99,-0.25,-1.14,-0.047,-0.192,9.811,0.0,0.0,0.0
1777734850.371244,-4.99,-0.25,-1.14,-0.046,-0.192,9.811,0.0,-0.01,0.0
1777734850.3812199,-4.99,-0.25,-1.14,-0.048,-0.19,9.811,0.0,0.0,0.0
1777734850.3912072,-4.99,-0.26,-1.14,-0.053,-0.195,9.811,-0.01,0.0,0.0
1777734850.4012032,-4.99,-0.26,-1.14,-0.051,-0.196,9.811,0.0,-0.01,-0.01
1777734850.4112399,-4.99,-0.26,-1.14,-0.047,-0.198,9.811,0.0,0.0,-0.01
1777734850.42121,-4.99,-0.25,-1.14,-0.042,-0.202,9.811,0.0,0.0,0.0
1777734850.4312513,-4.99,-0.25,-1.14,-0.042,-0.2,9.811,0.0,-0.01,0.0
1777734850.441208,-4.99,-0.25,-1.14,-0.04,-0.196,9.811,0.0,0.0,0.0
1777734850.4512186,-4.99,-0.25,-1.14,-0.037,-0.196,9.811,0.0,0.0,-0.01
1777734850.4612164,-4.99,-0.25,-1.14,-0.041,-0.196,9.811,0.0,0.0,-0.01
1777734850.4712229,-4.99,-0.25,-1.14,-0.044,-0.195,9.811,0.0,0.0,0.0
1777734850.4811954,-4.99,-0.25,-1.14,-0.044,-0.194,9.811,0.0,0.0,0.0
1777734850.491237,-4.99,-0.25,-1.14,-0.035,-0.195,9.811,0.0,0.0,0.0
1777734850.5012062,-4.99,-0.25,-1.14,-0.04,-0.198,9.811,0.0,0.0,0.0
1777734850.5112355,-4.99,-0.25,-1.14,-0.042,-0.196,9.811,0.0,0.0,0.0
1777734850.5212343,-4.99,-0.25,-1.14,-0.042,-0.2,9.811,-0.01,-0.01,-0.01
1777734850.5312474,-4.99,-0.25,-1.14,-0.044,-0.199,9.811,0.0,-0.01,0.0
1777734850.541246,-4.99,-0.25,-1.14,-0.042,-0.198,9.811,0.0,-0.01,0.0
1777734850.5512393,-4.99,-0.25,-1.14,-0.042,-0.201,9.811,0.0,-0.01,0.0
1777734850.5612538,-4.99,-0.25,-1.14,-0.035,-0.198,9.811,0.0,0.0,0.0
1777734850.5712578,-4.99,-0.25,-1.14,-0.034,-0.201,9.811,-0.01,-0.01,0.0
1777734850.5812495,-4.99,-0.25,-1.14,-0.032,-0.206,9.811,0.0,-0.01,-0.01
1777734850.5912669,-4.99,-0.25,-1.14,-0.04,-0.212,9.811,0.0,0.0,0.0
1777734850.6012373,-5.0,-0.25,-1.14,-0.044,-0.205,9.811,0.0,0.0,0.0
1777734850.611267,-5.0,-0.25,-1.14,-0.044,-0.204,9.811,-0.01,-0.01,0.0
1777734850.6213322,-5.0,-0.25,-1.14,-0.04,-0.201,9.811,0.0,-0.01,0.0
1777734850.6312788,-5.0,-0.25,-1.14,-0.041,-0.201,9.811,0.0,0.0,0.0
1777734850.6415184,-5.0,-0.25,-1.14,-0.046,-0.2,9.811,0.0,0.0,0.0
1777734850.6512508,-5.0,-0.25,-1.14,-0.05,-0.2,9.811,0.0,0.0,-0.01
1777734850.6613512,-5.0,-0.25,-1.14,-0.051,-0.195,9.811,0.0,0.0,-0.01
1777734850.6712534,-5.0,-0.26,-1.14,-0.038,-0.192,9.811,-0.01,-0.01,0.0
1777734850.6812475,-5.0,-0.25,-1.14,-0.038,-0.192,9.811,0.0,0.0,-0.01
1777734850.6912882,-5.0,-0.25,-1.14,-0.036,-0.186,9.811,0.0,0.0,0.0
1777734850.70136,-5.0,-0.25,-1.14,-0.038,-0.186,9.811,-0.01,0.0,0.0
1777734850.7112286,-4.99,-0.25,-1.14,-0.038,-0.189,9.811,-0.01,0.0,-0.01
1777734850.7213573,-4.99,-0.25,-1.14,-0.038,-0.192,9.811,0.0,0.0,-0.01
1777734850.731304,-4.99,-0.25,-1.14,-0.04,-0.192,9.811,0.0,0.0,-0.01
1777734850.7413712,-4.99,-0.25,-1.14,-0.04,-0.189,9.811,-0.01,0.0,0.0
1777734850.7512639,-4.99,-0.25,-1.14,-0.037,-0.192,9.811,0.0,0.0,0.0
1777734850.7603986,-4.99,-0.25,-1.14,-0.04,-0.195,9.811,0.0,-0.01,0.0
1777734850.7712996,-4.99,-0.25,-1.14,-0.038,-0.19,9.811,-0.01,0.0,0.0
1777734850.781297,-4.99,-0.25,-1.14,-0.034,-0.195,9.811,0.0,0.0,-0.01
1777734850.7912374,-4.99,-0.25,-1.14,-0.031,-0.195,9.811,0.0,0.0,-0.01
1777734850.800669,-4.99,-0.25,-1.14,-0.031,-0.193,9.811,-0.01,-0.01,-0.01
1777734850.8113284,-4.99,-0.25,-1.14,-0.036,-0.193,9.811,-0.01,0.0,-0.01
1777734850.8213816,-4.99,-0.25,-1.14,-0.037,-0.187,9.811,0.0,0.0,0.0
1777734850.831258,-4.99,-0.25,-1.14,-0.036,-0.183,9.811,-0.01,-0.01,-0.01
1777734850.8416016,-4.99,-0.25,-1.14,-0.04,-0.188,9.811,-0.01,-0.01,0.0
1777734850.85045,-4.99,-0.25,-1.14,-0.041,-0.201,9.811,0.0,0.0,0.0
1777734850.8603864,-4.99,-0.25,-1.14,-0.036,-0.198,9.811,0.0,-0.01,-0.01
1777734850.8713024,-4.99,-0.25,-1.14,-0.034,-0.189,9.811,-0.01,-0.01,0.0
1777734850.881275,-4.99,-0.25,-1.14,-0.034,-0.192,9.811,-0.01,-0.01,0.0
1777734850.890452,-4.99,-0.25,-1.14,-0.036,-0.195,9.811,0.0,0.0,0.0
1777734850.9012568,-4.99,-0.25,-1.14,-0.041,-0.189,9.811,-0.01,0.0,0.0
1777734850.9103892,-4.99,-0.25,-1.14,-0.038,-0.194,9.811,-0.01,0.0,0.0
1777734850.9206696,-4.99,-0.25,-1.14,-0.037,-0.2,9.811,-0.01,-0.01,-0.01
1777734850.9312594,-4.99,-0.25,-1.14,-0.04,-0.199,9.811,0.0,0.0,0.0
1777734850.9403777,-4.99,-0.25,-1.14,-0.043,-0.198,9.811,0.0,0.0,0.0
1777734850.9504066,-4.99,-0.25,-1.14,-0.043,-0.193,9.811,0.0,-0.01,0.0
1777734850.9604166,-4.99,-0.25,-1.14,-0.043,-0.184,9.811,0.0,0.0,0.0
1777734850.970402,-4.99,-0.25,-1.14,-0.044,-0.181,9.811,-0.01,-0.01,0.0
1777734850.9803987,-4.99,-0.25,-1.13,-0.04,-0.183,9.811,0.0,0.0,0.0
1777734850.9904754,-4.99,-0.25,-1.13,-0.038,-0.188,9.811,0.0,0.0,-0.01
1777734851.0003855,-4.99,-0.25,-1.13,-0.036,-0.189,9.811,0.0,0.0,-0.01
1777734851.010386,-4.99,-0.25,-1.13,-0.037,-0.195,9.811,0.0,0.0,-0.01
1777734851.020377,-4.99,-0.25,-1.13,-0.035,-0.195,9.811,0.0,0.0,-0.01
1777734851.0304654,-4.99,-0.25,-1.13,-0.036,-0.201,9.811,0.0,-0.01,0.0
1777734851.0403895,-4.99,-0.25,-1.14,-0.035,-0.198,9.811,0.0,0.0,0.0
1777734851.0503712,-4.99,-0.25,-1.14,-0.035,-0.196,9.811,0.0,-0.01,0.0
1777734851.060413,-4.99,-0.25,-1.14,-0.034,-0.194,9.811,0.0,-0.01,0.0
1777734851.0704224,-4.99,-0.25,-1.14,-0.032,-0.198,9.811,-0.01,0.0,-0.01
1777734851.0804226,-4.99,-0.25,-1.14,-0.032,-0.208,9.811,-0.01,-0.01,-0.01
1777734851.0903897,-4.99,-0.25,-1.14,-0.035,-0.204,9.811,-0.01,0.0,0.0
1777734851.100453,-4.99,-0.25,-1.14,-0.036,-0.206,9.811,0.0,0.0,0.0
1777734851.110396,-4.99,-0.25,-1.14,-0.041,-0.204,9.811,0.0,-0.01,0.0
1777734851.1203637,-4.99,-0.25,-1.14,-0.042,-0.198,9.811,0.0,0.0,0.0
1777734851.1303978,-4.99,-0.25,-1.14,-0.038,-0.199,9.811,0.0,0.0,0.0
1777734851.1404533,-4.99,-0.25,-1.14,-0.037,-0.196,9.811,0.0,0.0,0.0
1777734851.150526,-4.99,-0.25,-1.14,-0.037,-0.19,9.811,0.0,0.0,-0.01
1777734851.160405,-4.99,-0.25,-1.14,-0.043,-0.195,9.811,0.0,-0.01,-0.01
1777734851.1704283,-4.99,-0.25,-1.14,-0.053,-0.196,9.811,-0.01,0.0,-0.01
1777734851.1804175,-4.99,-0.25,-1.14,-0.057,-0.2,9.811,0.0,0.0,0.0
1777734851.1904082,-4.99,-0.25,-1.14,-0.053,-0.202,9.811,0.0,0.0,0.0
1777734851.200389,-4.99,-0.25,-1.14,-0.05,-0.204,9.811,0.0,-0.01,0.0
1777734851.2104666,-4.99,-0.25,-1.14,-0.047,-0.201,9.811,0.0,0.0,0.0
1777734851.220416,-4.99,-0.25,-1.14,-0.046,-0.196,9.811,0.0,-0.01,0.0
1777734851.230387,-4.99,-0.25,-1.14,-0.041,-0.199,9.811,0.0,0.0,-0.01
1777734851.2404032,-4.99,-0.25,-1.14,-0.042,-0.196,9.811,-0.01,0.0,-0.01
1777734851.25047,-4.99,-0.25,-1.14,-0.044,-0.196,9.811,-0.01,0.0,0.0
1777734851.2603984,-4.99,-0.25,-1.14,-0.049,-0.196,9.811,0.0,0.0,0.0
1777734851.2704327,-4.99,-0.25,-1.14,-0.048,-0.202,9.811,-0.01,0.0,0.0
1777734851.2804039,-4.99,-0.25,-1.14,-0.048,-0.201,9.811,0.0,0.0,0.0
1777734851.2904856,-4.99,-0.25,-1.14,-0.046,-0.2,9.811,-0.01,0.0,-0.01
1777734851.3004222,-4.99,-0.25,-1.14,-0.046,-0.193,9.811,0.0,0.0,0.0
1777734851.3103995,-4.99,-0.25,-1.14,-0.043,-0.186,9.811,0.0,-0.01,0.0
1777734851.3204823,-4.99,-0.25,-1.14,-0.043,-0.189,9.811,-0.01,-0.01,0.0
1777734851.3304286,-4.99,-0.25,-1.14,-0.046,-0.188,9.811,0.0,-0.01,0.0
1777734851.3404105,-4.99,-0.25,-1.14,-0.047,-0.187,9.811,0.0,0.0,0.0
1777734851.3504786,-4.99,-0.25,-1.14,-0.049,-0.199,9.811,-0.01,0.0,-0.01
1777734851.3604622,-4.99,-0.25,-1.14,-0.053,-0.198,9.811,0.0,0.0,-0.01
1777734851.3704362,-4.99,-0.25,-1.14,-0.051,-0.201,9.811,-0.01,-0.01,0.0
1777734851.3804336,-4.99,-0.25,-1.14,-0.054,-0.204,9.811,0.0,-0.01,0.0
1777734851.3904712,-4.99,-0.25,-1.14,-0.05,-0.195,9.811,-0.01,0.0,0.0
1777734851.400576,-4.99,-0.25,-1.14,-0.047,-0.193,9.811,0.0,0.0,0.0
1777734851.4104216,-4.99,-0.25,-1.14,-0.043,-0.19,9.811,0.0,0.0,-0.01
1777734851.4205616,-4.99,-0.25,-1.14,-0.038,-0.194,9.811,0.0,0.0,-0.01
1777734851.4304688,-4.99,-0.25,-1.14,-0.041,-0.19,9.811,0.0,-0.01,-0.01
1777734851.4405715,-4.99,-0.25,-1.14,-0.034,-0.192,9.811,0.0,0.0,-0.01
1777734851.4504528,-4.99,-0.25,-1.14,-0.035,-0.195,9.811,0.0,0.0,0.0
1777734851.4605498,-4.99,-0.25,-1.14,-0.034,-0.194,9.811,0.0,0.0,0.0
1777734851.4704428,-4.99,-0.25,-1.14,-0.038,-0.187,9.811,0.0,0.0,0.0
1777734851.480435,-4.99,-0.25,-1.14,-0.042,-0.182,9.811,-0.01,0.0,0.0
1777734851.4904044,-4.99,-0.25,-1.14,-0.047,-0.18,9.811,0.0,0.0,0.0
1777734851.5004897,-4.99,-0.25,-1.14,-0.044,-0.183,9.811,-0.01,-0.01,-0.01
1777734851.510474,-4.99,-0.25,-1.14,-0.048,-0.187,9.811,-0.01,-0.01,-0.01
1777734851.520471,-4.99,-0.25,-1.14,-0.047,-0.188,9.811,-0.01,-0.01,0.0
1777734851.5304532,-4.99,-0.25,-1.14,-0.043,-0.186,9.811,0.0,-0.01,0.0
1777734851.5404909,-4.99,-0.25,-1.14,-0.043,-0.189,9.811,-0.01,-0.01,0.0
1777734851.550453,-4.99,-0.25,-1.14,-0.044,-0.189,9.811,-0.01,0.0,0.0
1777734851.5604813,-4.99,-0.25,-1.14,-0.037,-0.193,9.811,0.0,-0.01,0.0
1777734851.5704856,-4.99,-0.25,-1.14,-0.036,-0.2,9.811,-0.01,-0.01,0.0
1777734851.580478,-4.99,-0.25,-1.14,-0.046,-0.198,9.811,-0.01,0.0,0.0
1777734851.590429,-4.99,-0.25,-1.14,-0.043,-0.189,9.811,0.0,0.0,0.0
1777734851.6004798,-4.99,-0.25,-1.14,-0.042,-0.187,9.811,-0.01,-0.01,0.0
1777734851.6109016,-4.99,-0.25,-1.14,-0.042,-0.188,9.811,0.0,0.0,0.0
1777734851.6204786,-4.99,-0.25,-1.14,-0.044,-0.184,9.811,-0.01,0.0,0.0
1777734851.6304574,-4.99,-0.25,-1.13,-0.042,-0.187,9.811,0.0,0.0,0.0
1777734851.6404521,-4.99,-0.25,-1.13,-0.042,-0.188,9.811,0.0,-0.01,-0.01
1777734851.650487,-4.99,-0.25,-1.13,-0.038,-0.199,9.811,0.0,-0.01,-0.01
1777734851.6604156,-4.99,-0.25,-1.13,-0.046,-0.201,9.811,0.0,0.0,-0.01
1777734851.670448,-4.99,-0.25,-1.14,-0.046,-0.201,9.811,0.0,0.0,0.0
1777734851.6804464,-4.99,-0.25,-1.13,-0.044,-0.196,9.811,0.0,-0.01,0.0
1777734851.689651,-4.99,-0.25,-1.13,-0.042,-0.187,9.811,-0.01,0.0,0.0
1777734851.7004323,-4.99,-0.25,-1.13,-0.041,-0.182,9.811,-0.01,0.0,0.0
1777734851.7104437,-4.99,-0.25,-1.13,-0.041,-0.184,9.811,-0.01,0.0,-0.01
1777734851.7196505,-4.99,-0.25,-1.13,-0.04,-0.188,9.811,0.0,0.0,-0.01
1777734851.7296412,-4.99,-0.25,-1.13,-0.038,-0.187,9.811,0.0,0.0,-0.01
1777734851.7404459,-4.99,-0.25,-1.13,-0.038,-0.192,9.811,0.0,-0.01,0.0
1777734851.749604,-4.99,-0.25,-1.13,-0.035,-0.193,9.811,0.0,-0.01,0.0
1777734851.760483,-4.99,-0.25,-1.13,-0.025,-0.194,9.811,0.0,0.0,0.0
1777734851.7696517,-4.99,-0.25,-1.13,-0.026,-0.196,9.811,0.0,-0.01,0.0
1777734851.7796435,-4.99,-0.25,-1.13,-0.031,-0.194,9.811,-0.01,-0.01,-0.01
1777734851.7896216,-4.99,-0.25,-1.13,-0.034,-0.196,9.811,0.0,0.0,-0.01
1777734851.800486,-4.99,-0.25,-1.13,-0.031,-0.195,9.811,0.0,0.0,-0.01
1777734851.8095996,-4.99,-0.25,-1.13,-0.037,-0.192,9.811,0.0,0.0,0.0
1777734851.8205645,-4.99,-0.25,-1.13,-0.042,-0.196,9.811,0.0,0.0,0.0
1777734851.8296165,-4.99,-0.25,-1.13,-0.038,-0.198,9.811,0.0,-0.01,0.0
1777734851.839624,-4.99,-0.25,-1.13,-0.036,-0.198,9.811,0.0,0.0,0.0
1777734851.8496125,-4.99,-0.25,-1.13,-0.038,-0.2,9.811,0.0,0.0,0.0
1777734851.8595822,-4.99,-0.25,-1.13,-0.043,-0.192,9.811,0.0,0.0,-0.01
1777734851.8696663,-4.99,-0.25,-1.13,-0.04,-0.192,9.811,-0.01,0.0,-0.01
1777734851.8796268,-4.99,-0.25,-1.13,-0.044,-0.188,9.811,0.0,-0.01,0.0
1777734851.8895981,-4.99,-0.25,-1.13,-0.041,-0.183,9.811,-0.01,-0.01,0.0
1777734851.8996122,-4.99,-0.25,-1.13,-0.041,-0.183,9.811,-0.01,0.0,0.0
1777734851.909617,-4.99,-0.25,-1.13,-0.041,-0.19,9.811,-0.01,-0.01,0.0
1777734851.9196382,-4.99,-0.25,-1.13,-0.041,-0.194,9.811,0.0,0.0,0.0
1777734851.9295785,-4.99,-0.25,-1.13,-0.042,-0.194,9.811,0.0,0.0,0.0
1777734851.9396174,-4.99,-0.25,-1.13,-0.046,-0.198,9.811,-0.01,0.0,0.0
1777734851.949677,-4.99,-0.25,-1.13,-0.049,-0.202,9.811,0.0,-0.01,0.0
1777734851.959588,-4.99,-0.25,-1.13,-0.051,-0.2,9.811,0.0,-0.01,0.0
1777734851.9695826,-4.99,-0.25,-1.13,-0.051,-0.199,9.811,0.0,-0.01,0.0
1777734851.9796498,-4.99,-0.25,-1.13,-0.047,-0.196,9.811,0.0,-0.01,0.0
1777734851.9899957,-4.99,-0.25,-1.13,-0.043,-0.2,9.811,-0.01,-0.01,0.0
1777734852.0000098,-4.99,-0.25,-1.13,-0.042,-0.199,9.811,-0.01,-0.01,0.0
1777734852.0099485,-4.99,-0.25,-1.13,-0.035,-0.196,9.811,-0.01,-0.01,0.0
1777734852.0196328,-4.99,-0.25,-1.13,-0.031,-0.189,9.811,0.0,-0.01,-0.01
1777734852.029696,-4.99,-0.25,-1.13,-0.037,-0.188,9.811,-0.01,0.0,0.0
1777734852.0395956,-4.99,-0.25,-1.13,-0.04,-0.192,9.811,-0.01,0.0,0.0
1777734852.0496943,-4.99,-0.25,-1.13,-0.037,-0.194,9.811,0.0,0.0,0.0
1777734852.0596192,-4.99,-0.25,-1.13,-0.046,-0.198,9.811,-0.01,0.0,-0.01
1777734852.0697107,-4.99,-0.25,-1.13,-0.046,-0.199,9.811,-0.01,0.0,-0.01
1777734852.0795975,-4.99,-0.25,-1.13,-0.043,-0.198,9.811,-0.01,0.0,0.0
1777734852.0902867,-4.99,-0.25,-1.13,-0.047,-0.199,9.811,-0.01,0.0,0.0
1777734852.0996,-4.99,-0.25,-1.13,-0.049,-0.201,9.811,0.0,-0.01,-0.01
1777734852.1095893,-4.99,-0.25,-1.13,-0.043,-0.201,9.811,0.0,0.0,0.0
1777734852.1195898,-4.99,-0.25,-1.13,-0.042,-0.201,9.811,0.0,0.0,-0.01
1777734852.1296284,-4.99,-0.25,-1.14,-0.043,-0.201,9.811,0.0,0.0,0.0
1777734852.1396124,-4.99,-0.25,-1.14,-0.042,-0.2,9.811,0.0,0.0,0.0
1777734852.1496766,-4.99,-0.25,-1.14,-0.043,-0.201,9.811,0.0,0.0,0.0
1777734852.1596463,-4.99,-0.25,-1.14,-0.048,-0.2,9.811,-0.01,0.0,-0.01
1777734852.1696362,-4.99,-0.25,-1.14,-0.055,-0.195,9.811,0.0,0.0,0.0
1777734852.1796074,-4.99,-0.25,-1.14,-0.055,-0.19,9.811,-0.01,-0.01,0.0
1777734852.1896822,-4.99,-0.25,-1.14,-0.055,-0.194,9.811,0.0,-0.01,-0.01
1777734852.1996775,-4.99,-0.25,-1.14,-0.057,-0.193,9.811,0.0,0.0,0.0
1777734852.2095993,-4.99,-0.25,-1.14,-0.053,-0.194,9.811,-0.01,-0.01,0.0
1777734852.2196019,-4.99,-0.25,-1.14,-0.049,-0.193,9.811,0.0,0.0,0.0
1777734852.229654,-4.99,-0.25,-1.13,-0.047,-0.196,9.811,0.0,0.0,-0.01
1777734852.2396488,-4.99,-0.25,-1.14,-0.046,-0.196,9.811,0.0,0.0,-0.01
1777734852.2496176,-4.99,-0.25,-1.14,-0.046,-0.198,9.811,0.0,0.0,-0.01
1777734852.2595742,-4.99,-0.25,-1.14,-0.042,-0.201,9.811,0.0,0.0,0.0
1777734852.2697222,-4.99,-0.25,-1.14,-0.041,-0.2,9.811,0.0,0.0,0.0
1777734852.2796395,-4.99,-0.25,-1.14,-0.04,-0.195,9.811,0.0,0.0,0.0
1777734852.2896743,-4.99,-0.25,-1.14,-0.042,-0.199,9.811,0.0,0.0,0.0
1777734852.2996368,-4.99,-0.25,-1.14,-0.044,-0.196,9.811,-0.01,0.0,-0.01
1777734852.3096602,-4.99,-0.25,-1.13,-0.046,-0.198,9.811,0.0,0.0,-0.01
1777734852.3196213,-4.99,-0.25,-1.13,-0.047,-0.198,9.811,0.0,-0.01,-0.01
1777734852.3296316,-4.99,-0.25,-1.14,-0.049,-0.196,9.811,0.0,-0.01,0.0
1777734852.3396466,-4.99,-0.25,-1.14,-0.041,-0.196,9.811,0.0,0.0,0.0
1777734852.3496735,-4.99,-0.25,-1.13,-0.04,-0.196,9.811,0.0,0.0,0.0
1777734852.3595886,-4.99,-0.25,-1.13,-0.037,-0.188,9.811,0.0,-0.01,0.0
1777734852.3696237,-4.99,-0.25,-1.13,-0.032,-0.187,9.811,0.0,-0.01,0.0
1777734852.3797069,-4.99,-0.25,-1.13,-0.035,-0.182,9.811,0.0,0.0,-0.01
1777734852.3895996,-4.99,-0.25,-1.13,-0.04,-0.184,9.811,0.0,0.0,-0.01
1777734852.399627,-4.99,-0.25,-1.13,-0.043,-0.193,9.811,0.0,-0.01,0.0
1777734852.409627,-4.99,-0.25,-1.13,-0.037,-0.192,9.811,0.0,-0.01,0.0
1777734852.4196343,-4.99,-0.25,-1.13,-0.034,-0.19,9.811,0.0,-0.01,0.0
1777734852.4296162,-4.99,-0.25,-1.13,-0.04,-0.19,9.811,0.0,0.0,0.0
1777734852.439599,-4.99,-0.25,-1.13,-0.04,-0.186,9.811,-0.01,0.0,-0.01
1777734852.4496102,-4.99,-0.25,-1.13,-0.034,-0.186,9.811,-0.01,-0.01,-0.01
1777734852.4596276,-4.99,-0.25,-1.13,-0.032,-0.184,9.811,-0.01,0.0,-0.01
1777734852.4696074,-4.99,-0.25,-1.13,-0.036,-0.19,9.811,-0.01,0.0,0.0
1777734852.479594,-4.99,-0.25,-1.13,-0.043,-0.19,9.811,0.0,0.0,0.0
1777734852.4896972,-4.99,-0.25,-1.13,-0.048,-0.195,9.811,-0.01,0.0,0.0
1777734852.499627,-4.99,-0.25,-1.13,-0.05,-0.194,9.811,0.0,-0.01,0.0
1777734852.5097451,-4.99,-0.25,-1.13,-0.05,-0.2,9.811,0.0,0.0,-0.01
1777734852.5196493,-4.99,-0.25,-1.13,-0.046,-0.2,9.811,0.0,0.0,0.0
1777734852.5296645,-4.99,-0.25,-1.13,-0.043,-0.198,9.811,0.0,-0.01,-0.01
1777734852.5396276,-4.99,-0.25,-1.13,-0.037,-0.199,9.811,0.0,0.0,-0.01
1777734852.5495985,-4.99,-0.25,-1.13,-0.037,-0.2,9.811,-0.01,-0.01,0.0
1777734852.5596316,-4.99,-0.25,-1.13,-0.038,-0.196,9.811,0.0,0.0,-0.01
1777734852.5687397,-4.99,-0.25,-1.13,-0.034,-0.195,9.811,-0.01,-0.01,0.0
1777734852.5796103,-4.99,-0.25,-1.13,-0.035,-0.193,9.811,0.0,-0.01,0.0
1777734852.5887418,-4.99,-0.25,-1.13,-0.034,-0.189,9.811,0.0,0.0,0.0
1777734852.5996559,-4.99,-0.25,-1.13,-0.038,-0.192,9.811,0.0,0.0,0.0
1777734852.6087642,-4.99,-0.25,-1.13,-0.046,-0.2,9.811,0.0,0.0,-0.01
1777734852.6196244,-4.99,-0.25,-1.13,-0.047,-0.2,9.811,-0.01,0.0,0.0
1777734852.628747,-4.99,-0.25,-1.13,-0.048,-0.201,9.811,0.0,0.0,0.0
1777734852.6387787,-4.99,-0.25,-1.13,-0.048,-0.199,9.811,-0.01,-0.01,0.0
1777734852.6496227,-4.99,-0.25,-1.13,-0.047,-0.194,9.811,0.0,0.0,0.0
1777734852.658744,-4.99,-0.25,-1.13,-0.047,-0.194,9.811,0.0,0.0,0.0
1777734852.6687658,-4.99,-0.25,-1.13,-0.042,-0.193,9.811,0.0,0.0,-0.01
1777734852.6796384,-4.99,-0.25,-1.13,-0.041,-0.196,9.811,0.0,0.0,-0.01
1777734852.6887503,-4.99,-0.25,-1.13,-0.04,-0.201,9.811,-0.01,-0.01,0.0
1777734852.699629,-4.99,-0.25,-1.13,-0.043,-0.2,9.811,0.0,0.0,0.0
1777734852.7088015,-4.99,-0.25,-1.13,-0.037,-0.198,9.811,0.0,0.0,-0.01
1777734852.7187595,-4.99,-0.25,-1.13,-0.036,-0.194,9.811,-0.01,0.0,0.0
1777734852.7287278,-4.99,-0.25,-1.13,-0.046,-0.192,9.811,0.0,0.0,0.0
1777734852.7387488,-4.99,-0.25,-1.13,-0.043,-0.189,9.811,-0.01,0.0,0.0
1777734852.7487857,-4.99,-0.25,-1.13,-0.046,-0.184,9.811,0.0,0.0,0.0
1777734852.7587576,-4.99,-0.25,-1.13,-0.046,-0.183,9.811,0.0,0.0,0.0
1777734852.7687542,-4.99,-0.25,-1.13,-0.044,-0.192,9.811,0.0,-0.01,0.0
1777734852.7787824,-4.99,-0.25,-1.13,-0.041,-0.196,9.811,0.0,0.0,-0.01
1777734852.788763,-4.99,-0.25,-1.13,-0.041,-0.199,9.811,0.0,-0.01,0.0
1777734852.798771,-4.99,-0.25,-1.13,-0.036,-0.195,9.811,0.0,0.0,0.0
1777734852.808769,-4.99,-0.25,-1.13,-0.036,-0.193,9.811,0.0,0.0,0.0
1777734852.8187819,-4.99,-0.25,-1.13,-0.035,-0.188,9.811,-0.01,0.0,-0.01
1777734852.828767,-4.99,-0.25,-1.13,-0.032,-0.187,9.811,0.0,0.0,0.0
1777734852.838725,-4.99,-0.25,-1.13,-0.042,-0.19,9.811,0.0,0.0,0.0
1777734852.8487473,-5.0,-0.25,-1.13,-0.041,-0.192,9.811,-0.01,0.0,0.0
1777734852.8587885,-5.0,-0.25,-1.13,-0.046,-0.194,9.811,-0.01,-0.01,0.0
1777734852.868742,-5.0,-0.25,-1.13,-0.044,-0.194,9.811,0.0,0.0,0.0
1777734852.8787541,-5.0,-0.25,-1.13,-0.037,-0.193,9.811,0.0,0.0,0.0
1777734852.888917,-5.0,-0.25,-1.13,-0.036,-0.189,9.811,0.0,-0.01,0.0
1777734852.899005,-5.0,-0.25,-1.13,-0.042,-0.184,9.811,0.0,0.0,0.0
1777734852.9088717,-5.0,-0.25,-1.13,-0.037,-0.18,9.811,0.0,-0.01,0.0
1777734852.9187434,-5.0,-0.25,-1.13,-0.038,-0.184,9.811,-0.01,0.0,0.0
1777734852.9288006,-5.0,-0.25,-1.13,-0.038,-0.187,9.811,-0.01,-0.01,-0.01
1777734852.938884,-5.0,-0.25,-1.13,-0.036,-0.189,9.811,0.0,0.0,0.0
1777734852.9487631,-5.0,-0.25,-1.13,-0.035,-0.19,9.811,-0.01,-0.01,0.0
1777734852.9589696,-5.0,-0.25,-1.13,-0.034,-0.198,9.811,0.0,-0.01,0.0
1777734852.9697673,-5.0,-0.25,-1.13,-0.035,-0.2,9.811,0.0,0.0,-0.01
1777734852.978807,-5.0,-0.25,-1.13,-0.035,-0.204,9.811,0.0,0.0,0.0
1777734852.9888625,-5.0,-0.25,-1.13,-0.041,-0.204,9.811,0.0,0.0,-0.01
1777734852.9988084,-5.0,-0.25,-1.13,-0.042,-0.196,9.811,0.0,0.0,-0.01
1777734853.0089407,-5.0,-0.25,-1.13,-0.04,-0.195,9.811,0.0,0.0,0.0
1777734853.0188968,-5.0,-0.25,-1.13,-0.035,-0.199,9.811,0.0,0.0,0.0
1777734853.0287466,-5.0,-0.25,-1.13,-0.036,-0.199,9.811,-0.01,-0.01,0.0
1777734853.0387998,-5.0,-0.25,-1.13,-0.036,-0.194,9.811,0.0,0.0,0.0
1777734853.0489101,-5.0,-0.25,-1.13,-0.034,-0.194,9.811,-0.01,-0.01,0.0
1777734853.0587544,-5.0,-0.25,-1.13,-0.036,-0.19,9.811,0.0,0.0,0.0
1777734853.0687602,-5.0,-0.25,-1.13,-0.042,-0.186,9.811,0.0,0.0,0.0
1777734853.078803,-5.0,-0.25,-1.13,-0.043,-0.183,9.811,-0.01,0.0,0.0
1777734853.088923,-5.0,-0.25,-1.13,-0.036,-0.19,9.811,0.0,0.0,-0.01
1777734853.0988016,-5.0,-0.25,-1.13,-0.036,-0.196,9.811,-0.01,0.0,-0.01
1777734853.108799,-5.0,-0.25,-1.13,-0.038,-0.195,9.811,0.0,0.0,0.0
1777734853.1188064,-5.0,-0.25,-1.13,-0.041,-0.188,9.811,0.0,-0.01,0.0
1777734853.1289582,-5.0,-0.25,-1.12,-0.04,-0.19,9.811,0.0,-0.01,-0.01
1777734853.138787,-4.99,-0.25,-1.12,-0.04,-0.187,9.811,0.0,0.0,0.0
1777734853.1488152,-4.99,-0.24,-1.12,-0.036,-0.187,9.811,-0.01,-0.01,-0.01
1777734853.1587896,-4.99,-0.25,-1.12,-0.041,-0.19,9.811,0.0,0.0,-0.01
1777734853.1687942,-4.99,-0.25,-1.12,-0.046,-0.188,9.811,0.0,0.0,0.0
1777734853.1788173,-5.0,-0.25,-1.12,-0.043,-0.188,9.811,-0.01,0.0,0.0
1777734853.188828,-5.0,-0.25,-1.12,-0.041,-0.187,9.811,0.0,0.0,0.0
1777734853.1988902,-5.0,-0.25,-1.12,-0.036,-0.181,9.811,0.0,0.0,0.0
1777734853.2087893,-5.0,-0.25,-1.12,-0.038,-0.186,9.811,-0.01,0.0,-0.01
1777734853.2188234,-4.99,-0.25,-1.12,-0.05,-0.19,9.811,0.0,0.0,-0.01
1777734853.2288108,-4.99,-0.25,-1.12,-0.048,-0.204,9.811,0.0,0.0,-0.01
1777734853.238788,-4.99,-0.25,-1.12,-0.043,-0.206,9.811,-0.01,-0.01,-0.01
1777734853.2488315,-5.0,-0.25,-1.12,-0.044,-0.2,9.811,0.0,0.0,0.0
1777734853.258814,-5.0,-0.25,-1.12,-0.043,-0.195,9.811,-0.01,0.0,0.0
1777734853.2687805,-5.0,-0.25,-1.12,-0.038,-0.187,9.811,-0.01,-0.01,0.0
1777734853.2788286,-5.0,-0.25,-1.12,-0.037,-0.183,9.811,0.0,-0.01,0.0
1777734853.288815,-5.0,-0.25,-1.12,-0.036,-0.186,9.811,0.0,0.0,0.0
1777734853.298811,-5.0,-0.25,-1.12,-0.034,-0.189,9.811,0.0,-0.01,-0.01
1777734853.3090396,-5.0,-0.25,-1.12,-0.032,-0.196,9.811,-0.01,0.0,-0.01
1777734853.318795,-5.0,-0.25,-1.12,-0.041,-0.206,9.811,0.0,0.0,0.0
1777734853.328967,-5.0,-0.25,-1.12,-0.042,-0.202,9.811,-0.01,0.0,0.0
1777734853.338836,-5.0,-0.25,-1.12,-0.034,-0.195,9.811,-0.01,0.0,0.0
1777734853.3487983,-5.0,-0.25,-1.12,-0.031,-0.198,9.811,-0.01,0.0,0.0
1777734853.3587823,-5.0,-0.25,-1.12,-0.036,-0.198,9.811,0.0,-0.01,-0.01
1777734853.368866,-5.0,-0.25,-1.12,-0.043,-0.196,9.811,0.0,0.0,-0.01
1777734853.3788378,-5.0,-0.25,-1.12,-0.047,-0.2,9.811,-0.01,-0.01,-0.01
1777734853.3887951,-5.0,-0.25,-1.12,-0.044,-0.199,9.811,0.0,-0.01,0.0
1777734853.3987968,-5.0,-0.25,-1.12,-0.041,-0.196,9.811,0.0,-0.01,0.0
1777734853.4088356,-5.0,-0.25,-1.12,-0.036,-0.196,9.811,0.0,0.0,0.0
1777734853.418825,-5.0,-0.25,-1.12,-0.037,-0.194,9.811,0.0,0.0,-0.01
1777734853.4287941,-5.0,-0.25,-1.12,-0.041,-0.193,9.811,0.0,-0.01,0.0
1777734853.4388068,-5.0,-0.25,-1.12,-0.044,-0.195,9.811,0.0,0.0,0.0
1777734853.448,-5.0,-0.25,-1.12,-0.041,-0.189,9.811,0.0,0.0,0.0
1777734853.4588315,-5.0,-0.25,-1.12,-0.042,-0.194,9.811,-0.01,0.0,0.0
1777734853.4688153,-5.0,-0.25,-1.12,-0.048,-0.2,9.811,-0.01,0.0,0.0
1777734853.4779992,-5.0,-0.25,-1.12,-0.046,-0.196,9.811,0.0,0.0,-0.01
1777734853.4879854,-5.0,-0.25,-1.12,-0.043,-0.199,9.811,0.0,-0.01,-0.01
1777734853.49884,-5.0,-0.25,-1.12,-0.043,-0.199,9.811,-0.01,0.0,-0.01
1777734853.5079825,-5.0,-0.25,-1.12,-0.042,-0.204,9.811,0.0,0.0,0.0
1777734853.5180142,-5.0,-0.25,-1.12,-0.041,-0.202,9.811,-0.01,0.0,0.0
1777734853.5279956,-5.0,-0.25,-1.12,-0.038,-0.201,9.811,0.0,0.0,0.0
1777734853.537973,-5.0,-0.25,-1.13,-0.042,-0.2,9.811,0.0,0.0,-0.01
1777734853.5479982,-5.0,-0.25,-1.13,-0.038,-0.2,9.811,0.0,-0.01,0.0
1777734853.5580235,-5.0,-0.25,-1.13,-0.034,-0.204,9.811,-0.01,-0.01,0.0
1777734853.5679862,-5.0,-0.25,-1.13,-0.037,-0.206,9.811,-0.01,0.0,-0.01
1777734853.578,-5.0,-0.25,-1.13,-0.038,-0.204,9.811,0.0,0.0,0.0
1777734853.5879729,-5.0,-0.25,-1.13,-0.043,-0.2,9.811,0.0,-0.01,0.0
1777734853.598007,-5.0,-0.25,-1.13,-0.04,-0.2,9.811,0.0,0.0,0.0
1777734853.607973,-5.0,-0.25,-1.13,-0.042,-0.2,9.811,-0.01,0.0,-0.01
1777734853.6179636,-5.0,-0.25,-1.13,-0.044,-0.211,9.811,-0.01,-0.01,-0.01
1777734853.6280122,-5.0,-0.25,-1.13,-0.044,-0.211,9.811,0.0,0.0,-0.01
1777734853.6379786,-5.0,-0.25,-1.13,-0.041,-0.207,9.811,0.0,0.0,-0.01
1777734853.6479418,-5.0,-0.25,-1.13,-0.041,-0.201,9.811,0.0,0.0,0.0
1777734853.6579795,-5.0,-0.25,-1.13,-0.041,-0.195,9.811,0.0,0.0,0.0
1777734853.6679864,-5.0,-0.25,-1.13,-0.043,-0.198,9.811,0.0,0.0,0.0
1777734853.6779714,-5.0,-0.25,-1.13,-0.049,-0.195,9.811,-0.01,0.0,0.0
1777734853.6879852,-5.0,-0.25,-1.13,-0.043,-0.195,9.811,0.0,-0.01,-0.01
1777734853.6979847,-5.0,-0.25,-1.13,-0.044,-0.204,9.811,0.0,0.0,-0.01
1777734853.7079687,-5.0,-0.25,-1.13,-0.043,-0.201,9.811,-0.01,0.0,-0.01
1777734853.717975,-5.0,-0.25,-1.14,-0.042,-0.201,9.811,-0.01,-0.01,0.0
1777734853.7279465,-5.0,-0.25,-1.13,-0.04,-0.196,9.811,0.0,-0.01,0.0
1777734853.7379982,-5.0,-0.25,-1.13,-0.038,-0.193,9.811,0.0,0.0,0.0
1777734853.7479742,-5.0,-0.25,-1.13,-0.037,-0.193,9.811,-0.01,-0.01,0.0
1777734853.7579393,-5.0,-0.25,-1.13,-0.035,-0.187,9.811,0.0,0.0,0.0
1777734853.76798,-5.0,-0.25,-1.13,-0.037,-0.19,9.811,0.0,-0.01,0.0
1777734853.7779813,-5.0,-0.25,-1.13,-0.035,-0.189,9.811,-0.01,-0.01,0.0
1777734853.7879405,-5.0,-0.25,-1.13,-0.04,-0.193,9.811,-0.01,0.0,0.0
1777734853.7979846,-5.0,-0.25,-1.13,-0.041,-0.196,9.811,-0.01,0.0,0.0
1777734853.8079965,-5.0,-0.25,-1.13,-0.038,-0.199,9.811,0.0,0.0,0.0
1777734853.817978,-5.0,-0.25,-1.13,-0.043,-0.192,9.811,-0.01,-0.01,0.0
1777734853.827947,-5.0,-0.25,-1.13,-0.043,-0.19,9.811,0.0,0.0,0.0
1777734853.837986,-5.0,-0.25,-1.13,-0.037,-0.193,9.811,-0.01,-0.01,0.0
1777734853.8480008,-5.0,-0.25,-1.13,-0.04,-0.198,9.811,-0.01,0.0,0.0
1777734853.8579202,-5.0,-0.25,-1.13,-0.042,-0.199,9.811,0.0,0.0,0.0
1777734853.8680093,-5.0,-0.25,-1.13,-0.041,-0.193,9.811,0.0,-0.01,0.0
1777734853.8779721,-5.0,-0.25,-1.13,-0.041,-0.19,9.811,-0.01,-0.01,0.0
1777734853.8879516,-5.0,-0.25,-1.13,-0.041,-0.193,9.811,-0.01,-0.01,0.0
1777734853.8980057,-5.0,-0.25,-1.13,-0.041,-0.2,9.811,-0.01,0.0,0.0
1777734853.907992,-5.0,-0.25,-1.14,-0.042,-0.199,9.811,-0.01,-0.01,0.0
1777734853.9180207,-5.0,-0.25,-1.14,-0.041,-0.199,9.811,-0.01,0.0,0.0
1777734853.9280033,-5.0,-0.25,-1.14,-0.036,-0.206,9.811,0.0,0.0,0.0
1777734853.9379547,-5.0,-0.25,-1.14,-0.038,-0.205,9.811,-0.01,0.0,0.0
1777734853.94801,-5.0,-0.25,-1.14,-0.034,-0.2,9.811,-0.01,0.0,0.0
1777734853.9579916,-5.0,-0.25,-1.14,-0.035,-0.194,9.811,0.0,-0.01,0.0
1777734853.9679668,-5.0,-0.25,-1.14,-0.038,-0.189,9.811,0.0,-0.01,0.0
1777734853.9779768,-5.0,-0.25,-1.13,-0.036,-0.193,9.811,0.0,0.0,0.0
1777734853.9879847,-5.0,-0.25,-1.14,-0.037,-0.193,9.811,0.0,-0.01,-0.01
1777734853.997983,-5.0,-0.25,-1.13,-0.038,-0.2,9.811,0.0,-0.01,-0.01
1777734854.0079927,-5.0,-0.25,-1.14,-0.041,-0.196,9.811,0.0,0.0,-0.01
1777734854.018212,-5.0,-0.25,-1.14,-0.037,-0.202,9.811,0.0,0.0,-0.01
1777734854.0280268,-5.0,-0.25,-1.14,-0.038,-0.2,9.811,0.0,0.0,0.0
1777734854.0379775,-5.0,-0.25,-1.14,-0.037,-0.201,9.811,0.0,0.0,0.0
1777734854.047973,-5.0,-0.25,-1.14,-0.038,-0.206,9.811,0.0,0.0,0.0
1777734854.057979,-5.0,-0.25,-1.14,-0.046,-0.202,9.811,0.0,0.0,0.0
1777734854.068012,-5.0,-0.25,-1.14,-0.049,-0.196,9.811,0.0,0.0,0.0
1777734854.0779855,-5.0,-0.25,-1.14,-0.043,-0.196,9.811,-0.01,-0.01,0.0
1777734854.088,-5.0,-0.25,-1.14,-0.041,-0.198,9.811,0.0,0.0,0.0
1777734854.0981681,-5.0,-0.25,-1.14,-0.037,-0.202,9.811,-0.01,0.0,0.0
1777734854.1082485,-5.0,-0.25,-1.14,-0.034,-0.204,9.811,0.0,0.0,-0.01
1777734854.1179662,-5.0,-0.25,-1.14,-0.044,-0.2,9.811,0.0,-0.01,0.0
1777734854.1280985,-5.0,-0.25,-1.14,-0.044,-0.205,9.811,0.0,0.0,-0.01
1777734854.1380258,-5.0,-0.25,-1.14,-0.044,-0.196,9.811,0.0,0.0,-0.01
1777734854.1480849,-5.0,-0.25,-1.14,-0.047,-0.19,9.811,-0.01,0.0,0.0
1777734854.1580071,-5.0,-0.25,-1.14,-0.049,-0.189,9.811,0.0,-0.01,0.0
1777734854.1680017,-5.0,-0.25,-1.14,-0.051,-0.187,9.811,0.0,-0.01,0.0
1777734854.178054,-5.0,-0.25,-1.14,-0.044,-0.186,9.811,0.0,0.0,0.0
1777734854.188016,-5.0,-0.25,-1.14,-0.037,-0.194,9.811,-0.01,-0.01,0.0
1777734854.1980073,-5.0,-0.25,-1.14,-0.034,-0.204,9.811,-0.01,-0.01,-0.01
1777734854.2079906,-5.0,-0.25,-1.14,-0.028,-0.202,9.811,0.0,-0.01,-0.01
1777734854.217982,-5.0,-0.25,-1.14,-0.026,-0.201,9.811,-0.01,0.0,0.0
1777734854.2280257,-5.0,-0.25,-1.14,-0.026,-0.198,9.811,-0.01,-0.01,0.0
1777734854.2379868,-5.0,-0.24,-1.14,-0.026,-0.193,9.811,0.0,0.0,0.0
1777734854.2482548,-5.0,-0.24,-1.14,-0.031,-0.188,9.811,0.0,0.0,0.0
1777734854.2579768,-5.0,-0.25,-1.14,-0.034,-0.186,9.811,0.0,0.0,-0.01
1777734854.2679756,-5.0,-0.24,-1.14,-0.041,-0.186,9.811,-0.01,0.0,-0.01
1777734854.277972,-5.0,-0.24,-1.14,-0.038,-0.187,9.811,-0.01,-0.01,-0.01
1777734854.2880154,-5.0,-0.24,-1.14,-0.041,-0.182,9.811,0.0,-0.01,-0.01
1777734854.2979975,-5.0,-0.24,-1.13,-0.041,-0.186,9.811,-0.01,-0.01,0.0
1777734854.3079844,-5.0,-0.24,-1.13,-0.04,-0.189,9.811,0.0,-0.01,0.0
1777734854.3180232,-5.0,-0.24,-1.13,-0.042,-0.192,9.811,0.0,0.0,0.0
1777734854.3280222,-5.0,-0.24,-1.13,-0.048,-0.183,9.811,-0.01,-0.01,-0.01
1777734854.3379855,-5.0,-0.25,-1.13,-0.048,-0.188,9.811,0.0,-0.01,-0.01
1777734854.3471427,-5.0,-0.24,-1.13,-0.046,-0.192,9.811,0.0,0.0,0.0
1777734854.3580246,-5.0,-0.24,-1.13,-0.049,-0.188,9.811,0.0,-0.01,0.0
1777734854.367988,-5.0,-0.25,-1.13,-0.047,-0.198,9.811,-0.01,-0.01,-0.01
1777734854.377295,-5.0,-0.25,-1.13,-0.042,-0.196,9.811,0.0,0.0,0.0
1777734854.3880432,-5.0,-0.24,-1.13,-0.041,-0.199,9.811,-0.01,0.0,0.0
1777734854.399314,-5.0,-0.25,-1.13,-0.043,-0.198,9.811,0.0,-0.01,-0.01
1777734854.4107409,-5.0,-0.25,-1.13,-0.044,-0.2,9.811,0.0,0.0,0.0
1777734854.4658341,-5.0,-0.25,-1.13,-0.048,-0.202,9.811,0.0,-0.01,0.0
1777734854.4676168,-5.0,-0.25,-1.13,-0.042,-0.204,9.811,0.0,0.0,0.0
1777734854.469237,-5.0,-0.25,-1.13,-0.048,-0.2,9.811,0.0,0.0,0.0
1777734854.4709148,-5.0,-0.25,-1.13,-0.049,-0.196,9.811,0.0,0.0,-0.01
1777734854.4726331,-5.0,-0.25,-1.13,-0.054,-0.196,9.811,0.0,-0.01,-0.01
1777734854.474426,-5.0,-0.25,-1.14,-0.054,-0.193,9.811,0.0,0.0,-0.01
1777734854.4772398,-5.0,-0.25,-1.14,-0.049,-0.2,9.811,-0.01,-0.01,0.0
1777734854.4872417,-5.0,-0.25,-1.14,-0.051,-0.2,9.811,-0.01,0.0,-0.01
1777734854.497243,-5.0,-0.25,-1.14,-0.048,-0.199,9.811,-0.01,0.0,0.0
1777734854.5071545,-5.0,-0.25,-1.14,-0.037,-0.202,9.811,-0.01,-0.01,0.0
1777734854.5520065,-5.0,-0.25,-1.14,-0.038,-0.196,9.811,-0.01,0.0,0.0
1777734854.5601668,-5.0,-0.25,-1.14,-0.048,-0.194,9.811,0.0,0.0,0.0
1777734854.5714748,-5.0,-0.25,-1.14,-0.047,-0.19,9.811,-0.01,0.0,-0.01
1777734854.587564,-5.0,-0.25,-1.14,-0.05,-0.192,9.811,0.0,0.0,-0.01
1777734854.5893943,-5.0,-0.25,-1.14,-0.046,-0.195,9.811,0.0,0.0,-0.01
1777734854.5929244,-5.0,-0.25,-1.14,-0.044,-0.195,9.811,-0.01,-0.01,0.0
1777734854.5943818,-5.0,-0.25,-1.14,-0.046,-0.193,9.811,0.0,0.0,-0.01
1777734854.5958052,-5.0,-0.25,-1.14,-0.046,-0.192,9.811,-0.01,-0.01,0.0
1777734854.5987115,-5.0,-0.25,-1.14,-0.042,-0.186,9.811,0.0,0.0,0.0
1777734854.6077693,-5.0,-0.25,-1.14,-0.041,-0.186,9.811,-0.01,0.0,0.0
1777734854.617532,-5.0,-0.25,-1.14,-0.044,-0.189,9.811,0.0,0.0,0.0
1777734854.6272423,-5.0,-0.25,-1.14,-0.046,-0.195,9.811,0.0,0.0,0.0
1777734854.6371758,-5.0,-0.25,-1.14,-0.044,-0.196,9.811,-0.01,0.0,-0.01
1777734854.6471884,-5.0,-0.25,-1.14,-0.042,-0.192,9.811,0.0,0.0,0.0
1777734854.6571896,-5.0,-0.25,-1.13,-0.036,-0.195,9.811,0.0,-0.01,-0.01
1777734854.6671872,-5.0,-0.25,-1.14,-0.038,-0.189,9.811,0.0,0.0,0.0
1777734854.6771631,-5.0,-0.25,-1.13,-0.036,-0.187,9.811,-0.01,-0.01,0.0
1777734854.6872697,-5.0,-0.25,-1.13,-0.041,-0.183,9.811,-0.01,-0.01,0.0
1777734854.6971512,-5.0,-0.25,-1.13,-0.044,-0.184,9.811,0.0,0.0,0.0
1777734854.7071562,-5.0,-0.25,-1.13,-0.046,-0.186,9.811,-0.01,-0.01,0.0
1777734854.7172678,-5.0,-0.25,-1.13,-0.049,-0.187,9.811,0.0,-0.01,0.0
1777734854.727225,-5.0,-0.25,-1.13,-0.046,-0.183,9.811,0.0,0.0,-0.01
1777734854.7371607,-5.0,-0.25,-1.13,-0.044,-0.19,9.811,0.0,0.0,-0.01
1777734854.7471797,-5.0,-0.25,-1.13,-0.047,-0.196,9.811,-0.01,0.0,0.0
1777734854.757149,-5.0,-0.25,-1.13,-0.05,-0.2,9.811,0.0,0.0,0.0
1777734854.7671485,-5.0,-0.25,-1.13,-0.051,-0.196,9.811,0.0,0.0,0.0
1777734854.777121,-5.0,-0.25,-1.13,-0.05,-0.19,9.811,0.0,-0.01,0.0
1777734854.7871442,-5.0,-0.25,-1.13,-0.046,-0.193,9.811,0.0,-0.01,0.0
1777734854.7971628,-5.0,-0.25,-1.13,-0.043,-0.189,9.811,0.0,-0.01,-0.01
1777734854.807137,-5.0,-0.25,-1.13,-0.04,-0.187,9.811,0.0,0.0,-0.01
1777734854.8171213,-5.0,-0.25,-1.13,-0.034,-0.184,9.811,-0.01,0.0,-0.01
1777734854.827179,-5.0,-0.25,-1.13,-0.034,-0.189,9.811,0.0,0.0,-0.01
1777734854.8371227,-5.0,-0.25,-1.13,-0.032,-0.19,9.811,0.0,0.0,0.0
1777734854.847401,-5.0,-0.25,-1.13,-0.038,-0.193,9.811,-0.01,0.0,0.0
1777734854.8571377,-5.0,-0.25,-1.13,-0.042,-0.192,9.811,0.0,-0.01,0.0
1777734854.867185,-5.0,-0.25,-1.13,-0.044,-0.19,9.811,0.0,0.0,0.0
1777734854.8771725,-5.0,-0.25,-1.13,-0.042,-0.187,9.811,0.0,-0.01,0.0
1777734854.8871512,-5.0,-0.25,-1.13,-0.042,-0.183,9.811,0.0,0.0,0.0
1777734854.8971505,-5.0,-0.25,-1.13,-0.043,-0.184,9.811,-0.01,0.0,0.0
1777734854.907194,-5.0,-0.25,-1.13,-0.041,-0.187,9.811,-0.01,0.0,0.0
1777734854.9171584,-5.0,-0.25,-1.13,-0.037,-0.189,9.811,-0.01,-0.01,0.0
1777734854.9273179,-5.0,-0.25,-1.13,-0.032,-0.194,9.811,-0.01,-0.01,-0.01
1777734854.937193,-5.0,-0.25,-1.13,-0.037,-0.193,9.811,-0.01,0.0,-0.01
1777734854.94718,-5.0,-0.25,-1.13,-0.038,-0.19,9.811,0.0,0.0,0.0
1777734854.9571414,-5.0,-0.25,-1.13,-0.037,-0.189,9.811,-0.01,-0.01,0.0
1777734854.9671593,-5.0,-0.25,-1.13,-0.037,-0.19,9.811,0.0,-0.01,0.0
1777734854.9771764,-5.0,-0.25,-1.13,-0.038,-0.189,9.811,0.0,0.0,0.0
1777734854.9871454,-5.0,-0.25,-1.13,-0.037,-0.189,9.811,0.0,-0.01,0.0
1777734854.9971595,-5.0,-0.25,-1.13,-0.042,-0.188,9.811,0.0,0.0,-0.01
1777734855.0071838,-5.0,-0.25,-1.13,-0.038,-0.189,9.811,-0.01,-0.01,-0.01
1777734855.0171623,-5.0,-0.25,-1.13,-0.034,-0.192,9.811,-0.01,0.0,0.0
1777734855.027197,-5.0,-0.25,-1.13,-0.037,-0.196,9.811,-0.01,0.0,0.0
1777734855.0372632,-5.0,-0.25,-1.13,-0.037,-0.198,9.811,0.0,-0.01,0.0
1777734855.0471876,-5.0,-0.25,-1.13,-0.041,-0.195,9.811,0.0,0.0,-0.01
1777734855.0571482,-5.0,-0.25,-1.13,-0.043,-0.193,9.811,0.0,0.0,-0.01
1777734855.0671463,-5.0,-0.25,-1.13,-0.04,-0.193,9.811,0.0,0.0,0.0
1777734855.0771701,-5.0,-0.25,-1.12,-0.046,-0.19,9.811,0.0,0.0,0.0
1777734855.0872343,-5.0,-0.25,-1.12,-0.047,-0.186,9.811,0.0,-0.01,0.0
1777734855.0971959,-5.0,-0.25,-1.12,-0.041,-0.192,9.811,0.0,-0.01,0.0
1777734855.107164,-5.0,-0.25,-1.12,-0.04,-0.19,9.811,0.0,-0.01,0.0
1777734855.117149,-5.0,-0.25,-1.12,-0.038,-0.195,9.811,0.0,-0.01,0.0
1777734855.1271884,-5.0,-0.25,-1.12,-0.048,-0.199,9.811,-0.01,0.0,-0.01
1777734855.13717,-5.0,-0.25,-1.12,-0.046,-0.198,9.811,-0.01,0.0,0.0
1777734855.1471713,-5.0,-0.25,-1.12,-0.043,-0.198,9.811,-0.01,-0.01,0.0
1777734855.156402,-5.0,-0.25,-1.12,-0.042,-0.198,9.811,0.0,0.0,0.0
1777734855.1671886,-5.0,-0.25,-1.12,-0.047,-0.2,9.811,0.0,0.0,0.0
1777734855.176244,-5.0,-0.25,-1.12,-0.05,-0.204,9.811,0.0,-0.01,0.0
1777734855.187199,-5.0,-0.25,-1.12,-0.049,-0.201,9.811,0.0,0.0,-0.01
1777734855.197176,-5.0,-0.25,-1.12,-0.048,-0.2,9.811,0.0,0.0,-0.01
1777734855.2071898,-5.0,-0.25,-1.12,-0.046,-0.2,9.811,0.0,0.0,0.0
1777734855.2162504,-5.0,-0.25,-1.13,-0.041,-0.199,9.811,0.0,0.0,0.0
1777734855.2265923,-5.0,-0.25,-1.13,-0.036,-0.199,9.811,-0.01,-0.01,0.0
1777734855.237186,-5.0,-0.25,-1.12,-0.036,-0.198,9.811,-0.01,0.0,0.0
1777734855.2462676,-5.0,-0.25,-1.12,-0.036,-0.206,9.811,0.0,0.0,-0.01
1777734855.2571638,-5.0,-0.25,-1.13,-0.038,-0.205,9.811,0.0,0.0,-0.01
1777734855.2672036,-5.0,-0.25,-1.13,-0.037,-0.204,9.811,-0.01,0.0,-0.01
1777734855.2762578,-5.0,-0.25,-1.13,-0.036,-0.204,9.811,0.0,0.0,0.0
1777734855.28626,-5.0,-0.25,-1.13,-0.037,-0.2,9.811,0.0,0.0,0.0
1777734855.2972407,-5.0,-0.25,-1.13,-0.042,-0.192,9.811,0.0,0.0,0.0
1777734855.3062975,-5.0,-0.25,-1.12,-0.042,-0.186,9.811,0.0,0.0,-0.01
1777734855.3162785,-5.0,-0.25,-1.12,-0.04,-0.194,9.811,0.0,0.0,-0.01
1777734855.3271968,-5.0,-0.25,-1.13,-0.04,-0.199,9.811,-0.01,0.0,-0.01
1777734855.3363538,-5.0,-0.25,-1.13,-0.038,-0.198,9.811,0.0,-0.01,0.0
1777734855.3462894,-5.0,-0.25,-1.13,-0.041,-0.201,9.811,0.0,0.0,0.0
1777734855.3562784,-5.0,-0.25,-1.12,-0.036,-0.196,9.811,0.0,-0.01,0.0
1777734855.3663065,-5.0,-0.25,-1.12,-0.035,-0.199,9.811,0.0,-0.01,0.0
1777734855.376298,-5.0,-0.25,-1.12,-0.034,-0.2,9.811,0.0,0.0,-0.01
1777734855.3862796,-5.0,-0.25,-1.12,-0.031,-0.196,9.811,0.0,-0.01,-0.01
1777734855.3962548,-5.0,-0.25,-1.12,-0.031,-0.196,9.811,0.0,0.0,-0.01
1777734855.406333,-5.0,-0.25,-1.13,-0.036,-0.199,9.811,0.0,0.0,0.0
1777734855.4162827,-5.0,-0.25,-1.13,-0.04,-0.201,9.811,-0.01,0.0,0.0
1777734855.426296,-5.0,-0.25,-1.13,-0.037,-0.202,9.811,-0.01,0.0,0.0
1777734855.4363344,-5.0,-0.25,-1.13,-0.034,-0.204,9.811,0.0,0.0,0.0
1777734855.4463263,-5.0,-0.25,-1.13,-0.036,-0.201,9.811,0.0,-0.01,-0.01
1777734855.4563076,-5.0,-0.25,-1.13,-0.035,-0.201,9.811,0.0,0.0,-0.01
1777734855.4662647,-5.0,-0.25,-1.13,-0.042,-0.196,9.811,0.0,0.0,-0.01
1777734855.4762788,-5.0,-0.25,-1.13,-0.047,-0.2,9.811,0.0,0.0,0.0
1777734855.486278,-5.0,-0.25,-1.13,-0.044,-0.204,9.811,-0.01,0.0,0.0
1777734855.4962823,-5.0,-0.25,-1.13,-0.042,-0.199,9.811,0.0,-0.01,0.0
1777734855.5062659,-5.0,-0.25,-1.13,-0.042,-0.199,9.811,-0.01,0.0,0.0
1777734855.516322,-5.0,-0.25,-1.13,-0.04,-0.2,9.811,0.0,0.0,-0.01
1777734855.526321,-5.0,-0.25,-1.13,-0.044,-0.196,9.811,0.0,-0.01,-0.01
1777734855.5363002,-5.0,-0.25,-1.13,-0.041,-0.198,9.811,0.0,0.0,0.0
1777734855.5462816,-5.0,-0.25,-1.13,-0.041,-0.2,9.811,0.0,0.0,0.0
1777734855.5563188,-5.0,-0.25,-1.13,-0.038,-0.198,9.811,0.0,0.0,0.0
1777734855.5662901,-5.0,-0.25,-1.13,-0.037,-0.198,9.811,0.0,0.0,0.0
1777734855.5762937,-5.0,-0.25,-1.13,-0.036,-0.193,9.811,0.0,0.0,-0.01
1777734855.5862863,-5.0,-0.25,-1.13,-0.038,-0.193,9.811,0.0,-0.01,0.0
1777734855.5963168,-5.0,-0.25,-1.13,-0.041,-0.193,9.811,0.0,0.0,0.0
1777734855.606287,-5.0,-0.25,-1.13,-0.036,-0.194,9.811,-0.01,0.0,0.0
1777734855.6162643,-5.0,-0.25,-1.13,-0.04,-0.198,9.811,0.0,-0.01,-0.01
1777734855.6263125,-5.0,-0.25,-1.13,-0.036,-0.199,9.811,0.0,0.0,-0.01
1777734855.6363058,-5.0,-0.25,-1.13,-0.036,-0.19,9.811,0.0,0.0,0.0
1777734855.6463013,-5.0,-0.25,-1.12,-0.038,-0.195,9.811,0.0,0.0,0.0
1777734855.6562889,-5.0,-0.25,-1.13,-0.038,-0.195,9.811,0.0,0.0,0.0
1777734855.6664126,-5.0,-0.25,-1.13,-0.044,-0.196,9.811,0.0,0.0,0.0
1777734855.6762884,-5.0,-0.25,-1.13,-0.042,-0.193,9.811,0.0,0.0,0.0
1777734855.6864903,-5.01,-0.25,-1.13,-0.048,-0.187,9.811,0.0,0.0,0.0
1777734855.6963294,-5.0,-0.25,-1.13,-0.049,-0.186,9.811,-0.01,0.0,0.0
1777734855.7063196,-5.0,-0.25,-1.12,-0.053,-0.189,9.811,-0.01,0.0,0.0
1777734855.7164178,-5.0,-0.25,-1.12,-0.054,-0.194,9.811,-0.01,-0.01,-0.01
1777734855.7263322,-5.01,-0.25,-1.12,-0.055,-0.193,9.811,0.0,0.0,0.0
1777734855.7363431,-5.01,-0.25,-1.12,-0.048,-0.194,9.811,0.0,-0.01,0.0
1777734855.7463496,-5.01,-0.25,-1.12,-0.046,-0.195,9.811,0.0,-0.01,-0.01
1777734855.7563066,-5.01,-0.25,-1.12,-0.041,-0.196,9.811,0.0,0.0,0.0
1777734855.7663152,-5.0,-0.25,-1.12,-0.04,-0.188,9.811,0.0,0.0,0.0
1777734855.776401,-5.0,-0.25,-1.12,-0.04,-0.19,9.811,0.0,-0.01,-0.01
1777734855.786343,-5.0,-0.25,-1.12,-0.036,-0.193,9.811,0.0,0.0,-0.01
1777734855.7963526,-5.01,-0.25,-1.12,-0.035,-0.199,9.811,0.0,0.0,0.0
1777734855.8063338,-5.01,-0.25,-1.12,-0.035,-0.2,9.811,-0.01,-0.01,0.0
1777734855.8163216,-5.01,-0.25,-1.13,-0.037,-0.202,9.811,-0.01,0.0,0.0
1777734855.8263354,-5.01,-0.25,-1.13,-0.035,-0.205,9.811,-0.01,0.0,0.0
1777734855.8363173,-5.01,-0.25,-1.13,-0.036,-0.204,9.811,0.0,0.0,-0.01
1777734855.846328,-5.01,-0.25,-1.13,-0.032,-0.202,9.811,0.0,0.0,-0.01
1777734855.856321,-5.01,-0.25,-1.13,-0.031,-0.202,9.811,0.0,-0.01,-0.01
1777734855.866711,-5.01,-0.25,-1.13,-0.035,-0.2,9.811,0.0,-0.01,0.0
1777734855.876324,-5.01,-0.25,-1.13,-0.038,-0.196,9.811,0.0,0.0,0.0
1777734855.8863635,-5.01,-0.25,-1.13,-0.042,-0.199,9.811,-0.01,-0.01,0.0
1777734855.8963752,-5.01,-0.25,-1.13,-0.044,-0.199,9.811,0.0,0.0,0.0
1777734855.9063013,-5.01,-0.25,-1.13,-0.043,-0.199,9.811,0.0,0.0,0.0
1777734855.9163065,-5.01,-0.25,-1.13,-0.036,-0.2,9.811,-0.01,0.0,-0.01
1777734855.9263618,-5.01,-0.25,-1.13,-0.037,-0.196,9.811,-0.01,0.0,0.0
1777734855.9363613,-5.01,-0.25,-1.13,-0.04,-0.193,9.811,0.0,-0.01,0.0
1777734855.946318,-5.01,-0.25,-1.13,-0.044,-0.196,9.811,-0.01,0.0,0.0
1777734855.9563394,-5.01,-0.25,-1.13,-0.049,-0.189,9.811,0.0,0.0,0.0
1777734855.9663846,-5.01,-0.25,-1.13,-0.046,-0.189,9.811,0.0,-0.01,0.0
1777734855.9763372,-5.01,-0.25,-1.13,-0.044,-0.193,9.811,-0.01,-0.01,0.0
1777734855.9863186,-5.01,-0.25,-1.13,-0.043,-0.194,9.811,-0.01,-0.01,0.0
1777734855.9964278,-5.01,-0.25,-1.13,-0.042,-0.192,9.811,0.0,0.0,0.0
1777734856.0063725,-5.01,-0.25,-1.13,-0.047,-0.198,9.811,0.0,0.0,0.0
1777734856.0163538,-5.01,-0.25,-1.13,-0.055,-0.198,9.811,0.0,0.0,0.0
1777734856.0263326,-5.01,-0.25,-1.13,-0.051,-0.201,9.811,0.0,0.0,0.0
1777734856.0354514,-5.02,-0.25,-1.13,-0.044,-0.198,9.811,0.0,0.0,0.0
1777734856.0463295,-5.02,-0.25,-1.13,-0.042,-0.198,9.811,0.0,0.0,0.0
1777734856.05632,-5.01,-0.25,-1.13,-0.043,-0.199,9.811,0.0,0.0,-0.01
1777734856.0657015,-5.01,-0.25,-1.13,-0.049,-0.195,9.811,0.0,-0.01,-0.01
1777734856.07673,-5.01,-0.25,-1.13,-0.05,-0.195,9.811,0.0,-0.01,-0.01
1777734856.0863414,-5.01,-0.25,-1.13,-0.047,-0.196,9.811,0.0,-0.01,-0.01
1777734856.0963356,-5.01,-0.25,-1.13,-0.04,-0.199,9.811,0.0,-0.01,0.0
1777734856.106382,-5.01,-0.25,-1.13,-0.038,-0.201,9.811,0.0,0.0,0.0
1777734856.1163554,-5.01,-0.25,-1.13,-0.038,-0.2,9.811,0.0,0.0,-0.01
1777734856.1254742,-5.02,-0.25,-1.13,-0.042,-0.194,9.811,0.0,-0.01,0.0
1777734856.136365,-5.02,-0.25,-1.13,-0.043,-0.196,9.811,0.0,0.0,0.0
1777734856.1454594,-5.02,-0.25,-1.13,-0.047,-0.195,9.811,0.0,0.0,-0.01
1777734856.1554573,-5.02,-0.25,-1.13,-0.043,-0.195,9.811,0.0,0.0,0.0
1777734856.1654427,-5.02,-0.25,-1.13,-0.046,-0.193,9.811,0.0,-0.01,0.0
1777734856.176369,-5.02,-0.25,-1.13,-0.044,-0.192,9.811,0.0,-0.01,0.0
1777734856.1854606,-5.02,-0.25,-1.13,-0.047,-0.192,9.811,0.0,0.0,0.0
1777734856.196359,-5.02,-0.25,-1.13,-0.042,-0.189,9.811,0.0,-0.01,0.0
1777734856.2054849,-5.02,-0.25,-1.13,-0.04,-0.19,9.811,-0.01,-0.01,0.0
1777734856.2154794,-5.02,-0.25,-1.13,-0.038,-0.19,9.811,0.0,-0.01,0.0
1777734856.2254488,-5.02,-0.25,-1.13,-0.041,-0.193,9.811,-0.01,0.0,0.0
1777734856.2354872,-5.02,-0.25,-1.13,-0.04,-0.194,9.811,0.0,0.0,0.0
1777734856.2454493,-5.02,-0.25,-1.13,-0.034,-0.192,9.811,0.0,-0.01,0.0
1777734856.2554705,-5.02,-0.25,-1.13,-0.03,-0.192,9.811,0.0,-0.01,0.0
1777734856.2658074,-5.02,-0.25,-1.12,-0.031,-0.193,9.811,0.0,-0.01,0.0
1777734856.2754567,-5.02,-0.25,-1.12,-0.032,-0.198,9.811,-0.01,0.0,0.0
1777734856.2854638,-5.02,-0.25,-1.12,-0.041,-0.196,9.811,0.0,0.0,0.0
1777734856.2954926,-5.02,-0.25,-1.12,-0.043,-0.198,9.811,0.0,0.0,-0.01
1777734856.3055081,-5.02,-0.25,-1.12,-0.047,-0.196,9.811,0.0,-0.01,-0.01
1777734856.3154747,-5.02,-0.25,-1.12,-0.041,-0.193,9.811,-0.01,0.0,0.0
1777734856.3254585,-5.02,-0.25,-1.12,-0.038,-0.2,9.811,0.0,0.0,-0.01
1777734856.3355105,-5.02,-0.25,-1.13,-0.04,-0.194,9.811,0.0,0.0,0.0
1777734856.3454514,-5.02,-0.25,-1.13,-0.04,-0.194,9.811,-0.01,0.0,0.0
1777734856.3554904,-5.02,-0.25,-1.12,-0.047,-0.192,9.811,0.0,0.0,-0.01
1777734856.3655005,-5.02,-0.25,-1.12,-0.049,-0.194,9.811,0.0,0.0,-0.01
1777734856.3754942,-5.02,-0.25,-1.12,-0.047,-0.195,9.811,0.0,0.0,-0.01
1777734856.385486,-5.02,-0.25,-1.12,-0.046,-0.194,9.811,-0.01,0.0,0.0
1777734856.3955116,-5.02,-0.25,-1.12,-0.046,-0.19,9.811,0.0,0.0,0.0
1777734856.405483,-5.02,-0.25,-1.12,-0.04,-0.188,9.811,0.0,-0.01,0.0
1777734856.4157984,-5.02,-0.25,-1.12,-0.041,-0.184,9.811,0.0,0.0,0.0
1777734856.4257195,-5.02,-0.25,-1.12,-0.037,-0.181,9.811,0.0,0.0,0.0
1777734856.4355032,-5.02,-0.25,-1.12,-0.038,-0.189,9.811,0.0,0.0,0.0
1777734856.4458282,-5.02,-0.25,-1.12,-0.032,-0.194,9.811,0.0,0.0,0.0
1777734856.4554987,-5.02,-0.25,-1.12,-0.028,-0.199,9.811,-0.01,0.0,0.0
1777734856.4655123,-5.03,-0.25,-1.12,-0.04,-0.196,9.811,-0.01,0.0,0.0
1777734856.4755075,-5.03,-0.25,-1.12,-0.042,-0.195,9.811,0.0,0.0,0.0
1777734856.4854777,-5.03,-0.25,-1.12,-0.044,-0.2,9.811,-0.01,-0.01,0.0
1777734856.4954553,-5.03,-0.25,-1.13,-0.048,-0.196,9.811,-0.01,0.0,0.0
1777734856.5055127,-5.03,-0.25,-1.13,-0.044,-0.19,9.811,-0.01,-0.01,0.0
1777734856.5154855,-5.03,-0.25,-1.12,-0.042,-0.189,9.811,-0.01,0.0,0.0
1777734856.5254853,-5.03,-0.25,-1.12,-0.04,-0.187,9.811,0.0,-0.01,0.0
1777734856.5354834,-5.03,-0.25,-1.12,-0.037,-0.183,9.811,0.0,0.0,0.0
1777734856.5455275,-5.03,-0.25,-1.12,-0.036,-0.192,9.811,0.0,-0.01,0.0
1777734856.5554996,-5.03,-0.25,-1.12,-0.037,-0.196,9.811,-0.01,0.0,-0.01
1777734856.5654578,-5.03,-0.25,-1.12,-0.04,-0.194,9.811,0.0,0.0,-0.01
1777734856.5755286,-5.03,-0.25,-1.12,-0.044,-0.196,9.811,0.0,-0.01,0.0
1777734856.5854933,-5.03,-0.25,-1.12,-0.046,-0.194,9.811,0.0,0.0,0.0
1777734856.595483,-5.03,-0.25,-1.12,-0.047,-0.193,9.811,0.0,0.0,-0.01
1777734856.6054695,-5.03,-0.25,-1.12,-0.047,-0.194,9.811,0.0,0.0,0.0
1777734856.6155121,-5.03,-0.25,-1.12,-0.043,-0.196,9.811,-0.01,0.0,-0.01
1777734856.6255174,-5.03,-0.25,-1.12,-0.046,-0.195,9.811,0.0,0.0,0.0
1777734856.6354697,-5.03,-0.25,-1.12,-0.047,-0.195,9.811,0.0,0.0,-0.01
1777734856.645482,-5.03,-0.25,-1.12,-0.044,-0.196,9.811,-0.01,-0.01,-0.01
1777734856.655533,-5.03,-0.25,-1.12,-0.046,-0.193,9.811,-0.01,-0.01,-0.01
1777734856.6654832,-5.03,-0.25,-1.12,-0.053,-0.193,9.811,0.0,0.0,0.0
1777734856.6754866,-5.03,-0.25,-1.12,-0.049,-0.196,9.811,0.0,0.0,0.0
1777734856.6856322,-5.03,-0.25,-1.12,-0.043,-0.201,9.811,0.0,0.0,-0.01
1777734856.695509,-5.03,-0.25,-1.12,-0.043,-0.2,9.811,0.0,-0.01,0.0
1777734856.7054865,-5.03,-0.25,-1.12,-0.042,-0.2,9.811,0.0,0.0,-0.01
1777734856.7154832,-5.03,-0.25,-1.12,-0.041,-0.194,9.811,-0.01,0.0,0.0
1777734856.7255292,-5.03,-0.25,-1.12,-0.04,-0.192,9.811,0.0,0.0,0.0
1777734856.7360427,-5.03,-0.25,-1.12,-0.042,-0.192,9.811,-0.01,-0.01,0.0
1777734856.7460253,-5.03,-0.25,-1.12,-0.042,-0.189,9.811,0.0,-0.01,0.0
1777734856.755571,-5.03,-0.25,-1.12,-0.038,-0.186,9.811,0.0,0.0,0.0
1777734856.765535,-5.03,-0.25,-1.12,-0.043,-0.189,9.811,0.0,0.0,-0.01
1777734856.775499,-5.03,-0.25,-1.12,-0.046,-0.194,9.811,0.0,0.0,-0.01
1777734856.7854848,-5.03,-0.25,-1.12,-0.05,-0.186,9.811,0.0,-0.01,0.0
1777734856.795643,-5.03,-0.25,-1.12,-0.051,-0.184,9.811,0.0,0.0,0.0
1777734856.80552,-5.03,-0.25,-1.12,-0.048,-0.181,9.811,0.0,0.0,0.0
1777734856.8155365,-5.03,-0.26,-1.12,-0.044,-0.187,9.811,0.0,-0.01,-0.01
1777734856.8255901,-5.03,-0.25,-1.12,-0.043,-0.19,9.811,0.0,0.0,0.0
1777734856.835555,-5.03,-0.25,-1.12,-0.043,-0.196,9.811,-0.01,-0.01,-0.01
1777734856.8454883,-5.03,-0.25,-1.12,-0.047,-0.194,9.811,0.0,0.0,0.0
1777734856.8555107,-5.03,-0.25,-1.12,-0.047,-0.184,9.811,0.0,0.0,0.0
1777734856.865508,-5.03,-0.25,-1.12,-0.042,-0.183,9.811,-0.01,-0.01,0.0
1777734856.8755317,-5.03,-0.25,-1.12,-0.04,-0.189,9.811,0.0,-0.01,-0.01
1777734856.8854926,-5.02,-0.25,-1.12,-0.038,-0.196,9.811,-0.01,0.0,-0.01
1777734856.8946054,-5.02,-0.25,-1.12,-0.037,-0.201,9.811,0.0,0.0,-0.01
1777734856.9055154,-5.02,-0.25,-1.12,-0.034,-0.201,9.811,0.0,-0.01,-0.01
1777734856.9155345,-5.02,-0.25,-1.12,-0.034,-0.199,9.811,-0.01,-0.01,0.0
1777734856.9246035,-5.02,-0.25,-1.12,-0.031,-0.19,9.811,0.0,0.0,0.0
1777734856.9355252,-5.02,-0.25,-1.12,-0.041,-0.186,9.811,-0.01,0.0,0.0
1777734856.9455304,-5.03,-0.25,-1.12,-0.042,-0.187,9.811,0.0,-0.01,0.0
1777734856.9555314,-5.02,-0.25,-1.12,-0.043,-0.19,9.811,-0.01,0.0,0.0
1777734856.9654996,-5.03,-0.25,-1.12,-0.04,-0.193,9.811,0.0,-0.01,0.0
1777734856.9746115,-5.03,-0.25,-1.12,-0.041,-0.198,9.811,0.0,0.0,0.0
1777734856.9855413,-5.03,-0.25,-1.12,-0.038,-0.205,9.811,0.0,0.0,0.0
1777734856.9947026,-5.03,-0.25,-1.12,-0.041,-0.199,9.811,0.0,-0.01,0.0
1777734857.0055232,-5.03,-0.25,-1.12,-0.041,-0.198,9.811,-0.01,0.0,0.0
1777734857.0146441,-5.03,-0.25,-1.12,-0.041,-0.196,9.811,-0.01,0.0,0.0
1777734857.0246475,-5.03,-0.25,-1.12,-0.04,-0.198,9.811,0.0,-0.01,-0.01
1777734857.0346072,-5.03,-0.25,-1.12,-0.036,-0.198,9.811,0.0,-0.01,0.0
1777734857.045524,-5.03,-0.25,-1.12,-0.034,-0.195,9.811,-0.01,-0.01,0.0
1777734857.0546572,-5.03,-0.25,-1.12,-0.035,-0.193,9.811,-0.01,0.0,0.0
1777734857.0655465,-5.03,-0.25,-1.12,-0.035,-0.189,9.811,0.0,0.0,0.0
1777734857.074621,-5.03,-0.25,-1.12,-0.031,-0.189,9.811,0.0,0.0,0.0
1777734857.08468,-5.03,-0.25,-1.12,-0.036,-0.192,9.811,-0.01,0.0,-0.01
1777734857.094656,-5.03,-0.25,-1.12,-0.034,-0.19,9.811,-0.01,0.0,-0.01
1777734857.10464,-5.03,-0.25,-1.12,-0.031,-0.195,9.811,0.0,0.0,0.0
1777734857.114639,-5.03,-0.25,-1.12,-0.031,-0.198,9.811,-0.01,0.0,0.0
1777734857.124656,-5.03,-0.25,-1.12,-0.035,-0.196,9.811,-0.01,0.0,0.0
1777734857.1346583,-5.03,-0.25,-1.12,-0.038,-0.192,9.811,0.0,0.0,0.0
1777734857.1446846,-5.03,-0.25,-1.12,-0.04,-0.188,9.811,0.0,0.0,0.0
1777734857.1546528,-5.03,-0.25,-1.12,-0.034,-0.183,9.811,-0.01,0.0,0.0
1777734857.1647725,-5.03,-0.25,-1.12,-0.029,-0.184,9.811,-0.01,0.0,0.0
1777734857.1746504,-5.03,-0.25,-1.12,-0.034,-0.187,9.811,-0.01,-0.01,-0.01
1777734857.1846385,-5.03,-0.25,-1.12,-0.04,-0.194,9.811,0.0,-0.01,0.0
1777734857.1946433,-5.03,-0.25,-1.12,-0.044,-0.192,9.811,0.0,0.0,0.0
1777734857.2046688,-5.03,-0.25,-1.12,-0.04,-0.192,9.811,-0.01,0.0,0.0
1777734857.2146807,-5.03,-0.25,-1.12,-0.04,-0.188,9.811,0.0,0.0,0.0
1777734857.2246492,-5.03,-0.25,-1.12,-0.042,-0.189,9.811,0.0,0.0,0.0
1777734857.234662,-5.03,-0.25,-1.12,-0.04,-0.192,9.811,0.0,-0.01,0.0
1777734857.2446702,-5.03,-0.24,-1.12,-0.043,-0.193,9.811,0.0,-0.01,-0.01
1777734857.2547002,-5.03,-0.25,-1.12,-0.048,-0.19,9.811,0.0,0.0,-0.01
1777734857.264672,-5.03,-0.25,-1.12,-0.043,-0.193,9.811,0.0,-0.01,-0.01
1777734857.2747216,-5.03,-0.25,-1.12,-0.038,-0.193,9.811,-0.01,0.0,-0.01
1777734857.2847044,-5.03,-0.25,-1.12,-0.041,-0.194,9.811,0.0,0.0,0.0
1777734857.2946558,-5.03,-0.25,-1.12,-0.038,-0.192,9.811,-0.01,-0.01,0.0
1777734857.304659,-5.03,-0.24,-1.12,-0.043,-0.188,9.811,0.0,0.0,0.0
1777734857.314935,-5.03,-0.24,-1.12,-0.038,-0.192,9.811,0.0,0.0,0.0
1777734857.324701,-5.03,-0.24,-1.12,-0.035,-0.189,9.811,0.0,-0.01,0.0
1777734857.3346686,-5.03,-0.24,-1.12,-0.034,-0.189,9.811,0.0,-0.01,-0.01
1777734857.344681,-5.03,-0.24,-1.12,-0.032,-0.194,9.811,-0.01,0.0,-0.01
1777734857.3546972,-5.03,-0.24,-1.12,-0.037,-0.196,9.811,0.0,0.0,0.0
1777734857.3646379,-5.03,-0.25,-1.12,-0.036,-0.194,9.811,0.0,0.0,-0.01
1777734857.3746707,-5.03,-0.25,-1.12,-0.041,-0.202,9.811,-0.01,0.0,-0.01
1777734857.3846838,-5.03,-0.24,-1.12,-0.048,-0.202,9.811,0.0,0.0,-0.01
1777734857.3946807,-5.03,-0.24,-1.12,-0.044,-0.202,9.811,0.0,0.0,0.0
1777734857.40467,-5.03,-0.24,-1.12,-0.041,-0.199,9.811,0.0,-0.01,0.0
1777734857.4146593,-5.03,-0.24,-1.12,-0.04,-0.193,9.811,0.0,0.0,0.0
1777734857.424705,-5.03,-0.24,-1.12,-0.037,-0.196,9.811,0.0,-0.01,0.0
1777734857.4347672,-5.03,-0.24,-1.12,-0.035,-0.193,9.811,0.0,0.0,0.0
1777734857.4446874,-5.03,-0.24,-1.12,-0.034,-0.198,9.811,-0.01,0.0,-0.01
1777734857.454703,-5.03,-0.25,-1.12,-0.038,-0.202,9.811,0.0,0.0,0.0
1777734857.4646814,-5.03,-0.25,-1.12,-0.036,-0.196,9.811,-0.01,0.0,0.0
1777734857.4746711,-5.03,-0.25,-1.12,-0.038,-0.192,9.811,0.0,0.0,0.0
1777734857.4846773,-5.03,-0.25,-1.12,-0.038,-0.189,9.811,0.0,0.0,0.0
1777734857.4946816,-5.03,-0.25,-1.12,-0.036,-0.187,9.811,0.0,0.0,-0.01
1777734857.5046575,-5.03,-0.25,-1.12,-0.036,-0.184,9.811,-0.01,-0.01,-0.01
1777734857.514787,-5.03,-0.25,-1.12,-0.041,-0.183,9.811,-0.01,-0.01,-0.01
1777734857.5246918,-5.03,-0.25,-1.12,-0.041,-0.177,9.811,-0.01,-0.01,0.0
1777734857.5346825,-5.03,-0.25,-1.12,-0.038,-0.189,9.811,-0.01,-0.01,0.0
1777734857.544661,-5.03,-0.25,-1.12,-0.042,-0.194,9.811,-0.01,0.0,0.0
1777734857.5546637,-5.03,-0.25,-1.12,-0.037,-0.199,9.811,0.0,0.0,0.0
1777734857.5646868,-5.03,-0.25,-1.12,-0.041,-0.198,9.811,0.0,-0.01,0.0
1777734857.5746896,-5.03,-0.25,-1.12,-0.047,-0.2,9.811,0.0,0.0,0.0
1777734857.5847044,-5.03,-0.25,-1.12,-0.047,-0.199,9.811,-0.01,0.0,0.0
1777734857.5946863,-5.03,-0.25,-1.12,-0.046,-0.193,9.811,0.0,0.0,-0.01
1777734857.6046996,-5.03,-0.25,-1.12,-0.047,-0.19,9.811,0.0,0.0,-0.01
1777734857.6146872,-5.03,-0.25,-1.12,-0.043,-0.192,9.811,-0.01,0.0,-0.01
1777734857.6247206,-5.03,-0.25,-1.12,-0.041,-0.194,9.811,-0.01,0.0,0.0
1777734857.6346688,-5.03,-0.25,-1.12,-0.046,-0.195,9.811,0.0,0.0,0.0
1777734857.644707,-5.03,-0.25,-1.12,-0.042,-0.199,9.811,-0.01,-0.01,0.0
1777734857.6546733,-5.03,-0.25,-1.12,-0.042,-0.196,9.811,0.0,0.0,0.0
1777734857.6646905,-5.03,-0.25,-1.12,-0.035,-0.192,9.811,-0.01,0.0,-0.01
1777734857.674728,-5.03,-0.25,-1.12,-0.036,-0.19,9.811,0.0,0.0,0.0
1777734857.6847053,-5.03,-0.25,-1.12,-0.047,-0.194,9.811,0.0,0.0,0.0
1777734857.6947362,-5.03,-0.25,-1.12,-0.049,-0.198,9.811,0.0,0.0,0.0
1777734857.7046797,-5.03,-0.25,-1.12,-0.048,-0.199,9.811,0.0,-0.01,0.0
1777734857.71475,-5.03,-0.25,-1.12,-0.049,-0.195,9.811,0.0,-0.01,0.0
1777734857.7247288,-5.03,-0.25,-1.12,-0.047,-0.198,9.811,0.0,0.0,0.0
1777734857.7347004,-5.03,-0.25,-1.12,-0.047,-0.198,9.811,0.0,-0.01,0.0
1777734857.744721,-5.03,-0.25,-1.12,-0.044,-0.198,9.811,0.0,-0.01,0.0
1777734857.7547314,-5.03,-0.25,-1.12,-0.041,-0.199,9.811,-0.01,-0.01,0.0
1777734857.7646747,-5.03,-0.25,-1.12,-0.041,-0.19,9.811,-0.01,-0.01,0.0
1777734857.7747147,-5.03,-0.25,-1.12,-0.038,-0.193,9.811,0.0,0.0,0.0
1777734857.7847228,-5.03,-0.25,-1.12,-0.042,-0.198,9.811,-0.01,0.0,0.0
1777734857.794739,-5.03,-0.25,-1.12,-0.048,-0.19,9.811,0.0,0.0,0.0
1777734857.804741,-5.03,-0.25,-1.12,-0.046,-0.195,9.811,0.0,-0.01,-0.01
1777734857.8137944,-5.03,-0.25,-1.12,-0.041,-0.201,9.811,-0.01,0.0,-0.01
1777734857.8247306,-5.03,-0.25,-1.12,-0.043,-0.202,9.811,0.0,0.0,0.0
1777734857.8347034,-5.03,-0.25,-1.12,-0.044,-0.206,9.811,0.0,0.0,0.0
1777734857.8446846,-5.03,-0.25,-1.12,-0.044,-0.205,9.811,-0.01,0.0,0.0
1777734857.8547482,-5.03,-0.25,-1.12,-0.044,-0.195,9.811,0.0,0.0,0.0
1777734857.8647053,-5.03,-0.25,-1.12,-0.051,-0.19,9.811,0.0,-0.01,-0.01
1777734857.873925,-5.03,-0.25,-1.12,-0.05,-0.194,9.811,0.0,-0.01,0.0
1777734857.8847349,-5.03,-0.25,-1.12,-0.048,-0.19,9.811,0.0,0.0,0.0
1777734857.8938322,-5.03,-0.25,-1.12,-0.041,-0.193,9.811,0.0,0.0,0.0
1777734857.904739,-5.03,-0.25,-1.12,-0.037,-0.196,9.811,0.0,-0.01,0.0
1777734857.9143162,-5.03,-0.25,-1.12,-0.036,-0.19,9.811,0.0,0.0,0.0
1777734857.9238415,-5.03,-0.25,-1.12,-0.036,-0.195,9.811,-0.01,0.0,0.0
1777734857.934744,-5.03,-0.25,-1.12,-0.034,-0.196,9.811,-0.01,0.0,-0.01
1777734857.9438467,-5.03,-0.25,-1.12,-0.04,-0.199,9.811,-0.01,0.0,0.0
1777734857.9539418,-5.03,-0.25,-1.12,-0.047,-0.202,9.811,0.0,0.0,-0.01
1777734857.9647162,-5.03,-0.25,-1.13,-0.043,-0.195,9.811,0.0,-0.01,-0.01
1777734857.9739285,-5.03,-0.25,-1.12,-0.046,-0.196,9.811,-0.01,-0.01,0.0
1777734857.9838448,-5.03,-0.25,-1.12,-0.044,-0.195,9.811,0.0,0.0,0.0
1777734857.9938316,-5.04,-0.25,-1.12,-0.04,-0.192,9.81,0.0,0.0,0.0
1777734858.0038466,-5.04,-0.25,-1.12,-0.043,-0.187,9.81,0.0,0.0,0.0
1777734858.0139148,-5.03,-0.25,-1.12,-0.043,-0.183,9.811,0.0,-0.01,0.0
1777734858.0238547,-5.03,-0.25,-1.12,-0.043,-0.187,9.811,-0.01,0.0,0.0
1777734858.0339518,-5.03,-0.25,-1.12,-0.047,-0.201,9.811,0.0,0.0,-0.01
1777734858.043844,-5.03,-0.25,-1.12,-0.044,-0.206,9.811,-0.01,0.0,-0.01
1777734858.053851,-5.03,-0.25,-1.12,-0.042,-0.211,9.811,0.0,0.0,0.0
1777734858.063835,-5.03,-0.25,-1.13,-0.043,-0.207,9.811,0.0,0.0,0.0
1777734858.0738556,-5.04,-0.25,-1.13,-0.044,-0.201,9.811,0.0,0.0,0.0
1777734858.0838218,-5.04,-0.25,-1.12,-0.05,-0.192,9.81,0.0,0.0,0.0
1777734858.0938768,-5.04,-0.25,-1.12,-0.05,-0.188,9.81,-0.01,0.0,0.0
1777734858.1038465,-5.04,-0.25,-1.12,-0.044,-0.187,9.81,0.0,-0.01,0.0
1777734858.1138556,-5.04,-0.25,-1.12,-0.044,-0.187,9.81,-0.01,0.0,0.0
1777734858.123835,-5.04,-0.25,-1.12,-0.041,-0.194,9.81,-0.01,0.0,0.0
1777734858.1339092,-5.04,-0.25,-1.12,-0.043,-0.198,9.81,0.0,0.0,0.0
1777734858.143826,-5.04,-0.25,-1.12,-0.044,-0.194,9.81,-0.01,0.0,0.0
1777734858.1538455,-5.04,-0.26,-1.12,-0.044,-0.199,9.81,0.0,0.0,0.0
1777734858.163873,-5.04,-0.26,-1.12,-0.049,-0.199,9.81,0.0,0.0,-0.01
1777734858.1738265,-5.04,-0.26,-1.12,-0.048,-0.2,9.81,0.0,0.0,0.0
1777734858.1838593,-5.04,-0.26,-1.13,-0.046,-0.201,9.811,0.0,0.0,0.0
1777734858.1938407,-5.04,-0.26,-1.13,-0.047,-0.195,9.811,0.0,-0.01,0.0
1777734858.203866,-5.04,-0.26,-1.12,-0.037,-0.194,9.81,0.0,-0.01,0.0
1777734858.2138684,-5.04,-0.25,-1.13,-0.042,-0.195,9.811,-0.01,0.0,0.0
1777734858.2240422,-5.04,-0.25,-1.13,-0.053,-0.192,9.811,0.0,-0.01,0.0
1777734858.2338696,-5.04,-0.25,-1.13,-0.065,-0.183,9.811,-0.01,-0.01,-0.01
1777734858.243844,-5.03,-0.26,-1.13,-0.069,-0.176,9.811,-0.01,-0.01,-0.01
1777734858.2538528,-5.03,-0.26,-1.12,-0.053,-0.186,9.811,-0.01,-0.01,-0.01
1777734858.2638588,-5.03,-0.26,-1.13,-0.05,-0.186,9.811,0.0,-0.01,-0.01
1777734858.273844,-5.03,-0.25,-1.13,-0.044,-0.196,9.811,0.0,-0.01,-0.01
1777734858.2838917,-5.03,-0.25,-1.13,-0.032,-0.213,9.811,-0.01,-0.01,-0.01
1777734858.2938664,-5.03,-0.25,-1.13,-0.024,-0.225,9.811,0.0,-0.01,-0.01
1777734858.3038514,-5.03,-0.25,-1.14,-0.018,-0.223,9.811,0.0,0.0,0.0
1777734858.3138654,-5.03,-0.25,-1.14,-0.018,-0.21,9.811,0.0,0.0,0.0
1777734858.323854,-5.03,-0.25,-1.13,-0.026,-0.189,9.811,0.0,0.0,0.0
1777734858.3338685,-5.03,-0.25,-1.13,-0.04,-0.174,9.811,0.0,0.0,0.0
1777734858.3438554,-5.04,-0.25,-1.12,-0.053,-0.162,9.81,-0.01,0.0,0.0
1777734858.3538754,-5.03,-0.26,-1.12,-0.062,-0.162,9.811,-0.01,0.0,0.0
1777734858.3638422,-5.03,-0.26,-1.12,-0.062,-0.177,9.811,0.0,0.0,-0.01
1777734858.3738713,-5.03,-0.26,-1.12,-0.054,-0.2,9.811,-0.01,-0.01,-0.01
1777734858.383844,-5.03,-0.26,-1.13,-0.053,-0.21,9.811,-0.01,-0.01,-0.01
1777734858.3938813,-5.03,-0.25,-1.13,-0.047,-0.222,9.811,0.0,-0.01,-0.01
1777734858.4039803,-5.03,-0.25,-1.13,-0.04,-0.218,9.811,0.0,-0.01,0.0
1777734858.4138732,-5.03,-0.25,-1.13,-0.034,-0.206,9.811,0.0,-0.01,0.0
1777734858.4238648,-5.03,-0.25,-1.13,-0.029,-0.193,9.811,0.0,0.0,0.0
1777734858.4338806,-5.03,-0.25,-1.12,-0.028,-0.177,9.811,0.0,0.0,0.0
