timestamp,yaw,pitch,roll,accel_x,accel_y,accel_z,gyro_x,gyro_y,gyro_z
1777732980.4251475,0.01,-0.01,0.44,0.017,-0.041,-2.546,0.0,0.0,0.0
1777732980.4350274,0.01,-0.01,0.43,0.026,-0.028,0.729,-0.01,-0.01,-0.01
1777732980.4445238,0.01,-0.01,0.43,0.037,-0.019,3.137,-0.01,-0.01,-0.01
1777732980.4547212,0.01,-0.0,0.43,0.04,-0.024,4.907,-0.01,0.0,-0.01
1777732980.4645274,0.01,-0.0,0.42,0.046,-0.03,6.208,-0.01,0.0,-0.01
1777732980.4749522,0.01,-0.0,0.41,0.041,-0.037,7.164,-0.01,0.0,-0.01
1777732980.4845505,0.01,-0.0,0.41,0.038,-0.042,7.865,-0.01,0.0,-0.01
1777732980.4949858,0.01,-0.0,0.4,0.031,-0.047,8.381,-0.01,0.0,0.0
1777732980.5048268,0.01,-0.0,0.39,0.032,-0.043,8.76,-0.01,-0.01,-0.01
1777732980.514133,0.02,0.01,0.38,0.03,-0.026,9.039,-0.01,-0.01,-0.01
1777732980.5249538,0.02,0.01,0.38,0.04,-0.03,9.244,-0.01,-0.01,-0.01
1777732980.5349457,0.02,0.01,0.38,0.047,-0.019,9.393,-0.01,-0.01,-0.01
1777732980.54371,0.02,0.01,0.37,0.049,-0.014,9.503,-0.01,-0.01,-0.01
1777732980.554221,0.03,0.01,0.36,0.041,-0.016,9.585,-0.01,-0.01,-0.01
1777732980.5649414,0.03,0.01,0.36,0.042,-0.018,9.645,-0.01,0.0,-0.01
1777732980.574169,0.03,0.01,0.35,0.036,-0.025,9.689,-0.01,0.0,-0.01
1777732980.583667,0.03,0.01,0.35,0.028,-0.028,9.72,-0.01,-0.01,-0.01
1777732980.594505,0.03,0.02,0.34,0.023,-0.037,9.744,-0.01,-0.01,0.0
1777732980.6042051,0.03,0.02,0.34,0.019,-0.031,9.762,-0.01,-0.01,0.0
1777732980.6136975,0.03,0.02,0.33,0.023,-0.028,9.774,-0.01,-0.01,-0.01
1777732980.6237195,0.03,0.02,0.33,0.026,-0.028,9.784,-0.01,-0.01,-0.01
1777732980.6345098,0.03,0.03,0.32,0.032,-0.028,9.791,-0.01,-0.01,-0.01
1777732980.6435945,0.03,0.03,0.31,0.038,-0.026,9.796,-0.01,-0.01,0.0
1777732980.6536741,0.03,0.03,0.31,0.042,-0.018,9.799,-0.01,0.0,-0.01
1777732980.663613,0.03,0.03,0.31,0.035,-0.02,9.803,-0.01,0.0,-0.01
1777732980.6735985,0.04,0.03,0.3,0.03,-0.019,9.804,-0.01,0.0,-0.01
1777732980.6836007,0.04,0.03,0.29,0.024,-0.024,9.806,-0.01,-0.01,-0.01
1777732980.6936176,0.04,0.03,0.29,0.017,-0.031,9.806,-0.01,-0.01,-0.01
1777732980.7036083,0.04,0.03,0.29,0.013,-0.026,9.808,-0.01,-0.01,-0.01
1777732980.7135816,0.04,0.03,0.28,0.013,-0.018,9.809,-0.01,-0.01,-0.01
1777732980.7236328,0.04,0.03,0.28,0.02,-0.007,9.809,-0.01,-0.01,-0.01
1777732980.7336254,0.05,0.03,0.27,0.034,-0.005,9.809,-0.01,-0.01,-0.01
1777732980.743607,0.05,0.04,0.27,0.029,-0.001,9.809,-0.01,0.0,-0.01
1777732980.7536077,0.05,0.04,0.27,0.029,0.007,9.81,-0.01,0.0,-0.01
1777732980.763622,0.05,0.04,0.27,0.029,0.001,9.81,-0.01,-0.01,-0.01
1777732980.773567,0.05,0.04,0.26,0.025,0.002,9.81,-0.01,0.0,-0.01
1777732980.783593,0.06,0.04,0.26,0.018,-0.006,9.81,-0.01,-0.01,-0.01
1777732980.7936122,0.06,0.04,0.25,0.014,0.0,9.81,-0.01,-0.01,-0.01
1777732980.803589,0.06,0.04,0.25,0.012,-0.005,9.81,-0.01,-0.01,-0.01
1777732980.8135877,0.06,0.04,0.24,0.014,-0.012,9.81,-0.01,-0.01,-0.01
1777732980.824031,0.06,0.04,0.24,0.022,-0.011,9.81,-0.01,-0.01,-0.01
1777732980.8338552,0.06,0.04,0.24,0.023,-0.001,9.81,-0.01,-0.01,-0.01
1777732980.8440444,0.06,0.05,0.24,0.024,0.002,9.81,-0.01,-0.01,0.0
1777732980.8538535,0.06,0.05,0.24,0.029,0.012,9.81,-0.01,-0.01,0.0
1777732980.8639712,0.06,0.05,0.24,0.028,0.008,9.81,-0.01,-0.01,-0.01
1777732980.8738475,0.07,0.05,0.23,0.024,0.002,9.81,-0.01,-0.01,-0.01
1777732980.8839939,0.07,0.05,0.22,0.018,-0.006,9.81,-0.01,0.0,-0.01
1777732980.8935921,0.07,0.05,0.22,0.023,-0.012,9.81,-0.01,0.0,-0.01
1777732980.9035904,0.07,0.05,0.22,0.016,-0.005,9.81,-0.01,-0.01,0.0
1777732980.914023,0.07,0.05,0.22,0.023,-0.006,9.81,-0.01,-0.01,-0.01
1777732980.9236255,0.08,0.05,0.21,0.026,-0.002,9.81,-0.01,-0.01,-0.01
1777732980.933581,0.08,0.06,0.21,0.032,-0.005,9.81,-0.01,-0.01,-0.01
1777732980.9435565,0.08,0.06,0.21,0.034,0.0,9.81,-0.01,-0.01,-0.01
1777732980.9535794,0.08,0.06,0.2,0.035,0.0,9.81,-0.01,-0.01,0.0
1777732980.9635842,0.08,0.06,0.2,0.035,0.006,9.81,-0.01,0.0,-0.01
1777732980.973566,0.08,0.06,0.2,0.029,-0.004,9.81,-0.01,-0.01,-0.01
1777732980.983576,0.08,0.06,0.2,0.028,-0.018,9.81,-0.01,0.0,-0.01
1777732980.9935951,0.08,0.06,0.19,0.022,-0.025,9.81,-0.01,0.0,-0.01
1777732981.003566,0.08,0.06,0.18,0.022,-0.017,9.81,-0.01,-0.01,-0.01
1777732981.01357,0.08,0.06,0.18,0.02,-0.005,9.81,-0.01,-0.01,0.0
1777732981.0235872,0.08,0.06,0.18,0.019,0.006,9.81,-0.01,-0.01,0.0
1777732981.0335705,0.09,0.06,0.18,0.022,0.005,9.81,-0.01,-0.01,-0.01
1777732981.0437727,0.09,0.06,0.17,0.02,-0.001,9.81,-0.01,0.0,-0.01
1777732981.0535824,0.09,0.06,0.17,0.023,-0.006,9.81,-0.01,-0.01,-0.01
1777732981.0636673,0.09,0.06,0.17,0.024,0.006,9.81,-0.01,-0.01,0.0
1777732981.0736334,0.09,0.06,0.17,0.02,0.013,9.81,-0.01,-0.01,0.0
1777732981.0835893,0.09,0.06,0.17,0.018,0.012,9.81,-0.01,-0.01,-0.01
1777732981.0936244,0.1,0.06,0.16,0.014,0.001,9.81,-0.01,0.0,-0.01
1777732981.103713,0.1,0.06,0.16,0.017,-0.005,9.81,-0.01,-0.01,-0.01
1777732981.1135938,0.1,0.06,0.15,0.016,-0.002,9.81,-0.01,-0.01,-0.01
1777732981.1235995,0.1,0.06,0.15,0.016,0.0,9.81,-0.01,-0.01,0.0
1777732981.1335876,0.1,0.06,0.15,0.013,0.011,9.81,-0.01,-0.01,-0.01
1777732981.1440012,0.1,0.06,0.15,0.013,0.007,9.81,-0.01,-0.01,-0.01
1777732981.1540754,0.1,0.06,0.15,0.017,0.008,9.81,-0.01,-0.01,-0.01
1777732981.1640766,0.1,0.06,0.15,0.017,0.018,9.81,-0.01,0.0,-0.01
1777732981.1745622,0.1,0.06,0.15,0.019,0.018,9.81,-0.01,-0.01,0.0
1777732981.183567,0.1,0.06,0.15,0.016,0.017,9.81,-0.01,0.0,-0.01
1777732981.193892,0.1,0.06,0.14,0.01,0.017,9.81,-0.01,0.0,-0.01
1777732981.2035773,0.11,0.06,0.14,0.02,0.007,9.81,-0.01,0.0,-0.01
1777732981.2135677,0.11,0.06,0.14,0.023,0.005,9.81,-0.01,-0.01,-0.01
1777732981.2236478,0.11,0.06,0.13,0.023,0.006,9.81,-0.01,0.0,-0.01
1777732981.2335663,0.11,0.07,0.13,0.024,0.011,9.81,-0.01,-0.01,-0.01
1777732981.244459,0.11,0.07,0.13,0.025,0.012,9.81,-0.01,0.0,-0.01
1777732981.2546587,0.11,0.07,0.13,0.031,0.013,9.81,-0.01,0.0,-0.01
1777732981.2655149,0.12,0.07,0.13,0.026,0.012,9.81,-0.01,-0.01,-0.01
1777732981.2744844,0.12,0.07,0.13,0.024,0.013,9.81,-0.01,0.0,-0.01
1777732981.2835953,0.12,0.07,0.13,0.024,0.013,9.81,-0.01,0.0,-0.01
1777732981.293568,0.12,0.07,0.13,0.025,0.01,9.81,-0.01,-0.01,-0.01
1777732981.3035395,0.12,0.07,0.12,0.022,0.0,9.81,-0.01,0.0,-0.01
1777732981.3136065,0.12,0.07,0.12,0.024,-0.001,9.81,-0.01,0.0,-0.01
1777732981.3237274,0.12,0.07,0.11,0.025,0.005,9.81,-0.01,-0.01,-0.01
1777732981.341031,0.12,0.07,0.11,0.023,0.013,9.81,-0.01,0.0,-0.01
1777732981.3461378,0.13,0.07,0.11,0.026,0.019,9.81,-0.01,0.0,0.0
1777732981.3535562,0.13,0.07,0.11,0.025,0.02,9.81,-0.01,-0.01,-0.01
1777732981.3636065,0.13,0.07,0.11,0.026,0.019,9.809,-0.01,-0.01,-0.01
1777732981.3735874,0.13,0.07,0.11,0.025,0.013,9.809,-0.01,-0.01,-0.01
1777732981.4021757,0.13,0.07,0.1,0.018,0.017,9.809,-0.01,0.0,-0.01
1777732981.4049382,0.13,0.07,0.1,0.017,0.019,9.809,-0.01,-0.01,-0.01
1777732981.4071867,0.13,0.07,0.1,0.023,0.024,9.809,-0.01,0.0,0.0
1777732981.4127455,0.13,0.07,0.1,0.019,0.017,9.809,-0.01,-0.01,-0.01
1777732981.4236488,0.14,0.07,0.11,0.017,0.018,9.809,-0.01,0.0,-0.01
1777732981.4335742,0.14,0.08,0.11,0.019,0.012,9.809,-0.01,-0.01,-0.01
1777732981.4430084,0.14,0.08,0.1,0.02,0.016,9.809,-0.01,-0.01,-0.01
1777732981.4527454,0.14,0.08,0.1,0.022,0.024,9.809,-0.01,-0.01,0.0
1777732981.462749,0.14,0.08,0.11,0.028,0.034,9.809,-0.01,-0.01,0.0
1777732981.474183,0.15,0.08,0.11,0.028,0.03,9.809,-0.01,0.0,-0.01
1777732981.48304,0.15,0.08,0.1,0.029,0.02,9.809,-0.01,-0.01,-0.01
1777732981.4930716,0.15,0.08,0.1,0.024,0.014,9.809,-0.01,-0.01,-0.01
1777732981.5028417,0.15,0.08,0.1,0.024,0.014,9.809,-0.01,0.0,0.0
1777732981.5127802,0.15,0.08,0.1,0.02,0.028,9.809,-0.01,0.0,0.0
1777732981.525558,0.15,0.08,0.1,0.018,0.032,9.809,-0.01,-0.01,0.0
1777732981.5327191,0.15,0.08,0.1,0.019,0.025,9.809,-0.01,-0.01,-0.01
1777732981.5428376,0.15,0.08,0.09,0.019,0.025,9.809,-0.01,-0.01,-0.01
1777732981.5542948,0.15,0.08,0.09,0.018,0.016,9.809,-0.01,-0.01,-0.01
1777732981.5635297,0.15,0.08,0.09,0.018,0.023,9.809,-0.01,-0.01,0.0
1777732981.5727067,0.15,0.08,0.09,0.019,0.024,9.809,-0.01,0.0,0.0
1777732981.5840075,0.16,0.08,0.09,0.02,0.029,9.809,-0.01,-0.01,-0.01
1777732981.5927315,0.16,0.08,0.09,0.017,0.019,9.809,-0.01,0.0,-0.01
1777732981.60277,0.16,0.08,0.08,0.023,0.016,9.809,-0.01,0.0,-0.01
1777732981.6126657,0.16,0.08,0.08,0.02,0.014,9.809,-0.01,-0.01,-0.01
1777732981.6238515,0.16,0.08,0.08,0.024,0.017,9.809,-0.01,-0.01,0.0
1777732981.6327224,0.16,0.08,0.08,0.026,0.023,9.809,-0.01,-0.01,0.0
1777732981.6427531,0.17,0.08,0.08,0.032,0.024,9.809,-0.01,0.0,-0.01
1777732981.652746,0.17,0.08,0.08,0.03,0.017,9.809,-0.01,-0.01,-0.01
1777732981.6627157,0.17,0.08,0.08,0.029,0.02,9.809,-0.01,-0.01,-0.01
1777732981.6727166,0.17,0.08,0.08,0.026,0.023,9.809,-0.01,-0.01,0.0
1777732981.6851563,0.17,0.08,0.08,0.016,0.034,9.809,-0.01,-0.01,0.0
1777732981.6927595,0.17,0.08,0.08,0.012,0.028,9.809,-0.01,-0.01,-0.01
1777732981.702712,0.17,0.08,0.08,0.011,0.036,9.809,-0.01,-0.01,-0.01
1777732981.7127528,0.17,0.08,0.08,0.014,0.029,9.809,-0.01,0.0,-0.01
1777732981.722726,0.17,0.08,0.08,0.017,0.032,9.809,-0.01,-0.01,0.0
1777732981.7327375,0.17,0.08,0.08,0.014,0.038,9.809,-0.01,-0.01,0.0
1777732981.7427573,0.18,0.08,0.08,0.017,0.031,9.809,-0.01,-0.01,-0.01
1777732981.752716,0.18,0.08,0.08,0.018,0.018,9.809,-0.01,-0.01,-0.01
1777732981.7650776,0.18,0.08,0.07,0.02,0.011,9.809,-0.01,-0.01,-0.01
1777732981.7732325,0.18,0.08,0.07,0.018,0.022,9.809,-0.01,-0.01,0.0
1777732981.7826757,0.18,0.08,0.08,0.007,0.024,9.809,-0.01,-0.01,0.0
1777732981.7927473,0.18,0.08,0.07,0.004,0.031,9.809,-0.01,-0.01,-0.01
1777732981.804518,0.19,0.08,0.07,0.014,0.03,9.809,-0.01,-0.01,-0.01
1777732981.8127096,0.19,0.08,0.07,0.016,0.019,9.809,-0.01,-0.01,-0.01
1777732981.822676,0.19,0.08,0.07,0.023,0.017,9.809,-0.01,-0.01,-0.01
1777732981.8330066,0.19,0.08,0.07,0.022,0.026,9.809,-0.01,-0.01,-0.01
1777732981.8426776,0.19,0.08,0.07,0.022,0.036,9.809,-0.01,-0.01,0.0
1777732981.8527138,0.19,0.09,0.07,0.022,0.04,9.809,-0.01,0.0,-0.01
1777732981.8626862,0.2,0.09,0.07,0.018,0.034,9.809,-0.01,-0.01,-0.01
1777732981.8726666,0.2,0.09,0.07,0.016,0.023,9.809,-0.01,-0.01,-0.01
1777732981.8839655,0.2,0.09,0.07,0.013,0.019,9.809,-0.01,-0.01,-0.01
1777732981.8927047,0.2,0.08,0.06,0.013,0.023,9.809,-0.01,-0.01,0.0
1777732981.9026837,0.2,0.08,0.06,0.013,0.024,9.809,-0.01,0.0,0.0
1777732981.912687,0.2,0.08,0.06,0.018,0.023,9.809,-0.01,-0.01,-0.01
1777732981.9227095,0.2,0.08,0.06,0.019,0.019,9.809,-0.01,-0.01,-0.01
1777732981.9326866,0.2,0.08,0.06,0.018,0.023,9.809,-0.01,0.0,-0.01
1777732981.9426901,0.2,0.08,0.06,0.019,0.019,9.809,-0.01,0.0,-0.01
1777732981.9532459,0.21,0.08,0.06,0.02,0.018,9.809,-0.01,-0.01,-0.01
1777732981.9627018,0.21,0.08,0.06,0.02,0.028,9.809,-0.01,0.0,-0.01
1777732981.9738116,0.21,0.09,0.06,0.016,0.029,9.809,-0.01,0.0,-0.01
1777732981.9826746,0.21,0.08,0.06,0.014,0.034,9.809,-0.01,-0.01,-0.01
1777732981.9932365,0.21,0.08,0.06,0.018,0.032,9.809,-0.01,0.0,-0.01
1777732982.0026627,0.22,0.08,0.06,0.019,0.036,9.809,-0.01,-0.01,-0.01
1777732982.0127168,0.22,0.09,0.06,0.024,0.03,9.809,-0.01,0.0,-0.01
1777732982.0226824,0.22,0.09,0.06,0.019,0.024,9.809,-0.01,-0.01,-0.01
1777732982.0326471,0.22,0.09,0.06,0.02,0.023,9.809,-0.01,-0.01,-0.01
1777732982.042697,0.22,0.09,0.06,0.018,0.019,9.809,-0.01,-0.01,-0.01
1777732982.052681,0.22,0.08,0.06,0.016,0.019,9.809,-0.01,0.0,-0.01
1777732982.0627027,0.22,0.08,0.06,0.016,0.017,9.809,-0.01,0.0,-0.01
1777732982.0727012,0.22,0.08,0.06,0.006,0.013,9.809,-0.01,-0.01,-0.01
1777732982.0826533,0.22,0.08,0.05,0.011,0.02,9.809,-0.01,0.0,-0.01
1777732982.0927062,0.22,0.08,0.05,0.017,0.025,9.809,-0.01,-0.01,-0.01
1777732982.1031115,0.22,0.08,0.05,0.017,0.028,9.809,-0.01,-0.01,-0.01
1777732982.1126375,0.22,0.08,0.05,0.018,0.026,9.809,-0.01,0.0,-0.01
1777732982.122776,0.23,0.09,0.05,0.016,0.017,9.809,-0.01,-0.01,-0.01
1777732982.132663,0.23,0.08,0.05,0.013,0.014,9.809,-0.01,-0.01,-0.01
1777732982.1426933,0.23,0.08,0.05,0.013,0.014,9.809,-0.01,0.0,0.0
1777732982.153113,0.23,0.09,0.04,0.012,0.019,9.809,-0.01,-0.01,-0.01
1777732982.1626437,0.23,0.08,0.05,0.011,0.026,9.809,-0.01,-0.01,-0.01
1777732982.1735563,0.23,0.08,0.05,0.012,0.028,9.809,-0.01,-0.01,-0.01
1777732982.1826777,0.24,0.08,0.05,0.014,0.029,9.809,-0.01,-0.01,-0.01
1777732982.192651,0.24,0.09,0.05,0.014,0.034,9.809,-0.01,-0.01,-0.01
1777732982.201851,0.24,0.09,0.05,0.018,0.032,9.809,-0.01,-0.01,-0.01
1777732982.2126777,0.24,0.09,0.04,0.022,0.03,9.809,-0.01,-0.01,-0.01
1777732982.222652,0.24,0.09,0.04,0.019,0.031,9.809,-0.01,0.0,-0.01
1777732982.2318337,0.24,0.09,0.04,0.018,0.025,9.809,-0.01,-0.01,-0.01
1777732982.2426643,0.24,0.09,0.04,0.014,0.036,9.809,-0.01,-0.01,-0.01
1777732982.252638,0.24,0.09,0.04,0.008,0.04,9.809,-0.01,0.0,-0.01
1777732982.262887,0.24,0.09,0.05,0.011,0.04,9.809,-0.01,-0.01,-0.01
1777732982.272648,0.24,0.09,0.05,0.02,0.03,9.809,-0.01,-0.01,-0.01
1777732982.2818644,0.24,0.09,0.04,0.024,0.029,9.809,-0.01,-0.01,-0.01
1777732982.2994165,0.24,0.09,0.04,0.03,0.028,9.809,-0.01,-0.01,-0.01
1777732982.3018193,0.25,0.09,0.04,0.03,0.028,9.809,-0.01,-0.01,-0.01
1777732982.3126633,0.25,0.09,0.04,0.029,0.032,9.809,-0.01,-0.01,-0.01
1777732982.3218358,0.25,0.09,0.04,0.029,0.023,9.809,-0.01,-0.01,-0.01
1777732982.3318233,0.26,0.09,0.04,0.022,0.012,9.809,-0.01,-0.01,-0.01
1777732982.3418493,0.26,0.09,0.04,0.017,0.012,9.809,-0.01,0.0,-0.01
1777732982.351836,0.26,0.09,0.04,0.012,0.016,9.809,-0.01,-0.01,0.0
1777732982.3618455,0.26,0.09,0.04,0.011,0.019,9.809,-0.01,-0.01,0.0
1777732982.3718345,0.26,0.09,0.04,0.016,0.019,9.809,-0.01,-0.01,-0.01
1777732982.3818216,0.26,0.09,0.04,0.012,0.012,9.809,-0.01,-0.01,-0.01
1777732982.3934307,0.27,0.09,0.04,0.014,0.008,9.809,-0.01,-0.01,-0.01
1777732982.4018314,0.27,0.09,0.04,0.02,0.012,9.809,-0.01,-0.01,-0.01
1777732982.4118714,0.27,0.09,0.04,0.02,0.019,9.809,-0.01,0.0,0.0
1777732982.4218261,0.27,0.09,0.04,0.022,0.022,9.809,-0.01,-0.01,-0.01
1777732982.4318306,0.27,0.09,0.04,0.018,0.024,9.809,-0.01,-0.01,-0.01
1777732982.4418373,0.27,0.09,0.04,0.019,0.029,9.809,-0.01,0.0,-0.01
1777732982.4531388,0.27,0.09,0.04,0.017,0.026,9.809,-0.01,-0.01,-0.01
1777732982.4618092,0.27,0.09,0.04,0.01,0.029,9.809,-0.01,-0.01,-0.01
1777732982.4718375,0.27,0.09,0.03,0.011,0.023,9.809,-0.01,-0.01,0.0
1777732982.4827263,0.27,0.09,0.03,0.01,0.03,9.809,-0.01,0.0,-0.01
1777732982.491873,0.27,0.09,0.04,0.013,0.029,9.809,-0.01,0.0,-0.01
1777732982.5018463,0.28,0.09,0.03,0.017,0.023,9.809,-0.01,-0.01,-0.01
1777732982.511804,0.28,0.09,0.03,0.019,0.035,9.809,-0.01,0.0,-0.01
1777732982.5218437,0.28,0.09,0.04,0.017,0.03,9.809,-0.01,0.0,-0.01
1777732982.5318458,0.28,0.09,0.03,0.01,0.031,9.809,0.0,-0.01,0.0
1777732982.54221,0.28,0.09,0.03,0.016,0.03,9.809,-0.01,-0.01,-0.01
1777732982.5518126,0.28,0.09,0.03,0.014,0.03,9.809,-0.01,-0.01,-0.01
1777732982.5618465,0.28,0.09,0.04,0.016,0.034,9.809,-0.01,0.0,-0.01
1777732982.5718174,0.29,0.09,0.03,0.012,0.023,9.809,-0.01,0.0,-0.01
1777732982.581756,0.29,0.09,0.03,0.016,0.014,9.809,-0.01,0.0,-0.01
1777732982.591814,0.29,0.09,0.03,0.023,0.022,9.809,-0.01,-0.01,-0.01
1777732982.602087,0.29,0.09,0.03,0.02,0.024,9.809,-0.01,-0.01,-0.01
1777732982.611786,0.29,0.09,0.03,0.014,0.038,9.809,-0.01,-0.01,-0.01
1777732982.6218276,0.29,0.09,0.03,0.011,0.035,9.809,-0.01,-0.01,-0.01
1777732982.631807,0.29,0.09,0.03,0.014,0.032,9.809,-0.01,-0.01,-0.01
1777732982.6418064,0.29,0.09,0.03,0.011,0.028,9.809,-0.01,0.0,-0.01
1777732982.651756,0.29,0.09,0.03,0.012,0.025,9.809,-0.01,-0.01,-0.01
1777732982.661802,0.29,0.09,0.03,0.016,0.026,9.809,-0.01,-0.01,-0.01
1777732982.673128,0.29,0.09,0.03,0.013,0.026,9.809,-0.01,-0.01,0.0
1777732982.6817632,0.29,0.09,0.03,0.008,0.024,9.809,-0.01,-0.01,-0.01
1777732982.6918097,0.3,0.09,0.03,0.01,0.026,9.809,-0.01,0.0,-0.01
1777732982.7017658,0.3,0.09,0.03,0.007,0.02,9.809,-0.01,-0.01,-0.01
1777732982.7118611,0.3,0.09,0.03,0.008,0.019,9.809,-0.01,-0.01,-0.01
1777732982.722463,0.3,0.09,0.03,0.01,0.024,9.809,-0.01,-0.01,-0.01
1777732982.7329633,0.3,0.09,0.03,0.012,0.031,9.809,-0.01,0.0,-0.01
1777732982.743115,0.31,0.09,0.03,0.014,0.038,9.809,-0.01,0.0,-0.01
1777732982.7524366,0.31,0.09,0.03,0.017,0.035,9.809,-0.01,-0.01,-0.01
1777732982.762298,0.31,0.09,0.03,0.013,0.031,9.809,-0.01,-0.01,-0.01
1777732982.772346,0.31,0.09,0.03,0.006,0.028,9.809,-0.01,-0.01,-0.01
1777732982.7820387,0.31,0.09,0.03,0.013,0.026,9.809,-0.01,0.0,-0.01
1777732982.791786,0.31,0.09,0.03,0.017,0.03,9.809,-0.01,0.0,-0.01
1777732982.8017876,0.31,0.09,0.03,0.016,0.035,9.809,-0.01,-0.01,0.0
1777732982.8118951,0.31,0.09,0.03,0.017,0.041,9.809,-0.01,0.0,0.0
1777732982.8217719,0.31,0.09,0.03,0.017,0.043,9.809,-0.01,-0.01,-0.01
1777732982.8317583,0.31,0.09,0.03,0.017,0.037,9.809,-0.01,0.0,-0.01
1777732982.841768,0.32,0.09,0.03,0.014,0.028,9.809,-0.01,0.0,-0.01
1777732982.8521283,0.32,0.09,0.03,0.012,0.02,9.809,-0.01,0.0,-0.01
1777732982.8617816,0.32,0.08,0.03,0.01,0.024,9.809,-0.01,-0.01,0.0
1777732982.8717854,0.32,0.08,0.03,0.013,0.029,9.809,-0.01,0.0,-0.01
1777732982.8817422,0.32,0.08,0.03,0.013,0.034,9.809,-0.01,-0.01,-0.01
1777732982.8917856,0.33,0.08,0.03,0.016,0.024,9.809,-0.01,-0.01,-0.01
1777732982.90178,0.33,0.09,0.03,0.022,0.018,9.809,-0.01,-0.01,-0.01
1777732982.9122446,0.33,0.09,0.02,0.02,0.024,9.809,-0.01,-0.01,0.0
1777732982.921773,0.33,0.09,0.02,0.026,0.028,9.809,-0.01,0.0,0.0
1777732982.9317682,0.33,0.09,0.03,0.028,0.03,9.809,-0.01,-0.01,-0.01
1777732982.941731,0.33,0.09,0.02,0.026,0.029,9.809,-0.01,-0.01,-0.01
1777732982.9517992,0.34,0.09,0.02,0.019,0.029,9.809,-0.01,-0.01,-0.01
1777732982.9617512,0.34,0.09,0.02,0.02,0.032,9.809,-0.01,-0.01,-0.01
1777732982.9717436,0.34,0.09,0.02,0.016,0.036,9.809,-0.01,-0.01,-0.01
1777732982.9817529,0.34,0.09,0.02,0.014,0.038,9.809,-0.01,0.0,-0.01
1777732982.9917529,0.34,0.09,0.03,0.013,0.04,9.809,-0.01,-0.01,-0.01
1777732983.0017211,0.34,0.09,0.03,0.017,0.032,9.809,-0.01,-0.01,-0.01
1777732983.0109344,0.34,0.09,0.02,0.017,0.028,9.809,-0.01,-0.01,-0.01
1777732983.0217576,0.34,0.09,0.02,0.012,0.03,9.809,-0.01,-0.01,-0.01
1777732983.0339935,0.34,0.09,0.03,0.017,0.032,9.809,-0.01,-0.01,-0.01
1777732983.0427248,0.34,0.09,0.02,0.016,0.032,9.809,-0.01,-0.01,-0.01
1777732983.0517116,0.35,0.09,0.02,0.016,0.029,9.809,-0.01,0.0,-0.01
1777732983.0617561,0.35,0.09,0.02,0.013,0.032,9.809,-0.01,-0.01,-0.01
1777732983.0721543,0.35,0.09,0.03,0.012,0.031,9.809,-0.01,0.0,-0.01
1777732983.0818033,0.35,0.09,0.02,0.013,0.036,9.809,-0.01,0.0,-0.01
1777732983.0917854,0.35,0.09,0.03,0.016,0.034,9.809,-0.01,-0.01,-0.01
1777732983.101032,0.36,0.09,0.02,0.012,0.031,9.809,-0.01,-0.01,-0.01
1777732983.1117303,0.36,0.09,0.02,0.013,0.03,9.809,-0.01,0.0,-0.01
1777732983.1208174,0.36,0.09,0.02,0.008,0.026,9.809,-0.01,-0.01,-0.01
1777732983.131029,0.36,0.09,0.02,0.006,0.026,9.809,-0.01,-0.01,-0.01
1777732983.1417253,0.36,0.09,0.02,0.006,0.023,9.809,-0.01,-0.01,-0.01
1777732983.1508467,0.36,0.09,0.02,0.006,0.023,9.809,-0.01,-0.01,-0.01
1777732983.1608436,0.36,0.09,0.02,0.008,0.026,9.809,-0.01,-0.01,-0.01
1777732983.1708772,0.36,0.09,0.02,0.008,0.031,9.809,-0.01,-0.01,0.0
1777732983.1808667,0.36,0.09,0.02,0.017,0.038,9.809,-0.01,-0.01,-0.01
1777732983.1918123,0.36,0.09,0.02,0.016,0.035,9.809,-0.01,-0.01,-0.01
1777732983.2009008,0.37,0.09,0.02,0.019,0.031,9.809,-0.01,-0.01,-0.01
1777732983.2109616,0.37,0.09,0.02,0.026,0.02,9.809,-0.01,0.0,-0.01
1777732983.2208843,0.37,0.09,0.02,0.024,0.023,9.809,-0.01,0.0,-0.01
1777732983.231843,0.37,0.09,0.02,0.026,0.026,9.809,-0.01,0.0,0.0
1777732983.241615,0.37,0.09,0.02,0.028,0.029,9.809,-0.01,-0.01,0.0
1777732983.2508478,0.37,0.09,0.02,0.022,0.031,9.809,-0.01,-0.01,-0.01
1777732983.2608304,0.38,0.09,0.02,0.017,0.025,9.809,-0.01,0.0,-0.01
1777732983.2709012,0.38,0.09,0.02,0.019,0.011,9.809,-0.01,-0.01,-0.01
1777732983.2817624,0.38,0.09,0.02,0.018,0.02,9.809,-0.01,-0.01,0.0
1777732983.290896,0.38,0.09,0.02,0.014,0.026,9.809,-0.01,-0.01,0.0
1777732983.3008587,0.38,0.09,0.02,0.018,0.031,9.809,-0.01,-0.01,0.0
1777732983.310931,0.38,0.09,0.02,0.024,0.019,9.809,-0.01,-0.01,-0.01
1777732983.3208702,0.38,0.09,0.01,0.031,0.023,9.809,-0.01,0.0,-0.01
1777732983.3308794,0.38,0.1,0.02,0.029,0.023,9.809,-0.01,0.0,-0.01
1777732983.340879,0.38,0.1,0.01,0.025,0.03,9.809,-0.01,-0.01,0.0
1777732983.3508782,0.38,0.09,0.02,0.025,0.037,9.809,-0.01,0.0,-0.01
1777732983.361466,0.38,0.1,0.02,0.029,0.03,9.809,0.0,-0.01,-0.01
1777732983.370893,0.39,0.1,0.02,0.031,0.036,9.809,-0.01,-0.01,-0.01
1777732983.3808806,0.39,0.1,0.02,0.03,0.032,9.809,-0.01,-0.01,-0.01
1777732983.391141,0.39,0.1,0.02,0.026,0.034,9.809,-0.01,-0.01,0.0
1777732983.4010808,0.39,0.1,0.02,0.028,0.038,9.809,-0.01,-0.01,0.0
1777732983.4109547,0.39,0.1,0.02,0.022,0.041,9.809,-0.01,-0.01,-0.01
1777732983.4208565,0.39,0.1,0.02,0.025,0.035,9.809,-0.01,0.0,-0.01
1777732983.4310687,0.4,0.1,0.02,0.019,0.025,9.809,-0.01,0.0,-0.01
1777732983.4408557,0.4,0.1,0.01,0.018,0.03,9.809,-0.01,-0.01,-0.01
1777732983.45106,0.4,0.1,0.01,0.019,0.026,9.809,-0.01,0.0,-0.01
1777732983.4608495,0.4,0.1,0.01,0.014,0.035,9.809,-0.01,-0.01,-0.01
1777732983.4708414,0.4,0.1,0.01,0.018,0.03,9.809,-0.01,0.0,-0.01
1777732983.4810352,0.4,0.1,0.01,0.016,0.031,9.809,-0.01,-0.01,-0.01
1777732983.4908752,0.4,0.1,0.01,0.022,0.032,9.809,-0.01,-0.01,-0.01
1777732983.5022733,0.41,0.1,0.01,0.018,0.034,9.809,-0.01,-0.01,-0.01
1777732983.516073,0.41,0.1,0.01,0.022,0.029,9.809,-0.01,-0.01,-0.01
1777732983.5245812,0.41,0.1,0.01,0.02,0.028,9.809,-0.01,0.0,-0.01
1777732983.5308917,0.41,0.1,0.01,0.01,0.029,9.809,-0.01,-0.01,-0.01
1777732983.5408523,0.41,0.1,0.01,0.012,0.035,9.809,-0.01,-0.01,-0.01
1777732983.5509098,0.41,0.1,0.01,0.012,0.03,9.809,-0.01,0.0,-0.01
1777732983.5608716,0.41,0.1,0.01,0.006,0.032,9.809,-0.01,-0.01,-0.01
1777732983.5711634,0.41,0.1,0.01,0.006,0.029,9.809,-0.01,-0.01,-0.01
1777732983.5819087,0.41,0.1,0.01,0.007,0.026,9.809,-0.01,-0.01,-0.01
1777732983.5914414,0.41,0.1,0.01,0.014,0.029,9.809,-0.01,0.0,-0.01
1777732983.6008782,0.41,0.1,0.01,0.016,0.03,9.809,-0.01,-0.01,-0.01
1777732983.6108487,0.41,0.1,0.01,0.017,0.03,9.809,-0.01,-0.01,-0.01
1777732983.620885,0.42,0.1,0.01,0.014,0.03,9.809,-0.01,-0.01,-0.01
1777732983.6308951,0.42,0.1,0.01,0.016,0.026,9.809,-0.01,-0.01,-0.01
1777732983.6408517,0.42,0.1,0.01,0.012,0.024,9.809,-0.01,-0.01,-0.01
1777732983.6510062,0.42,0.1,0.01,0.014,0.026,9.809,-0.01,-0.01,-0.01
1777732983.6609323,0.42,0.1,0.01,0.016,0.036,9.809,-0.01,0.0,-0.01
1777732983.6709619,0.42,0.1,0.01,0.017,0.036,9.809,-0.01,-0.01,-0.01
1777732983.6808643,0.43,0.1,0.01,0.022,0.036,9.809,-0.01,-0.01,-0.01
1777732983.6914308,0.43,0.1,0.01,0.025,0.031,9.809,-0.01,-0.01,-0.01
1777732983.7008617,0.43,0.1,0.01,0.029,0.025,9.809,-0.01,0.0,-0.01
1777732983.7108934,0.43,0.1,0.01,0.022,0.024,9.809,-0.01,-0.01,-0.01
1777732983.7213488,0.43,0.1,0.01,0.014,0.028,9.809,-0.01,-0.01,0.0
1777732983.7314136,0.43,0.1,0.01,0.011,0.029,9.809,-0.01,-0.01,-0.01
1777732983.741393,0.43,0.1,0.01,0.007,0.026,9.809,-0.01,-0.01,-0.01
1777732983.7511673,0.43,0.1,0.01,0.008,0.028,9.809,-0.01,-0.01,-0.01
1777732983.7611868,0.43,0.1,0.01,0.017,0.022,9.809,-0.01,-0.01,-0.01
1777732983.7711947,0.43,0.1,0.01,0.02,0.031,9.809,-0.01,-0.01,-0.01
1777732983.781167,0.44,0.1,0.01,0.018,0.036,9.809,-0.01,-0.01,-0.01
1777732983.7914815,0.44,0.1,0.01,0.02,0.029,9.809,-0.01,0.0,-0.01
1777732983.8012378,0.44,0.1,0.01,0.02,0.019,9.809,-0.01,-0.01,-0.01
1777732983.8109171,0.44,0.1,0.01,0.018,0.02,9.809,-0.01,0.0,-0.01
1777732983.8208482,0.44,0.1,0.01,0.016,0.017,9.809,-0.01,-0.01,-0.01
1777732983.8308241,0.44,0.1,0.01,0.014,0.014,9.809,-0.01,-0.01,-0.01
1777732983.8408341,0.45,0.1,0.01,0.014,0.022,9.809,-0.01,-0.01,-0.01
1777732983.8561404,0.45,0.1,0.01,0.013,0.028,9.809,-0.01,-0.01,-0.01
1777732983.865304,0.45,0.1,0.01,0.014,0.031,9.809,-0.01,-0.01,-0.01
1777732983.8833618,0.45,0.1,0.01,0.016,0.034,9.809,-0.01,0.0,-0.01
1777732983.8845105,0.45,0.1,0.01,0.018,0.032,9.809,-0.01,0.0,-0.01
1777732983.8929715,0.45,0.1,0.01,0.018,0.023,9.809,-0.01,0.0,-0.01
1777732983.901679,0.45,0.1,0.01,0.017,0.024,9.809,-0.01,-0.01,-0.01
1777732983.913109,0.45,0.1,0.01,0.014,0.023,9.809,-0.01,0.0,-0.01
1777732983.9208074,0.46,0.1,0.01,0.012,0.018,9.809,-0.01,-0.01,-0.01
1777732983.9308212,0.46,0.1,0.01,0.013,0.016,9.809,-0.01,-0.01,-0.01
1777732983.9409425,0.46,0.1,0.01,0.017,0.024,9.809,-0.01,0.0,-0.01
1777732983.9507995,0.46,0.1,0.01,0.017,0.037,9.809,-0.01,-0.01,-0.01
1777732983.9608328,0.46,0.1,0.01,0.022,0.038,9.809,-0.01,-0.01,0.0
1777732983.9708037,0.46,0.1,0.01,0.02,0.047,9.809,-0.01,-0.01,-0.01
1777732983.9807806,0.47,0.1,0.01,0.019,0.037,9.809,-0.01,-0.01,-0.01
1777732983.9898946,0.47,0.1,0.01,0.014,0.022,9.809,-0.01,0.0,-0.01
1777732984.0008712,0.47,0.1,0.01,0.01,0.018,9.809,-0.01,0.0,-0.01
1777732984.00993,0.47,0.1,0.01,0.007,0.019,9.809,-0.01,-0.01,0.0
1777732984.0208168,0.47,0.1,0.01,0.012,0.025,9.809,-0.01,-0.01,0.0
1777732984.030822,0.47,0.1,0.01,0.006,0.028,9.809,-0.01,-0.01,-0.01
1777732984.03988,0.48,0.1,0.01,0.01,0.032,9.809,-0.01,0.0,-0.01
1777732984.0499303,0.48,0.1,0.01,0.017,0.028,9.809,-0.01,-0.01,-0.01
1777732984.0608122,0.48,0.1,0.01,0.016,0.03,9.809,-0.01,-0.01,-0.01
1777732984.0699475,0.48,0.1,0.01,0.022,0.036,9.809,-0.01,-0.01,0.0
1777732984.079927,0.48,0.1,0.01,0.016,0.038,9.809,-0.01,-0.01,0.0
1777732984.0904636,0.48,0.1,0.01,0.017,0.03,9.809,-0.01,0.0,-0.01
1777732984.0998874,0.48,0.1,0.01,0.016,0.02,9.809,-0.01,-0.01,-0.01
1777732984.1099107,0.48,0.1,0.0,0.008,0.014,9.809,-0.01,-0.01,-0.01
1777732984.1198876,0.48,0.1,0.0,0.006,0.024,9.809,-0.01,-0.01,0.0
1777732984.129965,0.48,0.1,0.0,0.004,0.034,9.809,-0.01,-0.01,0.0
1777732984.1399019,0.48,0.1,0.0,0.005,0.043,9.809,-0.01,-0.01,-0.01
1777732984.149904,0.49,0.1,0.01,0.013,0.032,9.809,-0.01,0.0,-0.01
1777732984.1599262,0.49,0.1,0.0,0.02,0.035,9.809,-0.01,-0.01,-0.01
1777732984.1699245,0.49,0.1,0.01,0.03,0.026,9.809,-0.01,-0.01,-0.01
1777732984.1799104,0.49,0.1,0.0,0.026,0.029,9.809,-0.01,0.0,-0.01
1777732984.1899052,0.49,0.1,0.0,0.019,0.035,9.809,-0.01,0.0,0.0
1777732984.1998892,0.49,0.1,0.0,0.016,0.037,9.809,-0.01,0.0,-0.01
1777732984.2098937,0.49,0.1,0.0,0.01,0.034,9.809,-0.01,0.0,-0.01
1777732984.2199147,0.5,0.1,0.0,0.011,0.036,9.809,-0.01,-0.01,-0.01
1777732984.2298942,0.5,0.1,0.01,0.012,0.035,9.809,-0.01,-0.01,-0.01
1777732984.2399092,0.5,0.1,0.01,0.016,0.036,9.809,-0.01,-0.01,0.0
1777732984.2499025,0.5,0.1,0.0,0.024,0.034,9.809,-0.01,0.0,-0.01
1777732984.2599216,0.5,0.1,0.01,0.024,0.026,9.809,-0.01,-0.01,-0.01
1777732984.2698903,0.5,0.1,0.0,0.024,0.025,9.809,-0.01,-0.01,-0.01
1777732984.2798836,0.5,0.1,0.0,0.022,0.03,9.809,-0.01,0.0,-0.01
1777732984.2899077,0.5,0.1,0.0,0.02,0.028,9.809,-0.01,0.0,-0.01
1777732984.2998655,0.5,0.1,0.0,0.014,0.03,9.809,-0.01,0.0,-0.01
1777732984.3098657,0.5,0.1,0.0,0.013,0.028,9.809,-0.01,0.0,-0.01
1777732984.31989,0.5,0.1,0.0,0.012,0.028,9.809,-0.01,-0.01,-0.01
1777732984.3298724,0.5,0.1,0.0,0.012,0.03,9.809,-0.01,-0.01,-0.01
1777732984.3398976,0.51,0.1,0.0,0.016,0.035,9.809,-0.01,-0.01,-0.01
1777732984.349906,0.51,0.1,0.0,0.023,0.032,9.809,-0.01,-0.01,-0.01
1777732984.3598645,0.51,0.1,0.0,0.024,0.032,9.809,-0.01,-0.01,-0.01
1777732984.3698647,0.51,0.1,0.0,0.017,0.031,9.809,-0.01,0.0,-0.01
1777732984.3799064,0.51,0.1,0.0,0.016,0.028,9.809,-0.01,-0.01,-0.01
1777732984.3898516,0.51,0.1,0.0,0.012,0.031,9.809,-0.01,0.0,-0.01
1777732984.399874,0.51,0.1,0.0,0.012,0.035,9.809,-0.01,0.0,-0.01
1777732984.4098942,0.52,0.1,0.0,0.019,0.042,9.809,-0.01,-0.01,-0.01
1777732984.4199045,0.52,0.1,0.01,0.018,0.038,9.809,-0.01,-0.01,-0.01
1777732984.4299028,0.52,0.1,0.0,0.018,0.042,9.809,-0.01,-0.01,-0.01
1777732984.4399388,0.52,0.1,0.01,0.023,0.03,9.809,-0.01,-0.01,-0.01
1777732984.4502764,0.52,0.1,0.0,0.019,0.032,9.809,-0.01,0.0,-0.01
1777732984.4598918,0.52,0.1,0.0,0.02,0.041,9.809,-0.01,-0.01,0.0
1777732984.469932,0.52,0.1,0.0,0.019,0.041,9.809,-0.01,-0.01,0.0
1777732984.479909,0.52,0.1,0.01,0.018,0.044,9.809,-0.01,-0.01,-0.01
1777732984.489921,0.52,0.1,0.01,0.013,0.032,9.809,-0.01,-0.01,-0.01
1777732984.499899,0.53,0.1,0.0,0.018,0.029,9.809,-0.01,-0.01,-0.01
1777732984.50989,0.53,0.1,0.0,0.019,0.03,9.809,-0.01,-0.01,0.0
1777732984.5198689,0.52,0.1,0.0,0.018,0.035,9.809,-0.01,-0.01,0.0
1777732984.5298963,0.53,0.1,0.0,0.016,0.042,9.809,-0.01,-0.01,0.0
1777732984.5398962,0.53,0.1,0.01,0.012,0.037,9.809,-0.01,0.0,-0.01
1777732984.5498867,0.53,0.1,0.0,0.014,0.032,9.809,-0.01,0.0,-0.01
1777732984.5599048,0.53,0.1,0.0,0.017,0.016,9.809,-0.01,-0.01,-0.01
1777732984.5698812,0.53,0.1,0.0,0.017,0.022,9.809,-0.01,-0.01,-0.01
1777732984.5798955,0.53,0.1,0.0,0.016,0.029,9.809,-0.01,-0.01,0.0
1777732984.5899057,0.54,0.1,0.0,0.018,0.036,9.809,-0.01,-0.01,-0.01
1777732984.5998929,0.54,0.1,0.0,0.018,0.042,9.809,-0.01,-0.01,-0.01
1777732984.609917,0.54,0.1,0.0,0.01,0.04,9.809,-0.01,-0.01,-0.01
1777732984.6198761,0.54,0.1,0.0,0.007,0.036,9.809,-0.01,-0.01,-0.01
1777732984.6298745,0.55,0.1,0.0,0.01,0.038,9.809,-0.01,0.0,0.0
1777732984.6399212,0.55,0.1,0.0,0.013,0.04,9.809,-0.01,-0.01,-0.01
1777732984.649878,0.55,0.1,0.01,0.016,0.047,9.809,-0.01,-0.01,-0.01
1777732984.6599312,0.55,0.1,0.01,0.008,0.026,9.809,-0.01,-0.01,-0.01
1777732984.6698804,0.55,0.1,0.0,0.001,0.028,9.809,-0.01,0.0,-0.01
1777732984.6799073,0.55,0.1,0.0,0.007,0.019,9.809,-0.01,0.0,-0.01
1777732984.6899033,0.55,0.1,0.0,0.013,0.028,9.809,-0.01,-0.01,0.0
1777732984.6999114,0.55,0.1,0.0,0.01,0.032,9.809,-0.01,0.0,0.0
1777732984.7098663,0.55,0.1,0.0,0.006,0.03,9.809,-0.01,-0.01,-0.01
1777732984.7198958,0.55,0.09,0.0,0.014,0.023,9.809,-0.01,0.0,-0.01
1777732984.729891,0.55,0.1,0.0,0.02,0.02,9.809,-0.01,0.0,-0.01
1777732984.7398744,0.56,0.1,0.0,0.023,0.026,9.809,-0.01,-0.01,-0.01
1777732984.749901,0.56,0.1,0.0,0.024,0.025,9.809,-0.01,-0.01,-0.01
1777732984.7598991,0.56,0.1,0.0,0.019,0.026,9.809,-0.01,0.0,-0.01
1777732984.7690406,0.56,0.1,0.0,0.011,0.029,9.809,-0.01,0.0,-0.01
1777732984.7798913,0.56,0.1,0.0,0.008,0.032,9.809,0.0,-0.01,-0.01
1777732984.7899053,0.56,0.1,0.0,0.014,0.043,9.809,-0.01,-0.01,-0.01
1777732984.7998736,0.56,0.1,0.0,0.008,0.037,9.809,-0.01,-0.01,-0.01
1777732984.809052,0.57,0.1,0.0,0.012,0.035,9.809,-0.01,-0.01,-0.01
1777732984.8190713,0.57,0.1,0.0,0.018,0.028,9.809,-0.01,-0.01,-0.01
1777732984.8299038,0.57,0.1,0.0,0.017,0.026,9.809,-0.01,-0.01,-0.01
1777732984.8390577,0.57,0.1,0.0,0.023,0.026,9.809,-0.01,-0.01,-0.01
1777732984.8498793,0.57,0.1,0.0,0.016,0.02,9.809,-0.01,-0.01,-0.01
1777732984.8590865,0.57,0.1,0.0,0.018,0.036,9.809,-0.01,0.0,-0.01
1777732984.8690464,0.57,0.1,0.0,0.01,0.031,9.809,-0.01,-0.01,-0.01
1777732984.8790777,0.57,0.1,0.0,0.011,0.04,9.809,0.0,0.0,-0.01
1777732984.8898842,0.57,0.1,0.0,0.014,0.044,9.809,-0.01,-0.01,-0.01
1777732984.899091,0.57,0.1,0.0,0.014,0.037,9.809,-0.01,-0.01,-0.01
1777732984.9092894,0.58,0.1,0.0,0.016,0.038,9.809,-0.01,0.0,-0.01
1777732984.9190772,0.58,0.1,0.0,0.012,0.02,9.809,-0.01,-0.01,-0.01
1777732984.9290726,0.58,0.09,0.0,0.016,0.029,9.809,-0.01,-0.01,-0.01
1777732984.9390638,0.58,0.09,0.0,0.018,0.022,9.809,-0.01,0.0,-0.01
1777732984.949288,0.58,0.09,0.0,0.018,0.031,9.809,0.0,-0.01,0.0
1777732984.9590626,0.59,0.09,0.0,0.016,0.03,9.809,-0.01,-0.01,-0.01
1777732984.9690351,0.59,0.09,0.0,0.016,0.016,9.809,0.0,-0.01,-0.01
1777732984.9790714,0.59,0.09,0.0,0.02,0.022,9.809,-0.01,-0.01,-0.01
1777732984.9890544,0.59,0.1,0.0,0.02,0.018,9.809,-0.01,-0.01,-0.01
1777732984.9990807,0.59,0.1,0.0,0.023,0.034,9.809,-0.01,-0.01,0.0
1777732985.0090442,0.59,0.1,0.0,0.025,0.038,9.809,-0.01,-0.01,0.0
1777732985.0190327,0.59,0.1,0.0,0.026,0.044,9.809,-0.01,-0.01,-0.01
1777732985.0290234,0.59,0.1,0.01,0.026,0.036,9.809,-0.01,0.0,-0.01
1777732985.0390925,0.59,0.1,0.0,0.022,0.025,9.809,-0.01,-0.01,-0.01
1777732985.049061,0.59,0.1,0.0,0.022,0.032,9.809,-0.01,-0.01,-0.01
1777732985.0590546,0.59,0.1,0.0,0.02,0.036,9.809,-0.01,-0.01,0.0
1777732985.0689967,0.59,0.1,0.0,0.016,0.046,9.809,-0.01,-0.01,-0.01
1777732985.0791173,0.6,0.1,0.01,0.014,0.046,9.809,-0.01,-0.01,-0.01
1777732985.089018,0.6,0.1,0.01,0.013,0.036,9.809,-0.01,-0.01,-0.01
1777732985.0990307,0.6,0.1,0.0,0.014,0.041,9.809,-0.01,-0.01,-0.01
1777732985.1090014,0.6,0.1,0.01,0.012,0.042,9.809,-0.01,-0.01,0.0
1777732985.1190503,0.6,0.1,0.01,0.014,0.053,9.809,-0.01,-0.01,-0.01
1777732985.129021,0.61,0.1,0.01,0.016,0.038,9.809,-0.01,0.0,-0.01
1777732985.139027,0.61,0.1,0.01,0.017,0.036,9.809,-0.01,-0.01,-0.01
1777732985.149042,0.61,0.1,0.01,0.013,0.023,9.809,-0.01,0.0,-0.01
1777732985.159004,0.61,0.1,0.0,0.012,0.02,9.809,-0.01,0.0,-0.01
1777732985.168967,0.61,0.1,0.01,0.01,0.03,9.809,-0.01,0.0,0.0
1777732985.178969,0.62,0.1,0.01,0.013,0.035,9.809,-0.01,-0.01,-0.01
1777732985.1889808,0.62,0.1,0.01,0.018,0.036,9.809,-0.01,-0.01,-0.01
1777732985.198989,0.62,0.1,0.01,0.019,0.029,9.809,-0.01,0.0,-0.01
1777732985.2089808,0.62,0.1,0.01,0.029,0.023,9.809,-0.01,-0.01,-0.01
1777732985.218983,0.62,0.1,0.01,0.032,0.026,9.809,-0.01,-0.01,-0.01
1777732985.2289877,0.62,0.1,0.0,0.024,0.025,9.809,-0.01,0.0,-0.01
1777732985.2389772,0.62,0.1,0.01,0.023,0.037,9.809,-0.01,-0.01,-0.01
1777732985.2494774,0.62,0.1,0.01,0.019,0.029,9.809,-0.01,0.0,-0.01
1777732985.2590184,0.62,0.1,0.01,0.017,0.032,9.809,-0.01,-0.01,-0.01
1777732985.2689784,0.62,0.1,0.01,0.012,0.032,9.809,-0.01,-0.01,-0.01
1777732985.2794588,0.63,0.1,0.01,0.011,0.031,9.809,-0.01,-0.01,-0.01
1777732985.2889988,0.63,0.1,0.01,0.022,0.035,9.809,-0.01,-0.01,-0.01
1777732985.2989707,0.63,0.1,0.01,0.02,0.037,9.809,-0.01,-0.01,-0.01
1777732985.308981,0.63,0.1,0.01,0.02,0.04,9.809,-0.01,-0.01,-0.01
1777732985.3190324,0.63,0.1,0.01,0.024,0.031,9.809,-0.01,0.0,-0.01
1777732985.3289878,0.63,0.1,0.01,0.02,0.026,9.809,-0.01,-0.01,-0.01
1777732985.3390367,0.64,0.1,0.01,0.013,0.02,9.809,-0.01,0.0,-0.01
1777732985.3489838,0.64,0.1,0.01,0.016,0.018,9.809,-0.01,-0.01,-0.01
1777732985.3591027,0.64,0.1,0.0,0.013,0.024,9.809,-0.01,-0.01,0.0
1777732985.3690534,0.64,0.1,0.01,0.008,0.025,9.809,-0.01,-0.01,-0.01
1777732985.3789968,0.64,0.1,0.0,0.013,0.029,9.809,-0.01,-0.01,-0.01
1777732985.3889828,0.64,0.1,0.01,0.011,0.034,9.809,-0.01,0.0,-0.01
1777732985.3990047,0.64,0.1,0.01,0.016,0.036,9.809,-0.01,-0.01,-0.01
1777732985.409015,0.64,0.1,0.01,0.02,0.044,9.809,-0.01,-0.01,-0.01
1777732985.418991,0.64,0.1,0.01,0.022,0.044,9.809,-0.01,-0.01,-0.01
1777732985.429,0.64,0.1,0.01,0.019,0.044,9.809,-0.01,0.0,-0.01
1777732985.4390414,0.64,0.1,0.01,0.014,0.029,9.809,-0.01,0.0,-0.01
1777732985.4489958,0.65,0.1,0.01,0.007,0.03,9.809,-0.01,-0.01,-0.01
1777732985.4592173,0.65,0.1,0.01,0.01,0.019,9.809,-0.01,-0.01,-0.01
1777732985.468982,0.65,0.1,0.01,0.01,0.025,9.809,-0.01,-0.01,-0.01
1777732985.479015,0.65,0.1,0.01,0.016,0.034,9.809,-0.01,-0.01,0.0
1777732985.488955,0.65,0.1,0.01,0.016,0.036,9.809,-0.01,-0.01,-0.01
1777732985.4989817,0.65,0.1,0.01,0.019,0.035,9.809,-0.01,-0.01,-0.01
1777732985.508978,0.66,0.1,0.01,0.022,0.031,9.809,-0.01,0.0,-0.01
1777732985.5189633,0.66,0.1,0.01,0.018,0.031,9.809,-0.01,0.0,-0.01
1777732985.528943,0.66,0.1,0.01,0.017,0.028,9.809,-0.01,-0.01,-0.01
1777732985.5390422,0.66,0.1,0.01,0.012,0.029,9.809,-0.01,-0.01,-0.01
1777732985.5489557,0.66,0.1,0.01,0.008,0.029,9.809,-0.01,0.0,-0.01
1777732985.5589783,0.66,0.1,0.01,0.01,0.028,9.809,-0.01,-0.01,-0.01
1777732985.5689857,0.66,0.1,0.01,0.013,0.031,9.809,-0.01,-0.01,-0.01
1777732985.5790157,0.66,0.1,0.01,0.007,0.032,9.809,-0.01,-0.01,-0.01
1777732985.5890217,0.66,0.1,0.01,0.011,0.023,9.809,-0.01,-0.01,-0.01
1777732985.5990121,0.66,0.1,0.01,0.022,0.032,9.809,-0.01,0.0,-0.01
1777732985.6089647,0.66,0.1,0.01,0.025,0.032,9.809,-0.01,-0.01,-0.01
1777732985.6191509,0.66,0.1,0.01,0.023,0.037,9.809,-0.01,0.0,0.0
1777732985.6289642,0.67,0.1,0.01,0.022,0.04,9.809,-0.01,0.0,-0.01
1777732985.6390505,0.67,0.1,0.01,0.013,0.026,9.809,-0.01,0.0,-0.01
1777732985.6490014,0.67,0.1,0.01,0.004,0.014,9.809,-0.01,-0.01,-0.01
1777732985.6589694,0.67,0.1,0.01,0.005,0.014,9.809,-0.01,0.0,-0.01
1777732985.6689847,0.67,0.09,0.01,0.004,0.024,9.809,-0.01,-0.01,0.0
1777732985.6789687,0.68,0.09,0.01,0.005,0.041,9.809,-0.01,-0.01,0.0
1777732985.688175,0.68,0.09,0.01,0.006,0.038,9.809,-0.01,-0.01,-0.01
1777732985.6990094,0.68,0.09,0.01,0.007,0.043,9.809,-0.01,-0.01,-0.01
1777732985.7089787,0.69,0.09,0.01,0.013,0.03,9.809,-0.01,-0.01,-0.01
1777732985.7189808,0.69,0.09,0.01,0.012,0.029,9.809,0.0,0.0,-0.01
1777732985.7281063,0.68,0.09,0.01,0.01,0.031,9.809,-0.01,0.0,0.0
1777732985.738999,0.69,0.09,0.01,0.004,0.024,9.809,-0.01,0.0,0.0
1777732985.7481003,0.69,0.09,0.01,0.001,0.017,9.809,-0.01,0.0,-0.01
1777732985.7581115,0.69,0.09,0.0,0.001,0.007,9.809,-0.01,0.0,-0.01
1777732985.7681003,0.69,0.09,0.0,0.002,0.01,9.809,-0.01,-0.01,-0.01
1777732985.7781072,0.69,0.09,0.0,0.008,0.013,9.809,-0.01,0.0,-0.01
1777732985.7881124,0.69,0.09,0.0,0.013,0.019,9.809,-0.01,-0.01,-0.01
1777732985.7981064,0.69,0.09,0.0,0.02,0.036,9.809,-0.01,-0.01,-0.01
1777732985.8081126,0.69,0.09,0.0,0.024,0.028,9.809,-0.01,-0.01,-0.01
1777732985.8181968,0.7,0.09,0.0,0.028,0.028,9.809,-0.01,0.0,-0.01
1777732985.828105,0.7,0.09,0.0,0.023,0.03,9.809,-0.01,0.0,-0.01
1777732985.8387046,0.7,0.09,0.0,0.019,0.024,9.809,0.0,0.0,-0.01
1777732985.8481104,0.7,0.09,0.0,0.017,0.031,9.809,-0.01,0.0,-0.01
1777732985.8580954,0.7,0.09,0.0,0.016,0.028,9.809,-0.01,-0.01,-0.01
1777732985.868219,0.7,0.09,0.0,0.014,0.037,9.809,-0.01,0.0,-0.01
1777732985.8781133,0.71,0.09,0.0,0.013,0.03,9.809,-0.01,0.0,-0.01
1777732985.8881347,0.71,0.09,0.0,0.014,0.03,9.809,-0.01,-0.01,-0.01
1777732985.898092,0.71,0.09,0.0,0.02,0.029,9.809,-0.01,0.0,-0.01
1777732985.9081025,0.71,0.09,0.0,0.026,0.026,9.809,-0.01,-0.01,-0.01
1777732985.9181173,0.71,0.09,0.0,0.024,0.034,9.809,-0.01,-0.01,-0.01
1777732985.9281185,0.71,0.09,0.0,0.023,0.03,9.809,-0.01,0.0,-0.01
1777732985.9380534,0.71,0.09,0.0,0.019,0.036,9.809,-0.01,0.0,-0.01
1777732985.9480772,0.71,0.09,0.0,0.016,0.036,9.809,-0.01,0.0,-0.01
1777732985.9580774,0.71,0.09,0.0,0.008,0.029,9.809,-0.01,-0.01,-0.01
1777732985.9680767,0.71,0.09,0.0,0.01,0.031,9.809,-0.01,-0.01,-0.01
1777732985.9780712,0.72,0.09,0.0,0.018,0.034,9.809,-0.01,-0.01,-0.01
1777732985.9881089,0.72,0.09,0.01,0.017,0.042,9.809,-0.01,-0.01,-0.01
1777732985.99807,0.72,0.09,0.01,0.014,0.047,9.809,0.0,0.0,-0.01
1777732986.008122,0.72,0.09,0.01,0.016,0.046,9.809,-0.01,0.0,-0.01
1777732986.0180647,0.72,0.09,0.01,0.014,0.043,9.809,-0.01,0.0,-0.01
1777732986.0281217,0.73,0.09,0.01,0.016,0.032,9.809,-0.01,0.0,-0.01
1777732986.0380719,0.73,0.09,0.01,0.018,0.042,9.809,-0.01,-0.01,0.0
1777732986.0480773,0.73,0.09,0.01,0.014,0.044,9.809,-0.01,-0.01,-0.01
1777732986.0580933,0.73,0.09,0.01,0.014,0.042,9.809,-0.01,0.0,0.0
1777732986.0680673,0.73,0.09,0.01,0.018,0.041,9.809,-0.01,-0.01,-0.01
1777732986.0780501,0.73,0.09,0.01,0.012,0.034,9.809,-0.01,-0.01,-0.01
1777732986.0880938,0.73,0.09,0.01,0.014,0.019,9.809,-0.01,-0.01,-0.01
1777732986.0980859,0.73,0.09,0.01,0.018,0.019,9.809,-0.01,-0.01,-0.01
1777732986.108073,0.73,0.09,0.01,0.024,0.03,9.809,-0.01,-0.01,-0.01
1777732986.1181097,0.73,0.1,0.01,0.031,0.041,9.809,-0.01,-0.01,-0.01
1777732986.1280951,0.74,0.1,0.01,0.036,0.037,9.809,-0.01,-0.01,-0.01
1777732986.1380942,0.74,0.1,0.01,0.03,0.036,9.809,-0.01,-0.01,-0.01
1777732986.1480656,0.74,0.1,0.01,0.03,0.031,9.809,-0.01,-0.01,-0.01
1777732986.1585488,0.74,0.1,0.01,0.025,0.031,9.809,-0.01,-0.01,0.0
1777732986.1680574,0.74,0.1,0.01,0.025,0.026,9.809,-0.01,-0.01,0.0
1777732986.178105,0.74,0.1,0.01,0.026,0.035,9.809,-0.01,0.0,0.0
1777732986.1880739,0.74,0.1,0.01,0.024,0.028,9.809,-0.01,0.0,-0.01
1777732986.1981258,0.75,0.1,0.01,0.022,0.024,9.809,-0.01,-0.01,-0.01
1777732986.2081075,0.75,0.1,0.01,0.025,0.014,9.809,-0.01,-0.01,-0.01
1777732986.2180994,0.75,0.1,0.0,0.02,0.022,9.809,-0.01,-0.01,0.0
1777732986.2280822,0.75,0.1,0.0,0.014,0.029,9.809,-0.01,-0.01,-0.01
1777732986.2381787,0.75,0.1,0.01,0.011,0.025,9.809,-0.01,-0.01,-0.01
1777732986.248087,0.75,0.1,0.0,0.017,0.028,9.809,-0.01,-0.01,-0.01
1777732986.2580514,0.75,0.1,0.0,0.014,0.035,9.809,-0.01,-0.01,-0.01
1777732986.2680967,0.76,0.1,0.0,0.013,0.026,9.809,-0.01,-0.01,-0.01
1777732986.2781734,0.76,0.1,0.0,0.018,0.028,9.809,-0.01,-0.01,0.0
1777732986.288316,0.76,0.1,0.0,0.02,0.031,9.809,-0.01,-0.01,-0.01
1777732986.2980857,0.76,0.1,0.0,0.019,0.031,9.809,-0.01,0.0,-0.01
1777732986.308106,0.76,0.1,0.0,0.02,0.026,9.809,-0.01,0.0,-0.01
1777732986.3180985,0.76,0.1,0.0,0.017,0.03,9.809,-0.01,-0.01,-0.01
1777732986.3280835,0.76,0.1,0.0,0.018,0.026,9.809,-0.01,-0.01,-0.01
1777732986.3381112,0.76,0.1,0.0,0.014,0.03,9.809,-0.01,0.0,0.0
1777732986.3480577,0.76,0.1,0.0,0.017,0.029,9.809,-0.01,-0.01,-0.01
1777732986.3580723,0.76,0.1,0.0,0.013,0.037,9.809,-0.01,-0.01,-0.01
1777732986.368067,0.76,0.1,0.01,0.017,0.036,9.809,-0.01,-0.01,-0.01
1777732986.3781066,0.76,0.1,0.01,0.017,0.038,9.809,-0.01,-0.01,-0.01
1777732986.3881204,0.77,0.1,0.01,0.013,0.037,9.809,-0.01,-0.01,-0.01
1777732986.3980892,0.77,0.1,0.01,0.011,0.036,9.809,-0.01,-0.01,-0.01
1777732986.4080694,0.77,0.1,0.01,0.013,0.035,9.809,-0.01,-0.01,-0.01
1777732986.4181068,0.77,0.1,0.01,0.012,0.031,9.809,-0.01,0.0,-0.01
1777732986.428097,0.77,0.1,0.01,0.016,0.034,9.809,-0.01,-0.01,-0.01
1777732986.4380612,0.77,0.1,0.01,0.016,0.036,9.809,-0.01,-0.01,0.0
1777732986.4480474,0.77,0.1,0.01,0.012,0.038,9.809,-0.01,-0.01,-0.01
1777732986.45809,0.78,0.1,0.01,0.017,0.037,9.809,-0.01,-0.01,-0.01
1777732986.468082,0.78,0.1,0.01,0.017,0.042,9.809,-0.01,-0.01,-0.01
1777732986.478064,0.78,0.1,0.01,0.019,0.037,9.809,-0.01,-0.01,-0.01
1777732986.488052,0.78,0.1,0.01,0.025,0.032,9.809,-0.01,-0.01,-0.01
1777732986.4981277,0.78,0.1,0.01,0.023,0.032,9.809,-0.01,-0.01,-0.01
1777732986.5080762,0.78,0.1,0.01,0.019,0.035,9.809,-0.01,0.0,0.0
1777732986.5180666,0.78,0.1,0.01,0.017,0.038,9.809,-0.01,0.0,0.0
1777732986.5280654,0.78,0.1,0.01,0.019,0.037,9.809,-0.01,0.0,-0.01
1777732986.538088,0.79,0.1,0.01,0.018,0.029,9.809,-0.01,0.0,-0.01
1777732986.548068,0.79,0.1,0.01,0.02,0.02,9.809,-0.01,-0.01,-0.01
1777732986.55725,0.79,0.1,0.01,0.02,0.023,9.809,-0.01,-0.01,-0.01
1777732986.5680633,0.79,0.1,0.01,0.018,0.032,9.809,-0.01,-0.01,0.0
1777732986.57805,0.79,0.1,0.01,0.02,0.037,9.809,-0.01,-0.01,-0.01
1777732986.58728,0.79,0.1,0.01,0.017,0.032,9.809,-0.01,-0.01,-0.01
1777732986.5980787,0.8,0.1,0.01,0.013,0.034,9.809,-0.01,0.0,-0.01
1777732986.6080494,0.8,0.1,0.01,0.014,0.028,9.809,-0.01,0.0,-0.01
1777732986.6172109,0.8,0.1,0.01,0.017,0.034,9.809,-0.01,-0.01,-0.01
1777732986.6272259,0.8,0.1,0.01,0.013,0.028,9.809,-0.01,-0.01,-0.01
1777732986.6380608,0.8,0.1,0.01,0.014,0.031,9.809,-0.01,-0.01,-0.01
1777732986.647226,0.8,0.1,0.01,0.01,0.029,9.809,-0.01,0.0,-0.01
1777732986.6572309,0.8,0.1,0.01,0.008,0.036,9.809,-0.01,-0.01,-0.01
1777732986.6680453,0.8,0.1,0.01,0.011,0.034,9.809,-0.01,-0.01,0.0
1777732986.6772563,0.8,0.1,0.01,0.01,0.032,9.809,-0.01,-0.01,-0.01
1777732986.6872284,0.8,0.1,0.01,0.013,0.026,9.809,-0.01,0.0,-0.01
1777732986.6972525,0.8,0.1,0.01,0.012,0.022,9.809,-0.01,0.0,-0.01
1777732986.7072113,0.8,0.1,0.01,0.011,0.023,9.809,-0.01,-0.01,-0.01
1777732986.7172132,0.8,0.1,0.01,0.008,0.024,9.809,-0.01,0.0,-0.01
1777732986.7272236,0.81,0.1,0.01,0.011,0.02,9.809,-0.01,-0.01,-0.01
1777732986.7372336,0.81,0.1,0.0,0.012,0.03,9.809,-0.01,0.0,-0.01
1777732986.7472303,0.81,0.1,0.01,0.011,0.022,9.809,-0.01,-0.01,-0.01
1777732986.757238,0.81,0.1,0.0,0.014,0.026,9.809,-0.01,0.0,-0.01
1777732986.7672324,0.81,0.1,0.01,0.018,0.031,9.809,-0.01,0.0,-0.01
1777732986.7772367,0.81,0.1,0.01,0.023,0.031,9.809,-0.01,-0.01,0.0
1777732986.7872467,0.81,0.1,0.01,0.02,0.036,9.809,-0.01,-0.01,-0.01
1777732986.7971685,0.82,0.1,0.0,0.013,0.029,9.809,-0.01,-0.01,-0.01
1777732986.8072467,0.82,0.1,0.01,0.013,0.03,9.809,-0.01,-0.01,-0.01
1777732986.8171751,0.82,0.1,0.0,0.014,0.024,9.809,-0.01,-0.01,-0.01
1777732986.8272536,0.82,0.1,0.0,0.017,0.028,9.809,-0.01,-0.01,-0.01
1777732986.8371785,0.82,0.1,0.01,0.018,0.029,9.809,-0.01,-0.01,0.0
1777732986.847215,0.82,0.1,0.01,0.02,0.034,9.809,-0.01,-0.01,0.0
1777732986.857179,0.83,0.1,0.01,0.018,0.032,9.809,-0.01,-0.01,-0.01
1777732986.8671765,0.83,0.1,0.0,0.016,0.029,9.809,-0.01,-0.01,-0.01
1777732986.8772092,0.83,0.1,0.0,0.013,0.024,9.809,-0.01,-0.01,-0.01
1777732986.8872705,0.83,0.1,0.0,0.008,0.025,9.809,-0.01,-0.01,-0.01
1777732986.8971462,0.83,0.1,0.0,0.005,0.024,9.809,-0.01,0.0,-0.01
1777732986.9071658,0.83,0.1,0.0,0.006,0.031,9.809,-0.01,-0.01,-0.01
1777732986.917899,0.83,0.1,0.0,0.005,0.029,9.809,-0.01,0.0,-0.01
1777732986.9279592,0.83,0.1,0.0,0.0,0.036,9.809,-0.01,-0.01,-0.01
1777732986.9377959,0.83,0.1,0.01,0.001,0.029,9.809,-0.01,-0.01,-0.01
1777732986.9474018,0.83,0.1,0.0,0.006,0.034,9.809,-0.01,-0.01,-0.01
1777732986.9571757,0.83,0.1,0.01,0.006,0.028,9.809,-0.01,-0.01,-0.01
1777732986.967193,0.84,0.1,0.01,0.013,0.031,9.809,-0.01,-0.01,-0.01
1777732986.9771397,0.84,0.1,0.01,0.013,0.032,9.809,-0.01,0.0,-0.01
1777732986.9871926,0.84,0.1,0.01,0.007,0.034,9.809,-0.01,-0.01,-0.01
1777732986.9972832,0.84,0.1,0.01,0.012,0.034,9.809,-0.01,-0.01,-0.01
1777732987.0074577,0.84,0.1,0.0,0.014,0.028,9.809,-0.01,0.0,-0.01
1777732987.017189,0.85,0.1,0.0,0.018,0.028,9.809,-0.01,-0.01,-0.01
1777732987.0271673,0.85,0.1,0.0,0.017,0.022,9.809,-0.01,-0.01,-0.01
1777732987.0371828,0.85,0.1,0.0,0.019,0.024,9.809,-0.01,0.0,-0.01
1777732987.0471723,0.85,0.1,0.0,0.019,0.032,9.809,-0.01,0.0,-0.01
1777732987.0571504,0.85,0.1,0.0,0.012,0.038,9.809,-0.01,-0.01,0.0
1777732987.06717,0.85,0.1,0.0,0.012,0.043,9.809,-0.01,0.0,0.0
1777732987.0771842,0.85,0.1,0.0,0.012,0.037,9.809,-0.01,-0.01,-0.01
1777732987.0875947,0.85,0.1,0.0,0.01,0.034,9.809,-0.01,-0.01,-0.01
1777732987.097167,0.85,0.1,0.0,0.016,0.028,9.809,-0.01,-0.01,-0.01
1777732987.1071734,0.85,0.1,0.0,0.016,0.028,9.809,-0.01,-0.01,-0.01
1777732987.1171706,0.85,0.1,0.0,0.019,0.028,9.809,-0.01,-0.01,-0.01
1777732987.127161,0.85,0.1,0.0,0.014,0.029,9.809,-0.01,0.0,-0.01
1777732987.1371996,0.86,0.1,0.0,0.02,0.028,9.809,-0.01,-0.01,-0.01
1777732987.1471446,0.86,0.1,0.0,0.022,0.035,9.809,-0.01,-0.01,-0.01
1777732987.1571817,0.86,0.1,0.0,0.019,0.038,9.809,-0.01,-0.01,-0.01
1777732987.167112,0.86,0.1,0.0,0.02,0.041,9.809,-0.01,-0.01,-0.01
1777732987.177148,0.86,0.1,0.0,0.023,0.036,9.809,-0.01,-0.01,-0.01
1777732987.1871781,0.86,0.1,0.0,0.02,0.034,9.809,-0.01,-0.01,-0.01
1777732987.1971233,0.87,0.1,0.0,0.019,0.028,9.809,-0.01,-0.01,-0.01
1777732987.2071822,0.87,0.1,0.0,0.014,0.026,9.809,-0.01,-0.01,-0.01
1777732987.217122,0.87,0.1,0.0,0.008,0.024,9.809,-0.01,-0.01,-0.01
1777732987.2272954,0.87,0.1,0.0,0.004,0.028,9.809,-0.01,0.0,-0.01
1777732987.2371767,0.87,0.1,0.0,0.006,0.031,9.809,-0.01,-0.01,-0.01
1777732987.2471223,0.87,0.1,0.0,0.007,0.035,9.809,-0.01,-0.01,-0.01
1777732987.2571332,0.87,0.1,0.0,0.014,0.032,9.809,-0.01,0.0,-0.01
1777732987.2671516,0.87,0.1,0.0,0.012,0.038,9.809,-0.01,0.0,-0.01
1777732987.2771192,0.87,0.1,0.0,0.011,0.037,9.809,-0.01,-0.01,-0.01
1777732987.2871475,0.87,0.1,0.0,0.01,0.038,9.809,-0.01,-0.01,-0.01
1777732987.2971413,0.87,0.09,0.0,0.01,0.041,9.809,-0.01,0.0,-0.01
1777732987.30716,0.87,0.09,0.0,0.007,0.037,9.809,-0.01,0.0,-0.01
1777732987.3171062,0.88,0.09,0.0,0.005,0.032,9.809,-0.01,-0.01,-0.01
1777732987.3279467,0.88,0.09,0.0,0.005,0.036,9.809,-0.01,-0.01,-0.01
1777732987.3362901,0.88,0.09,0.0,0.014,0.034,9.809,-0.01,-0.01,-0.01
1777732987.3463063,0.88,0.09,0.0,0.018,0.032,9.809,-0.01,0.0,-0.01
1777732987.3563185,0.88,0.09,0.0,0.019,0.034,9.809,-0.01,-0.01,0.0
1777732987.3671453,0.88,0.1,0.01,0.019,0.043,9.809,-0.01,-0.01,-0.01
1777732987.3771453,0.89,0.1,0.01,0.02,0.038,9.809,-0.01,-0.01,-0.01
1777732987.3871226,0.89,0.1,0.01,0.016,0.029,9.809,-0.01,-0.01,-0.01
1777732987.3973448,0.89,0.1,0.0,0.014,0.029,9.809,-0.01,0.0,-0.01
1777732987.4063544,0.89,0.09,0.01,0.01,0.034,9.809,-0.01,-0.01,-0.01
1777732987.4172547,0.89,0.09,0.01,0.011,0.034,9.809,-0.01,-0.01,-0.01
1777732987.4271684,0.89,0.09,0.01,0.016,0.037,9.809,-0.01,-0.01,-0.01
1777732987.4374511,0.89,0.1,0.01,0.016,0.034,9.809,-0.01,-0.01,-0.01
1777732987.4463148,0.9,0.1,0.01,0.018,0.034,9.809,-0.01,-0.01,-0.01
1777732987.4562976,0.9,0.1,0.01,0.022,0.031,9.809,-0.01,-0.01,-0.01
1777732987.4676116,0.9,0.1,0.01,0.02,0.035,9.809,-0.01,-0.01,-0.01
1777732987.477114,0.9,0.1,0.01,0.022,0.036,9.809,-0.01,-0.01,-0.01
1777732987.4863198,0.9,0.1,0.01,0.017,0.031,9.809,-0.01,-0.01,-0.01
1777732987.496303,0.9,0.1,0.01,0.012,0.035,9.809,-0.01,-0.01,-0.01
1777732987.5071247,0.9,0.1,0.01,0.005,0.034,9.809,-0.01,-0.01,-0.01
1777732987.5163066,0.9,0.1,0.01,0.006,0.024,9.809,-0.01,-0.01,-0.01
1777732987.5263014,0.9,0.1,0.01,0.01,0.025,9.809,-0.01,-0.01,-0.01
1777732987.5363116,0.91,0.1,0.01,0.008,0.024,9.809,-0.01,-0.01,-0.01
1777732987.5463037,0.91,0.1,0.01,0.014,0.028,9.809,-0.01,-0.01,0.0
1777732987.556309,0.91,0.1,0.01,0.018,0.032,9.809,-0.01,-0.01,-0.01
1777732987.5663044,0.91,0.1,0.01,0.022,0.034,9.809,-0.01,-0.01,-0.01
1777732987.576291,0.91,0.1,0.01,0.024,0.03,9.809,-0.01,0.0,-0.01
1777732987.5863123,0.91,0.1,0.01,0.018,0.024,9.809,-0.01,0.0,-0.01
1777732987.5963266,0.92,0.1,0.01,0.013,0.02,9.809,-0.01,-0.01,-0.01
1777732987.606312,0.92,0.1,0.01,0.013,0.024,9.809,-0.01,0.0,-0.01
1777732987.6162887,0.92,0.1,0.01,0.011,0.028,9.809,-0.01,-0.01,0.0
1777732987.6263072,0.92,0.1,0.01,0.008,0.036,9.809,-0.01,-0.01,-0.01
1777732987.636317,0.92,0.1,0.01,0.007,0.037,9.809,-0.01,-0.01,-0.01
1777732987.646296,0.92,0.1,0.01,0.008,0.038,9.809,-0.01,-0.01,-0.01
1777732987.6562855,0.92,0.1,0.01,0.013,0.031,9.809,-0.01,-0.01,-0.01
1777732987.6663334,0.92,0.1,0.01,0.014,0.026,9.809,-0.01,0.0,-0.01
1777732987.6763139,0.92,0.1,0.01,0.012,0.029,9.809,-0.01,0.0,-0.01
1777732987.6862538,0.92,0.1,0.01,0.008,0.032,9.809,-0.01,-0.01,-0.01
1777732987.6963105,0.92,0.09,0.01,0.006,0.031,9.809,-0.01,-0.01,-0.01
1777732987.7063403,0.92,0.09,0.01,0.008,0.032,9.809,-0.01,-0.01,-0.01
1777732987.7163029,0.93,0.09,0.01,0.011,0.029,9.809,-0.01,-0.01,-0.01
1777732987.7263157,0.93,0.1,0.01,0.011,0.037,9.809,-0.01,-0.01,-0.01
1777732987.7363274,0.93,0.1,0.01,0.014,0.034,9.809,-0.01,-0.01,-0.01
1777732987.74627,0.93,0.1,0.01,0.012,0.028,9.809,-0.01,-0.01,-0.01
1777732987.7562747,0.94,0.1,0.01,0.012,0.028,9.809,-0.01,0.0,-0.01
1777732987.7663112,0.94,0.1,0.01,0.013,0.024,9.809,-0.01,-0.01,-0.01
1777732987.7762978,0.94,0.1,0.01,0.017,0.03,9.809,-0.01,-0.01,-0.01
1777732987.786371,0.94,0.1,0.01,0.016,0.03,9.809,-0.01,-0.01,-0.01
1777732987.7964144,0.94,0.1,0.0,0.017,0.026,9.809,-0.01,-0.01,-0.01
1777732987.8062446,0.94,0.1,0.0,0.011,0.019,9.809,-0.01,-0.01,-0.01
1777732987.8162336,0.94,0.1,0.0,0.01,0.012,9.809,-0.01,-0.01,-0.01
1777732987.8262103,0.94,0.1,0.0,0.011,0.026,9.809,-0.01,-0.01,-0.01
1777732987.8362262,0.94,0.1,0.0,0.013,0.034,9.809,-0.01,-0.01,0.0
1777732987.8462508,0.94,0.1,0.0,0.018,0.047,9.809,-0.01,-0.01,0.0
1777732987.8562348,0.94,0.1,0.01,0.025,0.043,9.809,-0.01,-0.01,-0.01
1777732987.8662481,0.95,0.1,0.0,0.025,0.042,9.809,-0.01,-0.01,-0.01
1777732987.8762174,0.95,0.1,0.01,0.019,0.035,9.809,-0.01,-0.01,-0.01
1777732987.8862092,0.95,0.1,0.0,0.01,0.029,9.809,-0.01,-0.01,-0.01
1777732987.8963587,0.95,0.1,0.0,0.011,0.026,9.809,-0.01,-0.01,-0.01
1777732987.9063098,0.95,0.1,0.0,0.012,0.029,9.809,-0.01,-0.01,-0.01
1777732987.9162207,0.95,0.1,0.0,0.01,0.041,9.809,-0.01,-0.01,-0.01
1777732987.9261966,0.95,0.1,0.01,0.013,0.044,9.809,-0.01,-0.01,-0.01
1777732987.936243,0.96,0.1,0.01,0.019,0.038,9.809,-0.01,-0.01,-0.01
1777732987.9462068,0.96,0.1,0.01,0.02,0.036,9.809,-0.01,-0.01,-0.01
1777732987.9562075,0.96,0.1,0.0,0.014,0.022,9.809,-0.01,-0.01,-0.01
1777732987.9661725,0.96,0.1,0.0,0.018,0.022,9.809,-0.01,-0.01,-0.01
1777732987.9762056,0.96,0.1,0.0,0.012,0.022,9.809,-0.01,0.0,0.0
1777732987.986264,0.96,0.1,0.0,0.01,0.037,9.809,-0.01,-0.01,0.0
1777732987.9962165,0.97,0.1,0.01,0.01,0.042,9.809,-0.01,-0.01,0.0
1777732988.006253,0.97,0.1,0.01,0.008,0.041,9.809,-0.01,0.0,-0.01
1777732988.016212,0.97,0.1,0.01,0.013,0.04,9.809,-0.01,-0.01,-0.01
1777732988.0262232,0.97,0.1,0.01,0.008,0.032,9.809,-0.01,-0.01,-0.01
1777732988.036208,0.97,0.1,0.0,0.012,0.032,9.809,-0.01,-0.01,0.0
1777732988.0462399,0.97,0.1,0.01,0.02,0.037,9.809,-0.01,-0.01,0.0
1777732988.0562227,0.97,0.1,0.01,0.024,0.032,9.809,-0.01,-0.01,-0.01
1777732988.0662234,0.97,0.1,0.01,0.022,0.032,9.809,-0.01,0.0,-0.01
1777732988.076233,0.97,0.1,0.01,0.017,0.03,9.809,-0.01,-0.01,-0.01
1777732988.0862255,0.97,0.1,0.01,0.013,0.035,9.809,-0.01,0.0,-0.01
1777732988.0961812,0.97,0.1,0.01,0.01,0.035,9.809,-0.01,0.0,-0.01
1777732988.1062276,0.97,0.1,0.01,0.008,0.037,9.809,-0.01,-0.01,-0.01
1777732988.116207,0.97,0.1,0.01,0.01,0.034,9.809,-0.01,-0.01,-0.01
1777732988.1261904,0.98,0.1,0.01,0.013,0.028,9.809,-0.01,-0.01,-0.01
1777732988.136241,0.98,0.1,0.01,0.013,0.034,9.809,-0.01,-0.01,-0.01
1777732988.1462107,0.98,0.1,0.01,0.016,0.029,9.809,-0.01,0.0,-0.01
1777732988.156336,0.98,0.1,0.0,0.017,0.034,9.809,-0.01,0.0,-0.01
1777732988.16618,0.98,0.1,0.0,0.014,0.031,9.809,-0.01,0.0,-0.01
1777732988.1761541,0.98,0.09,0.0,0.007,0.032,9.809,-0.01,0.0,-0.01
1777732988.186218,0.98,0.09,0.0,0.01,0.035,9.809,-0.01,0.0,-0.01
1777732988.1961982,0.99,0.09,0.01,0.011,0.031,9.809,-0.01,-0.01,-0.01
1777732988.2062533,0.99,0.09,0.01,0.02,0.04,9.809,-0.01,-0.01,-0.01
1777732988.216186,0.99,0.1,0.01,0.026,0.032,9.809,-0.01,-0.01,-0.01
1777732988.2262006,0.99,0.1,0.01,0.023,0.03,9.809,-0.01,-0.01,-0.01
1777732988.2353857,0.99,0.1,0.0,0.028,0.024,9.809,-0.01,-0.01,-0.01
1777732988.2463462,0.99,0.1,0.0,0.017,0.022,9.809,-0.01,-0.01,-0.01
1777732988.2561972,0.99,0.1,0.0,0.01,0.024,9.809,-0.01,0.0,-0.01
1777732988.266209,0.99,0.09,0.0,0.005,0.028,9.809,-0.01,0.0,-0.01
1777732988.2754734,0.99,0.09,0.0,0.006,0.032,9.809,-0.01,0.0,-0.01
1777732988.2863128,0.99,0.09,0.0,0.006,0.03,9.809,-0.01,-0.01,-0.01
1777732988.2962246,0.99,0.09,0.0,0.011,0.02,9.809,-0.01,-0.01,-0.01
1777732988.3054233,0.99,0.1,0.0,0.011,0.019,9.809,-0.01,-0.01,-0.01
1777732988.3153248,0.99,0.1,0.0,0.013,0.024,9.809,-0.01,-0.01,0.0
1777732988.3263044,1.0,0.1,0.0,0.016,0.032,9.809,-0.01,-0.01,0.0
1777732988.3354483,1.0,0.1,0.0,0.012,0.034,9.809,-0.01,-0.01,-0.01
1777732988.3453512,1.0,0.1,0.0,0.011,0.04,9.809,-0.01,-0.01,-0.01
1777732988.3562047,1.0,0.1,0.0,0.013,0.034,9.809,-0.01,0.0,-0.01
1777732988.3656483,1.0,0.1,0.0,0.012,0.028,9.809,-0.01,-0.01,-0.01
1777732988.375474,1.0,0.09,0.0,0.012,0.035,9.809,-0.01,0.0,-0.01
1777732988.385309,1.01,0.09,0.0,0.014,0.036,9.809,-0.01,0.0,-0.01
1777732988.3953319,1.01,0.09,0.0,0.017,0.038,9.809,-0.01,-0.01,-0.01
1777732988.4053254,1.01,0.1,0.0,0.013,0.036,9.809,-0.01,-0.01,-0.01
1777732988.4153388,1.01,0.1,0.01,0.017,0.041,9.809,-0.01,-0.01,-0.01
1777732988.4261818,1.01,0.1,0.01,0.017,0.043,9.809,-0.01,0.0,-0.01
1777732988.4353108,1.01,0.1,0.01,0.018,0.041,9.809,-0.01,-0.01,-0.01
1777732988.4453235,1.01,0.09,0.01,0.02,0.043,9.809,-0.01,-0.01,-0.01
1777732988.455299,1.01,0.1,0.01,0.019,0.041,9.809,-0.01,0.0,-0.01
1777732988.465311,1.01,0.1,0.01,0.02,0.041,9.809,-0.01,-0.01,-0.01
1777732988.475317,1.01,0.1,0.01,0.018,0.032,9.809,-0.01,-0.01,-0.01
1777732988.4853103,1.01,0.1,0.01,0.017,0.032,9.809,-0.01,-0.01,-0.01
1777732988.4953163,1.02,0.1,0.01,0.02,0.028,9.809,-0.01,-0.01,-0.01
1777732988.5053234,1.02,0.1,0.01,0.023,0.026,9.809,-0.01,-0.01,-0.01
1777732988.515314,1.02,0.1,0.01,0.023,0.029,9.809,-0.01,-0.01,-0.01
1777732988.5252972,1.02,0.1,0.01,0.024,0.036,9.809,-0.01,0.0,-0.01
1777732988.5353198,1.02,0.1,0.01,0.02,0.042,9.809,-0.01,0.0,-0.01
1777732988.5453846,1.02,0.1,0.01,0.017,0.047,9.809,-0.01,-0.01,-0.01
1777732988.5553164,1.03,0.1,0.01,0.014,0.037,9.809,-0.01,-0.01,-0.01
1777732988.565324,1.03,0.1,0.01,0.016,0.038,9.809,-0.01,0.0,-0.01
1777732988.5752962,1.03,0.1,0.01,0.017,0.025,9.809,-0.01,0.0,-0.01
1777732988.5853102,1.03,0.1,0.01,0.013,0.026,9.809,-0.01,-0.01,-0.01
1777732988.5953333,1.03,0.1,0.01,0.014,0.024,9.809,-0.01,0.0,-0.01
1777732988.6053069,1.04,0.1,0.01,0.016,0.025,9.809,-0.01,-0.01,-0.01
1777732988.6152859,1.04,0.1,0.01,0.011,0.03,9.809,-0.01,-0.01,-0.01
1777732988.625291,1.04,0.1,0.01,0.007,0.036,9.809,-0.01,-0.01,-0.01
1777732988.635322,1.04,0.1,0.01,0.011,0.04,9.809,-0.01,-0.01,-0.01
1777732988.6453047,1.04,0.1,0.01,0.016,0.04,9.809,-0.01,0.0,-0.01
1777732988.6553617,1.04,0.1,0.01,0.019,0.035,9.809,-0.01,-0.01,-0.01
1777732988.666447,1.04,0.1,0.01,0.017,0.032,9.809,-0.01,0.0,-0.01
1777732988.6753201,1.04,0.1,0.01,0.013,0.019,9.809,-0.01,-0.01,-0.01
1777732988.735368,1.04,0.1,0.01,0.016,0.017,9.809,-0.01,-0.01,-0.01
1777732988.7376335,1.04,0.1,0.0,0.019,0.022,9.809,-0.01,-0.01,-0.01
1777732988.7390742,1.04,0.1,0.01,0.02,0.028,9.809,-0.01,0.0,-0.01
1777732988.7404907,1.05,0.1,0.01,0.025,0.026,9.809,-0.01,-0.01,-0.01
1777732988.742913,1.05,0.1,0.0,0.018,0.034,9.809,-0.01,-0.01,-0.01
1777732988.744673,1.05,0.1,0.01,0.019,0.037,9.809,-0.01,-0.01,-0.01
1777732988.7461078,1.05,0.1,0.01,0.019,0.043,9.809,-0.01,-0.01,-0.01
1777732988.7555106,1.05,0.1,0.01,0.022,0.04,9.809,-0.01,0.0,-0.01
1777732988.769355,1.06,0.1,0.01,0.02,0.037,9.809,-0.01,-0.01,-0.01
1777732988.8138258,1.06,0.1,0.01,0.022,0.029,9.809,-0.01,-0.01,-0.01
1777732988.8147936,1.06,0.1,0.01,0.022,0.019,9.809,-0.01,-0.01,-0.01
1777732988.8165104,1.06,0.1,0.0,0.016,0.024,9.809,-0.01,-0.01,-0.01
1777732988.818731,1.06,0.1,0.0,0.012,0.031,9.809,-0.01,-0.01,0.0
1777732988.8248465,1.06,0.1,0.01,0.014,0.041,9.809,-0.01,-0.01,-0.01
1777732988.8331985,1.06,0.1,0.01,0.014,0.042,9.809,-0.01,-0.01,-0.01
1777732988.8482115,1.06,0.1,0.01,0.016,0.04,9.809,-0.01,-0.01,-0.01
1777732988.8497562,1.06,0.1,0.01,0.019,0.024,9.809,-0.01,0.0,-0.01
1777732988.8552885,1.06,0.1,0.0,0.022,0.023,9.809,-0.01,0.0,-0.01
1777732988.8653502,1.06,0.1,0.0,0.019,0.029,9.809,-0.01,0.0,0.0
1777732988.875328,1.07,0.1,0.0,0.022,0.028,9.809,-0.01,0.0,-0.01
1777732988.886199,1.07,0.1,0.0,0.014,0.031,9.809,-0.01,-0.01,-0.01
1777732988.8959394,1.07,0.1,0.0,0.013,0.028,9.809,-0.01,0.0,-0.01
1777732988.90534,1.07,0.1,0.0,0.011,0.029,9.809,-0.01,-0.01,-0.01
1777732988.91542,1.07,0.1,0.0,0.014,0.029,9.809,-0.01,-0.01,-0.01
1777732988.9260385,1.07,0.1,0.0,0.013,0.035,9.809,-0.01,-0.01,-0.01
1777732988.9353209,1.08,0.1,0.0,0.014,0.036,9.809,-0.01,-0.01,-0.01
1777732988.945287,1.08,0.1,0.0,0.014,0.035,9.809,-0.01,0.0,-0.01
1777732988.9553454,1.08,0.1,0.0,0.017,0.029,9.809,-0.01,-0.01,-0.01
1777732988.9652948,1.08,0.1,0.0,0.012,0.031,9.809,-0.01,0.0,-0.01
1777732988.9753833,1.08,0.1,0.01,0.014,0.029,9.809,-0.01,-0.01,-0.01
1777732988.9853024,1.08,0.1,0.0,0.012,0.024,9.809,-0.01,-0.01,-0.01
1777732988.9953275,1.08,0.1,0.0,0.02,0.025,9.809,-0.01,-0.01,-0.01
1777732989.00529,1.08,0.1,0.0,0.022,0.028,9.809,-0.01,-0.01,-0.01
1777732989.0153737,1.08,0.1,0.0,0.017,0.03,9.809,-0.01,-0.01,-0.01
1777732989.0252721,1.08,0.1,0.0,0.019,0.041,9.809,-0.01,0.0,-0.01
1777732989.035345,1.09,0.1,0.0,0.019,0.037,9.809,-0.01,-0.01,-0.01
1777732989.0453467,1.09,0.1,0.0,0.022,0.035,9.809,-0.01,-0.01,-0.01
1777732989.0553246,1.09,0.1,0.0,0.023,0.028,9.809,-0.01,-0.01,-0.01
1777732989.0652778,1.09,0.1,0.0,0.019,0.026,9.809,-0.01,-0.01,-0.01
1777732989.0752892,1.09,0.1,0.0,0.012,0.024,9.809,-0.01,0.0,-0.01
1777732989.0844593,1.09,0.1,0.0,0.006,0.028,9.809,-0.01,-0.01,-0.01
1777732989.095278,1.1,0.1,0.0,0.001,0.035,9.809,-0.01,-0.01,-0.01
1777732989.1044393,1.1,0.1,0.0,-0.002,0.032,9.809,-0.01,-0.01,-0.01
1777732989.1152794,1.1,0.1,0.0,0.006,0.031,9.809,-0.01,-0.01,-0.01
1777732989.1244621,1.1,0.1,0.0,0.008,0.04,9.809,-0.01,-0.01,-0.01
1777732989.1344702,1.1,0.1,0.0,0.011,0.041,9.809,-0.01,-0.01,-0.01
1777732989.14557,1.1,0.1,0.0,0.012,0.04,9.809,-0.01,-0.01,-0.01
1777732989.1544883,1.11,0.1,0.0,0.01,0.034,9.809,-0.01,-0.01,-0.01
1777732989.1652792,1.11,0.1,0.0,0.007,0.03,9.809,-0.01,-0.01,-0.01
1777732989.1744583,1.11,0.1,0.0,0.004,0.019,9.809,-0.01,-0.01,-0.01
1777732989.1852977,1.11,0.1,-0.01,0.002,0.022,9.809,-0.01,-0.01,-0.01
1777732989.1952689,1.11,0.1,0.0,0.005,0.023,9.809,-0.01,-0.01,-0.01
1777732989.2044463,1.11,0.1,0.0,0.008,0.024,9.809,-0.01,0.0,-0.01
1777732989.2144508,1.11,0.1,0.0,0.017,0.035,9.809,-0.01,-0.01,-0.01
1777732989.2244592,1.11,0.1,0.0,0.016,0.042,9.809,-0.01,-0.01,-0.01
1777732989.2344468,1.11,0.1,0.0,0.02,0.042,9.809,-0.01,-0.01,-0.01
1777732989.2444954,1.11,0.1,0.0,0.024,0.041,9.809,-0.01,0.0,-0.01
1777732989.2544525,1.11,0.1,0.0,0.019,0.03,9.809,-0.01,-0.01,-0.01
1777732989.2644322,1.12,0.1,0.0,0.014,0.032,9.809,-0.01,0.0,-0.01
1777732989.2744555,1.12,0.1,0.0,0.007,0.026,9.809,-0.01,-0.01,-0.01
1777732989.2848663,1.12,0.1,0.0,0.004,0.024,9.809,-0.01,-0.01,-0.01
1777732989.2946804,1.12,0.1,0.0,0.002,0.026,9.809,-0.01,0.0,-0.01
1777732989.3044324,1.12,0.1,0.0,0.006,0.031,9.809,-0.01,-0.01,-0.01
1777732989.314454,1.13,0.1,0.01,0.013,0.038,9.809,-0.01,-0.01,-0.01
1777732989.3244333,1.13,0.1,0.0,0.016,0.036,9.809,-0.01,-0.01,-0.01
1777732989.3347735,1.13,0.1,0.0,0.019,0.041,9.809,-0.01,-0.01,-0.01
1777732989.3444672,1.13,0.1,0.0,0.022,0.041,9.809,-0.01,0.0,-0.01
1777732989.3544428,1.13,0.1,0.0,0.023,0.032,9.809,-0.01,-0.01,-0.01
1777732989.3644054,1.13,0.1,0.0,0.019,0.03,9.809,-0.01,-0.01,-0.01
1777732989.3744674,1.13,0.1,0.0,0.023,0.022,9.809,-0.01,-0.01,-0.01
1777732989.3844316,1.13,0.1,0.0,0.02,0.026,9.809,-0.01,-0.01,-0.01
1777732989.3944817,1.13,0.1,0.0,0.018,0.024,9.809,-0.01,-0.01,-0.01
1777732989.4046905,1.13,0.1,0.0,0.018,0.031,9.809,-0.01,0.0,-0.01
1777732989.4144163,1.13,0.1,0.0,0.014,0.03,9.809,-0.01,-0.01,-0.01
1777732989.4244025,1.13,0.1,0.0,0.019,0.028,9.809,-0.01,-0.01,-0.01
1777732989.4344177,1.14,0.1,0.0,0.02,0.028,9.809,-0.01,-0.01,-0.01
1777732989.4444609,1.14,0.1,0.0,0.02,0.031,9.809,-0.01,-0.01,-0.01
1777732989.454402,1.14,0.1,0.0,0.022,0.037,9.809,-0.01,-0.01,-0.01
1777732989.4647458,1.14,0.1,0.0,0.016,0.032,9.809,-0.01,-0.01,-0.01
1777732989.474408,1.15,0.1,0.0,0.01,0.036,9.809,-0.01,-0.01,-0.01
1777732989.4844255,1.15,0.1,0.0,0.011,0.037,9.809,-0.01,0.0,-0.01
1777732989.4944065,1.15,0.1,0.0,0.005,0.041,9.809,-0.01,-0.01,-0.01
1777732989.504425,1.15,0.1,0.0,0.006,0.035,9.809,-0.01,-0.01,-0.01
1777732989.5145102,1.15,0.1,0.0,0.006,0.036,9.809,-0.01,-0.01,-0.01
1777732989.524362,1.15,0.1,0.0,0.01,0.034,9.809,-0.01,-0.01,-0.01
1777732989.5344439,1.15,0.1,0.0,0.008,0.025,9.809,-0.01,-0.01,-0.01
1777732989.5444143,1.15,0.1,0.0,0.013,0.029,9.809,0.0,-0.01,-0.01
1777732989.5543714,1.15,0.1,0.0,0.012,0.034,9.809,-0.01,0.0,-0.01
1777732989.5644176,1.15,0.09,0.0,0.006,0.032,9.809,-0.01,0.0,-0.01
1777732989.5747628,1.15,0.09,0.0,0.01,0.035,9.809,-0.01,0.0,-0.01
1777732989.584391,1.15,0.1,0.01,0.006,0.029,9.809,-0.01,-0.01,-0.01
1777732989.5943687,1.16,0.1,0.0,0.011,0.032,9.809,-0.01,-0.01,-0.01
1777732989.604705,1.16,0.1,0.0,0.017,0.031,9.809,-0.01,-0.01,-0.01
1777732989.6145942,1.16,0.1,0.0,0.018,0.038,9.809,-0.01,-0.01,-0.01
1777732989.6247418,1.16,0.1,0.01,0.019,0.043,9.809,-0.01,0.0,-0.01
1777732989.634391,1.16,0.1,0.01,0.017,0.036,9.809,-0.01,-0.01,-0.01
1777732989.6445165,1.17,0.1,0.01,0.013,0.04,9.809,-0.01,-0.01,-0.01
1777732989.654419,1.17,0.1,0.01,0.007,0.03,9.809,-0.01,0.0,-0.01
1777732989.6643918,1.17,0.1,0.01,0.012,0.035,9.809,-0.01,-0.01,0.0
1777732989.674441,1.17,0.1,0.01,0.014,0.036,9.809,-0.01,-0.01,-0.01
1777732989.6844227,1.17,0.1,0.01,0.016,0.037,9.809,-0.01,-0.01,-0.01
1777732989.6944091,1.17,0.1,0.01,0.013,0.038,9.809,-0.01,-0.01,-0.01
1777732989.7043912,1.17,0.1,0.01,0.017,0.036,9.809,-0.01,-0.01,-0.01
1777732989.7144086,1.18,0.1,0.01,0.018,0.038,9.809,-0.01,-0.01,-0.01
1777732989.7244303,1.18,0.1,0.01,0.02,0.029,9.809,-0.01,-0.01,-0.01
1777732989.7343917,1.18,0.1,0.01,0.014,0.031,9.809,-0.01,-0.01,-0.01
1777732989.7443988,1.18,0.1,0.01,0.012,0.034,9.809,-0.01,0.0,-0.01
1777732989.7547295,1.18,0.1,0.01,0.011,0.043,9.809,-0.01,-0.01,-0.01
1777732989.7646224,1.18,0.1,0.01,0.011,0.041,9.809,-0.01,-0.01,-0.01
1777732989.7744007,1.18,0.1,0.01,0.011,0.04,9.809,-0.01,0.0,-0.01
1777732989.784642,1.18,0.1,0.01,0.014,0.034,9.809,-0.01,-0.01,-0.01
1777732989.794394,1.18,0.1,0.01,0.012,0.029,9.809,-0.01,-0.01,-0.01
1777732989.804442,1.18,0.1,0.0,0.014,0.03,9.809,-0.01,-0.01,-0.01
1777732989.8143983,1.18,0.1,0.01,0.013,0.026,9.809,-0.01,-0.01,-0.01
1777732989.8244073,1.19,0.1,0.0,0.018,0.034,9.809,-0.01,-0.01,-0.01
1777732989.8343666,1.19,0.1,0.01,0.018,0.037,9.809,-0.01,-0.01,-0.01
1777732989.8443522,1.19,0.1,0.01,0.018,0.04,9.809,-0.01,-0.01,-0.01
1777732989.8544335,1.19,0.1,0.01,0.012,0.032,9.809,-0.01,-0.01,-0.01
1777732989.8644595,1.19,0.1,0.01,0.011,0.031,9.809,-0.01,0.0,-0.01
1777732989.8744063,1.19,0.1,0.01,0.011,0.032,9.809,-0.01,-0.01,-0.01
1777732989.884399,1.19,0.1,0.01,0.007,0.036,9.809,-0.01,-0.01,0.0
1777732989.8944037,1.2,0.1,0.01,0.013,0.042,9.809,-0.01,0.0,-0.01
1777732989.9047768,1.2,0.1,0.01,0.017,0.041,9.809,-0.01,-0.01,-0.01
1777732989.9145443,1.2,0.1,0.01,0.014,0.036,9.809,-0.01,-0.01,-0.01
1777732989.9243608,1.2,0.1,0.01,0.016,0.024,9.809,-0.01,-0.01,-0.01
1777732989.934366,1.2,0.1,0.01,0.018,0.035,9.809,-0.01,-0.01,-0.01
1777732989.9444332,1.2,0.1,0.01,0.02,0.034,9.809,-0.01,-0.01,-0.01
1777732989.9543722,1.2,0.1,0.01,0.023,0.042,9.809,-0.01,0.0,0.0
1777732989.9644358,1.2,0.1,0.01,0.024,0.041,9.809,-0.01,0.0,-0.01
1777732989.9743848,1.2,0.1,0.01,0.018,0.032,9.809,-0.01,-0.01,-0.01
1777732989.9845517,1.2,0.1,0.01,0.017,0.018,9.809,-0.01,-0.01,-0.01
1777732989.9943438,1.21,0.1,0.01,0.012,0.024,9.809,-0.01,-0.01,-0.01
1777732990.005017,1.21,0.1,0.01,0.014,0.029,9.809,-0.01,-0.01,-0.01
1777732990.0146558,1.21,0.1,0.01,0.022,0.03,9.809,-0.01,-0.01,-0.01
1777732990.0243504,1.21,0.1,0.01,0.019,0.028,9.809,-0.01,-0.01,-0.01
1777732990.03395,1.21,0.1,0.01,0.019,0.034,9.809,-0.01,-0.01,-0.01
1777732990.044413,1.21,0.1,0.01,0.014,0.031,9.809,-0.01,-0.01,-0.01
1777732990.053562,1.22,0.1,0.01,0.013,0.029,9.809,-0.01,0.0,-0.01
1777732990.0635352,1.22,0.1,0.01,0.016,0.035,9.809,-0.01,-0.01,-0.01
1777732990.0743737,1.22,0.1,0.01,0.016,0.03,9.809,-0.01,0.0,-0.01
1777732990.083564,1.22,0.1,0.01,0.014,0.031,9.809,-0.01,-0.01,-0.01
1777732990.093527,1.22,0.1,0.01,0.018,0.034,9.809,-0.01,-0.01,-0.01
1777732990.1043625,1.22,0.1,0.01,0.018,0.04,9.809,-0.01,-0.01,-0.01
1777732990.113575,1.22,0.1,0.01,0.014,0.037,9.809,-0.01,-0.01,-0.01
1777732990.1235497,1.22,0.1,0.01,0.014,0.031,9.809,-0.01,-0.01,-0.01
1777732990.1343596,1.22,0.1,0.01,0.014,0.03,9.809,-0.01,0.0,-0.01
1777732990.1440458,1.22,0.1,0.01,0.016,0.025,9.809,-0.01,-0.01,-0.01
1777732990.153734,1.22,0.1,0.0,0.013,0.034,9.809,-0.01,-0.01,-0.01
1777732990.1635306,1.22,0.1,0.01,0.011,0.035,9.809,-0.01,-0.01,-0.01
1777732990.1737063,1.23,0.1,0.01,0.011,0.034,9.809,-0.01,-0.01,0.0
1777732990.1835048,1.23,0.1,0.0,0.011,0.035,9.809,-0.01,-0.01,-0.01
1777732990.1935728,1.23,0.1,0.0,0.011,0.026,9.809,-0.01,-0.01,-0.01
1777732990.2035384,1.23,0.1,0.0,0.016,0.018,9.809,-0.01,-0.01,-0.01
1777732990.2135463,1.23,0.1,0.0,0.011,0.023,9.809,-0.01,-0.01,-0.01
1777732990.2235382,1.24,0.1,0.0,0.004,0.026,9.809,-0.01,-0.01,-0.01
1777732990.2334874,1.24,0.1,0.0,0.002,0.03,9.809,-0.01,-0.01,-0.01
1777732990.2437253,1.24,0.1,0.0,0.004,0.029,9.809,-0.01,-0.01,-0.01
1777732990.2535048,1.24,0.1,0.0,0.008,0.032,9.809,-0.01,-0.01,-0.01
1777732990.2635345,1.24,0.1,0.0,0.011,0.028,9.809,-0.01,-0.01,-0.01
1777732990.2734995,1.24,0.1,0.0,0.016,0.026,9.809,-0.01,0.0,-0.01
1777732990.2835443,1.24,0.1,0.0,0.02,0.03,9.809,-0.01,0.0,0.0
1777732990.2934947,1.24,0.1,0.0,0.018,0.028,9.809,-0.01,-0.01,-0.01
1777732990.3035192,1.24,0.1,0.0,0.018,0.028,9.809,-0.01,0.0,-0.01
1777732990.3136563,1.24,0.1,0.0,0.014,0.029,9.809,-0.01,-0.01,-0.01
1777732990.3238268,1.24,0.1,0.0,0.007,0.029,9.809,-0.01,-0.01,-0.01
1777732990.3335536,1.25,0.1,0.0,0.01,0.03,9.809,-0.01,0.0,-0.01
1777732990.3434567,1.25,0.1,0.0,0.008,0.031,9.809,-0.01,-0.01,-0.01
1777732990.3534966,1.25,0.1,0.0,0.014,0.034,9.809,-0.01,-0.01,-0.01
1777732990.3634768,1.25,0.1,0.0,0.019,0.031,9.809,-0.01,0.0,-0.01
1777732990.3734953,1.25,0.1,0.0,0.018,0.035,9.809,-0.01,-0.01,-0.01
1777732990.3834739,1.25,0.1,0.0,0.016,0.032,9.809,-0.01,-0.01,-0.01
1777732990.393474,1.26,0.1,0.0,0.017,0.026,9.809,-0.01,-0.01,-0.01
1777732990.4034998,1.26,0.1,0.0,0.019,0.029,9.809,-0.01,-0.01,-0.01
1777732990.413485,1.26,0.1,0.0,0.018,0.029,9.809,-0.01,0.0,-0.01
1777732990.4234767,1.26,0.1,0.0,0.014,0.029,9.809,-0.01,0.0,-0.01
1777732990.4334466,1.26,0.1,0.0,0.01,0.024,9.809,-0.01,0.0,-0.01
1777732990.4435234,1.27,0.1,0.0,0.008,0.025,9.809,-0.01,-0.01,-0.01
1777732990.4534535,1.27,0.1,0.0,0.01,0.031,9.809,-0.01,-0.01,-0.01
1777732990.4634898,1.27,0.1,0.0,0.007,0.029,9.809,-0.01,-0.01,-0.01
1777732990.4739625,1.27,0.1,0.0,0.006,0.032,9.81,-0.01,-0.01,-0.01
1777732990.4834616,1.27,0.1,0.0,0.008,0.03,9.81,-0.01,-0.01,-0.01
1777732990.4934452,1.27,0.1,0.0,0.01,0.03,9.809,-0.01,0.0,-0.01
1777732990.5034826,1.27,0.1,0.0,0.005,0.03,9.809,-0.01,-0.01,-0.01
1777732990.5134726,1.27,0.1,0.0,0.006,0.026,9.809,-0.01,-0.01,0.0
1777732990.5234652,1.27,0.09,0.0,0.012,0.024,9.809,-0.01,0.0,0.0
1777732990.5334845,1.27,0.1,0.0,-0.008,0.018,9.809,-0.01,0.0,-0.01
1777732990.5437376,1.27,0.1,0.0,-0.062,0.004,9.809,-0.01,-0.01,-0.01
1777732990.5535219,1.27,0.1,-0.01,-0.077,0.002,9.809,-0.01,-0.01,0.0
1777732990.5635724,1.27,0.1,-0.01,-0.049,0.016,9.809,-0.01,-0.01,0.0
1777732990.5734708,1.27,0.11,-0.01,-0.002,0.032,9.809,-0.01,-0.01,-0.01
1777732990.5834603,1.27,0.12,0.0,0.057,0.05,9.809,-0.01,-0.01,-0.01
1777732990.5935345,1.28,0.13,0.0,0.104,0.053,9.809,-0.01,-0.01,-0.01
1777732990.603474,1.28,0.13,0.0,0.11,0.047,9.809,-0.01,0.0,-0.01
1777732990.6134584,1.28,0.13,0.0,0.085,0.048,9.809,-0.01,0.0,0.0
1777732990.623426,1.28,0.13,0.0,0.03,0.037,9.809,-0.01,0.0,-0.01
1777732990.633412,1.28,0.11,-0.01,-0.024,0.032,9.809,-0.01,0.0,-0.01
1777732990.6434317,1.28,0.1,-0.01,-0.067,0.014,9.809,-0.01,0.0,-0.01
1777732990.6534362,1.29,0.1,-0.01,-0.087,0.011,9.809,-0.01,-0.01,-0.01
1777732990.6634283,1.29,0.1,-0.01,-0.066,0.019,9.809,-0.01,-0.01,-0.01
1777732990.6734061,1.29,0.1,-0.01,-0.024,0.031,9.809,-0.01,-0.01,-0.01
1777732990.683456,1.29,0.11,0.0,0.026,0.049,9.809,-0.01,-0.01,-0.01
1777732990.6935482,1.29,0.12,0.0,0.061,0.051,9.809,-0.01,-0.01,-0.01
1777732990.7034867,1.29,0.12,0.0,0.074,0.061,9.809,-0.01,-0.01,-0.01
1777732990.7134397,1.29,0.12,0.0,0.062,0.062,9.809,-0.01,0.0,0.0
1777732990.7243373,1.29,0.11,0.0,0.024,0.055,9.809,-0.01,0.0,0.0
1777732990.7335598,1.29,0.1,0.0,-0.019,0.042,9.809,-0.01,0.0,-0.01
1777732990.743748,1.29,0.1,0.0,-0.051,0.019,9.809,-0.01,0.0,-0.01
1777732990.753518,1.29,0.09,-0.01,-0.061,0.004,9.809,-0.01,-0.01,-0.01
1777732990.7634583,1.3,0.09,-0.01,-0.046,-0.001,9.809,-0.01,-0.01,-0.01
1777732990.7734458,1.3,0.1,-0.01,-0.012,0.019,9.809,-0.01,-0.01,-0.01
1777732990.783416,1.3,0.1,0.0,0.032,0.037,9.809,-0.01,-0.01,-0.01
1777732990.793424,1.3,0.11,0.0,0.056,0.051,9.809,0.0,-0.01,-0.01
1777732990.8035438,1.3,0.11,0.01,0.071,0.067,9.809,-0.01,-0.01,-0.01
1777732990.8139427,1.3,0.11,0.01,0.055,0.069,9.809,-0.01,0.0,0.0
1777732990.82352,1.3,0.1,0.01,0.026,0.068,9.809,-0.01,0.0,-0.01
1777732990.8334248,1.31,0.1,0.01,-0.004,0.044,9.809,-0.01,0.0,-0.01
1777732990.843406,1.31,0.1,0.0,-0.034,0.014,9.809,-0.01,0.0,-0.01
1777732990.8534322,1.31,0.09,-0.01,-0.047,0.004,9.809,-0.01,-0.01,-0.01
1777732990.863431,1.31,0.09,-0.01,-0.037,-0.004,9.809,-0.01,-0.01,-0.01
1777732990.8734426,1.31,0.1,-0.01,-0.002,0.011,9.809,-0.01,-0.01,0.0
1777732990.8834252,1.31,0.1,-0.01,0.028,0.031,9.809,-0.01,-0.01,-0.01
1777732990.8926442,1.32,0.1,0.0,0.046,0.048,9.809,-0.01,-0.01,-0.01
1777732990.903406,1.32,0.1,0.0,0.046,0.057,9.809,-0.01,0.0,-0.01
1777732990.9128964,1.32,0.1,0.0,0.036,0.05,9.809,-0.01,0.0,-0.01
1777732990.9226336,1.32,0.1,0.0,0.017,0.054,9.809,-0.01,0.0,-0.01
1777732990.933428,1.32,0.1,0.0,-0.013,0.034,9.809,-0.01,0.0,0.0
1777732990.9434307,1.32,0.09,0.0,-0.032,0.017,9.809,-0.01,-0.01,0.0
1777732990.9534712,1.32,0.09,-0.01,-0.036,0.0,9.809,-0.01,-0.01,-0.01
1777732990.9626122,1.32,0.09,-0.01,-0.024,-0.006,9.809,-0.01,-0.01,-0.01
1777732990.9725878,1.32,0.09,-0.01,0.005,0.0,9.809,-0.01,-0.01,-0.01
1777732990.9835346,1.32,0.1,-0.01,0.025,0.016,9.809,0.0,-0.01,-0.01
1777732990.9925373,1.32,0.1,-0.01,0.044,0.035,9.809,-0.01,-0.01,-0.01
1777732991.0025032,1.32,0.1,0.0,0.049,0.06,9.809,-0.01,0.0,-0.01
1777732991.012524,1.33,0.1,0.0,0.041,0.066,9.809,-0.01,0.0,0.0
1777732991.0225787,1.33,0.1,0.0,0.017,0.066,9.809,-0.01,0.0,-0.01
1777732991.032605,1.33,0.1,0.0,-0.001,0.05,9.809,-0.01,0.0,-0.01
1777732991.0426383,1.33,0.09,0.0,-0.018,0.022,9.809,-0.01,0.0,-0.01
1777732991.0525398,1.33,0.09,-0.01,-0.024,0.0,9.809,-0.01,-0.01,-0.01
1777732991.063456,1.34,0.09,-0.01,-0.014,-0.012,9.809,-0.01,-0.01,-0.01
1777732991.0725303,1.34,0.09,-0.01,-0.004,-0.007,9.809,-0.01,-0.01,-0.01
1777732991.082545,1.34,0.1,-0.01,0.012,0.007,9.809,0.0,-0.01,-0.01
1777732991.092513,1.34,0.1,-0.01,0.022,0.044,9.809,-0.01,-0.01,-0.01
1777732991.1025114,1.34,0.1,0.0,0.02,0.063,9.809,-0.01,0.0,-0.01
1777732991.1124985,1.34,0.1,0.0,0.02,0.069,9.809,-0.01,0.0,-0.01
1777732991.1225665,1.34,0.09,0.01,0.012,0.063,9.809,-0.01,0.0,-0.01
1777732991.1324935,1.34,0.09,0.0,0.001,0.037,9.809,-0.01,0.0,-0.01
1777732991.14253,1.34,0.09,0.0,-0.007,0.02,9.809,-0.01,0.0,-0.01
1777732991.1524959,1.34,0.09,-0.01,-0.008,-0.002,9.809,-0.01,-0.01,-0.01
1777732991.1625137,1.34,0.09,-0.01,0.0,0.001,9.809,-0.01,-0.01,-0.01
1777732991.1725225,1.34,0.09,-0.01,0.011,0.007,9.809,-0.01,-0.01,0.0
1777732991.1825204,1.35,0.09,-0.01,0.022,0.025,9.809,0.0,-0.01,-0.01
1777732991.1925066,1.35,0.1,0.0,0.03,0.046,9.809,-0.01,-0.01,-0.01
1777732991.2025464,1.35,0.1,0.0,0.032,0.06,9.809,-0.01,0.0,-0.01
1777732991.2124984,1.35,0.1,0.01,0.032,0.065,9.809,-0.01,-0.01,-0.01
1777732991.2225237,1.35,0.1,0.01,0.024,0.059,9.809,-0.01,0.0,0.0
1777732991.2324772,1.35,0.09,0.0,0.01,0.046,9.809,-0.01,0.0,0.0
1777732991.2433643,1.36,0.09,0.0,-0.001,0.028,9.809,-0.01,0.0,-0.01
1777732991.2529747,1.36,0.09,0.0,-0.004,0.006,9.809,-0.01,-0.01,-0.01
1777732991.2625175,1.36,0.09,-0.01,0.0,0.002,9.809,-0.01,-0.01,-0.01
1777732991.2725475,1.36,0.09,-0.01,0.004,0.002,9.809,-0.01,-0.01,-0.01
1777732991.2825155,1.36,0.09,-0.01,0.01,0.028,9.809,-0.01,-0.01,-0.01
1777732991.2924883,1.36,0.1,0.0,0.018,0.05,9.809,-0.01,-0.01,-0.01
1777732991.3030121,1.36,0.1,0.01,0.024,0.071,9.809,-0.01,-0.01,-0.01
1777732991.3125029,1.36,0.1,0.01,0.025,0.072,9.809,-0.01,-0.01,-0.01
1777732991.3225105,1.36,0.1,0.01,0.023,0.055,9.809,-0.01,0.0,-0.01
1777732991.3326101,1.36,0.09,0.0,0.014,0.034,9.809,-0.01,0.0,-0.01
1777732991.3424764,1.37,0.09,0.0,0.004,0.013,9.809,-0.01,0.0,-0.01
1777732991.3525167,1.37,0.09,-0.01,-0.002,0.0,9.809,-0.01,-0.01,-0.01
1777732991.3625424,1.37,0.09,-0.01,-0.002,0.001,9.809,-0.01,0.0,-0.01
1777732991.3724954,1.37,0.09,-0.01,-0.004,0.013,9.809,-0.01,-0.01,-0.01
1777732991.3825047,1.37,0.09,0.0,0.006,0.029,9.809,-0.01,-0.01,-0.01
1777732991.3924818,1.37,0.09,0.0,0.017,0.047,9.809,-0.01,-0.01,0.0
1777732991.402479,1.38,0.09,0.0,0.024,0.057,9.809,-0.01,0.0,-0.01
1777732991.4124851,1.38,0.09,0.01,0.025,0.056,9.809,-0.01,-0.01,-0.01
1777732991.4225008,1.38,0.09,0.0,0.022,0.048,9.809,-0.01,0.0,-0.01
1777732991.4325135,1.38,0.09,0.0,0.018,0.034,9.809,-0.01,0.0,-0.01
1777732991.4424746,1.38,0.09,0.0,0.006,0.022,9.809,-0.01,0.0,-0.01
1777732991.4524922,1.38,0.08,-0.01,-0.004,0.017,9.809,-0.01,0.0,0.0
1777732991.4624767,1.39,0.08,-0.01,-0.01,0.011,9.809,-0.01,-0.01,-0.01
1777732991.472763,1.39,0.08,-0.01,-0.01,0.018,9.809,-0.01,-0.01,-0.01
1777732991.4824789,1.39,0.08,0.0,0.0,0.03,9.809,-0.01,-0.01,-0.01
1777732991.4925084,1.39,0.09,0.0,0.008,0.04,9.809,-0.01,-0.01,-0.01
1777732991.5024652,1.39,0.09,0.0,0.017,0.05,9.809,-0.01,-0.01,-0.01
1777732991.5124857,1.39,0.09,0.0,0.023,0.046,9.809,-0.01,-0.01,-0.01
1777732991.5224605,1.39,0.09,0.0,0.023,0.036,9.809,-0.01,0.0,-0.01
1777732991.5324914,1.39,0.09,0.0,0.019,0.016,9.809,-0.01,0.0,-0.01
1777732991.5424986,1.39,0.09,-0.01,0.012,0.011,9.809,-0.01,0.0,-0.01
1777732991.552473,1.39,0.08,-0.01,0.0,0.004,9.809,-0.01,0.0,-0.01
1777732991.562515,1.39,0.08,-0.01,0.0,0.007,9.809,0.0,-0.01,-0.01
1777732991.572566,1.4,0.08,-0.01,0.004,0.017,9.809,-0.01,-0.01,-0.01
1777732991.582496,1.4,0.08,-0.01,0.011,0.03,9.809,-0.01,-0.01,-0.01
1777732991.5924745,1.4,0.09,-0.01,0.018,0.049,9.809,-0.01,-0.01,-0.01
1777732991.6025038,1.4,0.09,0.0,0.02,0.053,9.809,-0.01,-0.01,-0.01
1777732991.6124682,1.4,0.09,0.0,0.023,0.057,9.809,-0.01,0.0,-0.01
1777732991.622477,1.41,0.09,0.0,0.028,0.048,9.809,-0.01,0.0,-0.01
1777732991.6325,1.41,0.09,0.0,0.02,0.019,9.809,-0.01,0.0,-0.01
1777732991.6424713,1.41,0.09,-0.01,0.012,0.012,9.809,-0.01,0.0,-0.01
1777732991.652538,1.41,0.09,-0.01,0.007,0.005,9.809,-0.01,-0.01,-0.01
1777732991.6625304,1.41,0.09,-0.01,-0.001,0.013,9.809,-0.01,-0.01,0.0
1777732991.6724849,1.41,0.09,-0.01,-0.001,0.025,9.809,-0.01,-0.01,-0.01
1777732991.6826215,1.41,0.09,-0.01,0.008,0.032,9.809,-0.01,-0.01,-0.01
1777732991.6926017,1.41,0.09,-0.01,0.023,0.044,9.809,-0.01,-0.01,-0.01
1777732991.7025197,1.41,0.09,-0.01,0.028,0.049,9.809,-0.01,-0.01,-0.01
1777732991.7126813,1.41,0.1,-0.01,0.036,0.054,9.809,-0.01,-0.01,-0.01
1777732991.7225094,1.41,0.1,0.0,0.034,0.048,9.809,-0.01,0.0,-0.01
1777732991.7326484,1.42,0.1,-0.01,0.022,0.038,9.809,-0.01,0.0,-0.01
1777732991.7425113,1.42,0.09,-0.01,0.011,0.026,9.809,-0.01,0.0,-0.01
1777732991.7525096,1.42,0.09,-0.01,-0.001,0.018,9.809,-0.01,-0.01,-0.01
1777732991.762487,1.42,0.09,-0.01,-0.008,0.024,9.809,-0.01,-0.01,-0.01
1777732991.771594,1.42,0.09,-0.01,-0.007,0.026,9.809,-0.01,-0.01,-0.01
1777732991.7825603,1.43,0.09,-0.01,0.001,0.034,9.809,-0.01,-0.01,-0.01
1777732991.7924924,1.43,0.09,-0.01,0.014,0.044,9.809,-0.01,-0.01,-0.01
1777732991.8024738,1.43,0.1,0.0,0.022,0.048,9.809,-0.01,-0.01,-0.01
1777732991.8115757,1.43,0.1,0.0,0.026,0.053,9.809,-0.01,-0.01,-0.01
1777732991.822885,1.43,0.1,0.0,0.024,0.043,9.809,-0.01,0.0,-0.01
1777732991.8315964,1.43,0.09,0.0,0.018,0.035,9.809,-0.01,0.0,-0.01
1777732991.8424807,1.43,0.09,-0.01,0.007,0.031,9.809,-0.01,0.0,-0.01
1777732991.851593,1.43,0.09,-0.01,-0.006,0.02,9.809,-0.01,-0.01,-0.01
1777732991.8615744,1.43,0.09,-0.01,-0.013,0.023,9.809,-0.01,0.0,-0.01
1777732991.872493,1.43,0.08,-0.01,-0.006,0.025,9.809,-0.01,-0.01,-0.01
1777732991.8824923,1.43,0.08,-0.01,0.004,0.037,9.809,-0.01,-0.01,-0.01
1777732991.891637,1.44,0.09,0.0,0.008,0.037,9.809,-0.01,-0.01,-0.01
1777732991.9015756,1.44,0.09,0.0,0.018,0.042,9.809,-0.01,-0.01,-0.01
1777732991.9117002,1.44,0.09,0.0,0.029,0.049,9.809,-0.01,-0.01,-0.01
1777732991.9215884,1.44,0.09,0.0,0.023,0.048,9.809,-0.01,-0.01,0.0
1777732991.9316719,1.44,0.09,0.0,0.014,0.04,9.809,-0.01,0.0,-0.01
1777732991.9415834,1.44,0.09,0.0,0.005,0.026,9.809,-0.01,0.0,-0.01
1777732991.9516244,1.44,0.09,-0.01,-0.01,0.02,9.809,-0.01,0.0,-0.01
1777732991.961581,1.45,0.08,-0.01,-0.008,0.018,9.809,-0.01,0.0,-0.01
1777732991.9715872,1.45,0.08,-0.01,-0.005,0.023,9.809,-0.01,-0.01,-0.01
1777732991.981607,1.45,0.08,-0.01,0.0,0.029,9.809,-0.01,-0.01,-0.01
1777732991.9916618,1.45,0.09,0.0,0.012,0.028,9.809,-0.01,-0.01,-0.01
1777732992.0016143,1.45,0.09,0.0,0.02,0.043,9.809,-0.01,-0.01,-0.01
1777732992.0116425,1.45,0.09,0.0,0.026,0.042,9.809,-0.01,0.0,-0.01
1777732992.0216074,1.45,0.09,0.0,0.024,0.042,9.809,-0.01,-0.01,-0.01
1777732992.0316434,1.45,0.09,0.0,0.016,0.042,9.809,-0.01,0.0,-0.01
1777732992.0416167,1.45,0.09,0.0,0.012,0.028,9.809,-0.01,0.0,-0.01
1777732992.0516229,1.46,0.08,0.0,0.004,0.023,9.809,-0.01,-0.01,-0.01
1777732992.0615892,1.46,0.08,0.0,0.0,0.017,9.809,-0.01,-0.01,-0.01
1777732992.0716171,1.46,0.08,0.0,0.001,0.023,9.809,-0.01,-0.01,-0.01
1777732992.0816102,1.46,0.09,0.0,0.006,0.03,9.809,-0.01,-0.01,-0.01
1777732992.0915754,1.46,0.09,0.0,0.017,0.04,9.809,-0.01,-0.01,-0.01
1777732992.1015897,1.46,0.09,0.0,0.022,0.043,9.809,-0.01,-0.01,-0.01
1777732992.1115863,1.46,0.09,0.0,0.025,0.047,9.809,-0.01,-0.01,-0.01
1777732992.1216266,1.47,0.09,0.0,0.018,0.043,9.809,-0.01,0.0,-0.01
1777732992.1315994,1.47,0.09,0.0,0.014,0.046,9.809,-0.01,0.0,-0.01
1777732992.1415675,1.47,0.09,0.0,0.01,0.031,9.809,-0.01,0.0,-0.01
1777732992.151793,1.47,0.08,0.0,0.005,0.029,9.809,-0.01,0.0,-0.01
1777732992.1619205,1.47,0.08,0.0,-0.001,0.023,9.809,-0.01,0.0,-0.01
1777732992.1715868,1.48,0.08,0.0,0.0,0.019,9.809,-0.01,-0.01,-0.01
1777732992.1817093,1.48,0.08,0.0,0.006,0.025,9.809,-0.01,-0.01,-0.01
1777732992.1916103,1.48,0.09,0.0,0.007,0.034,9.809,-0.01,-0.01,-0.01
1777732992.2016206,1.48,0.09,0.0,0.017,0.031,9.809,-0.01,-0.01,-0.01
1777732992.2115872,1.48,0.09,0.0,0.019,0.032,9.809,-0.01,-0.01,-0.01
1777732992.221592,1.48,0.09,0.0,0.02,0.038,9.809,-0.01,0.0,0.0
1777732992.2323732,1.48,0.09,0.0,0.022,0.042,9.809,-0.01,-0.01,0.0
1777732992.2416153,1.48,0.09,0.0,0.014,0.034,9.809,-0.01,0.0,-0.01
1777732992.2529414,1.48,0.08,0.0,0.005,0.029,9.809,-0.01,0.0,-0.01
1777732992.261959,1.48,0.08,0.0,0.007,0.019,9.809,-0.01,-0.01,-0.01
1777732992.2716372,1.48,0.08,-0.01,0.005,0.017,9.809,-0.01,-0.01,-0.01
1777732992.281672,1.48,0.09,0.0,0.016,0.02,9.809,-0.01,-0.01,-0.01
1777732992.2917612,1.49,0.09,0.0,0.025,0.031,9.809,-0.01,-0.01,-0.01
1777732992.3028076,1.49,0.09,0.0,0.03,0.04,9.809,-0.01,-0.01,-0.01
1777732992.312042,1.49,0.09,0.0,0.025,0.047,9.809,-0.01,-0.01,-0.01
1777732992.321607,1.49,0.09,0.0,0.023,0.048,9.809,-0.01,0.0,-0.01
1777732992.3316772,1.49,0.09,0.0,0.02,0.037,9.809,-0.01,-0.01,0.0
1777732992.3415956,1.49,0.09,0.0,0.011,0.035,9.809,-0.01,0.0,-0.01
1777732992.3516576,1.5,0.09,0.0,0.001,0.023,9.809,-0.01,0.0,-0.01
1777732992.361631,1.5,0.08,-0.01,-0.004,0.012,9.809,-0.01,-0.01,-0.01
1777732992.3716738,1.5,0.08,-0.01,-0.006,0.014,9.809,-0.01,-0.01,-0.01
1777732992.3816977,1.5,0.08,-0.01,0.0,0.016,9.809,-0.01,-0.01,-0.01
1777732992.391629,1.5,0.08,-0.01,0.005,0.035,9.809,-0.01,-0.01,0.0
1777732992.4016216,1.5,0.08,-0.01,0.007,0.038,9.809,-0.01,-0.01,-0.01
1777732992.411666,1.5,0.08,0.0,0.013,0.043,9.809,-0.01,-0.01,-0.01
1777732992.4216363,1.5,0.08,0.0,0.018,0.037,9.809,-0.01,-0.01,-0.01
1777732992.4316185,1.5,0.08,-0.01,0.011,0.031,9.809,-0.01,0.0,-0.01
1777732992.4416094,1.5,0.08,-0.01,0.007,0.018,9.809,-0.01,0.0,-0.01
1777732992.4516551,1.5,0.08,-0.01,0.005,0.014,9.809,-0.01,0.0,-0.01
1777732992.46164,1.51,0.08,-0.01,0.001,0.017,9.809,-0.01,-0.01,-0.01
1777732992.4716163,1.51,0.08,-0.01,0.0,0.016,9.809,-0.01,0.0,-0.01
1777732992.4816096,1.51,0.08,-0.01,0.002,0.029,9.809,-0.01,-0.01,-0.01
1777732992.4916208,1.51,0.08,-0.01,0.004,0.034,9.809,-0.01,-0.01,-0.01
1777732992.501628,1.51,0.08,-0.01,0.005,0.047,9.809,-0.01,-0.01,-0.01
1777732992.511613,1.51,0.08,0.0,0.013,0.048,9.809,-0.01,-0.01,-0.01
1777732992.521573,1.52,0.08,0.0,0.016,0.042,9.809,-0.01,-0.01,-0.01
1777732992.531626,1.52,0.08,-0.01,0.019,0.042,9.809,-0.01,0.0,-0.01
1777732992.5416064,1.52,0.08,-0.01,0.019,0.037,9.809,-0.01,0.0,-0.01
1777732992.551574,1.52,0.08,-0.01,0.013,0.035,9.809,-0.01,-0.01,-0.01
1777732992.5616302,1.52,0.08,-0.01,0.005,0.03,9.809,-0.01,0.0,-0.01
1777732992.571607,1.52,0.08,-0.01,0.0,0.031,9.809,-0.01,-0.01,-0.01
1777732992.5815945,1.52,0.08,-0.01,0.001,0.031,9.809,-0.01,-0.01,-0.01
1777732992.5916438,1.52,0.08,-0.01,0.005,0.032,9.809,-0.01,0.0,-0.01
1777732992.6016116,1.52,0.08,-0.01,0.014,0.037,9.809,-0.01,-0.01,-0.01
1777732992.61159,1.52,0.08,0.0,0.013,0.031,9.809,-0.01,-0.01,-0.01
1777732992.6207745,1.52,0.08,-0.01,0.012,0.028,9.809,-0.01,-0.01,-0.01
1777732992.6316235,1.53,0.08,-0.01,0.014,0.023,9.809,-0.01,0.0,-0.01
1777732992.649813,1.53,0.08,-0.01,0.011,0.022,9.809,-0.01,0.0,-0.01
1777732992.6580546,1.53,0.08,-0.01,0.002,0.02,9.809,-0.01,-0.01,-0.01
1777732992.66158,1.53,0.08,-0.01,0.001,0.01,9.809,-0.01,-0.01,-0.01
1777732992.671885,1.53,0.08,-0.01,0.001,0.017,9.809,-0.01,0.0,-0.01
1777732992.6807437,1.53,0.08,-0.01,0.002,0.023,9.809,-0.01,0.0,-0.01
1777732992.691612,1.54,0.08,-0.01,0.008,0.031,9.809,-0.01,-0.01,-0.01
1777732992.7016275,1.54,0.08,-0.01,0.018,0.04,9.809,-0.01,-0.01,-0.01
1777732992.7116368,1.54,0.08,-0.01,0.018,0.036,9.809,-0.01,-0.01,-0.01
1777732992.7207634,1.54,0.08,-0.01,0.023,0.04,9.809,-0.01,-0.01,-0.01
1777732992.7307374,1.54,0.08,-0.01,0.018,0.03,9.809,-0.01,-0.01,-0.01
1777732992.74076,1.55,0.08,-0.01,0.018,0.031,9.809,-0.01,-0.01,-0.01
1777732992.7507913,1.55,0.08,-0.01,0.007,0.029,9.809,-0.01,-0.01,-0.01
1777732992.760764,1.55,0.08,-0.01,0.006,0.03,9.809,-0.01,-0.01,-0.01
1777732992.770758,1.55,0.08,-0.01,0.001,0.035,9.809,-0.01,0.0,-0.01
1777732992.780771,1.55,0.08,-0.01,0.0,0.036,9.809,-0.01,-0.01,-0.01
1777732992.7916245,1.55,0.08,-0.01,0.005,0.036,9.809,-0.01,-0.01,-0.01
1777732992.800773,1.55,0.08,-0.01,0.002,0.032,9.809,-0.01,0.0,-0.01
1777732992.8107467,1.55,0.08,-0.01,0.005,0.031,9.809,-0.01,-0.01,-0.01
1777732992.8214478,1.55,0.08,-0.01,0.013,0.034,9.809,-0.01,0.0,-0.01
1777732992.8307552,1.55,0.08,-0.01,0.008,0.028,9.809,-0.01,0.0,-0.01
1777732992.8407488,1.55,0.08,-0.01,0.01,0.037,9.809,-0.01,0.0,-0.01
1777732992.850756,1.55,0.08,-0.01,0.008,0.026,9.809,-0.01,0.0,-0.01
1777732992.8607383,1.56,0.07,-0.01,0.0,0.025,9.809,-0.01,0.0,-0.01
1777732992.870752,1.56,0.07,-0.01,0.0,0.018,9.809,-0.01,-0.01,-0.01
1777732992.8807511,1.56,0.07,-0.01,-0.001,0.029,9.809,-0.01,-0.01,-0.01
1777732992.8907983,1.56,0.07,-0.01,0.007,0.032,9.809,-0.01,-0.01,-0.01
1777732992.9007418,1.56,0.07,-0.01,0.014,0.037,9.809,-0.01,-0.01,-0.01
1777732992.9107125,1.57,0.07,-0.01,0.018,0.04,9.809,-0.01,-0.01,-0.01
1777732992.9207506,1.57,0.08,-0.01,0.016,0.036,9.809,-0.01,0.0,-0.01
1777732992.930943,1.57,0.07,-0.01,0.016,0.036,9.809,-0.01,-0.01,-0.01
1777732992.940715,1.57,0.07,-0.01,0.01,0.031,9.809,-0.01,-0.01,-0.01
1777732992.9506938,1.57,0.07,-0.01,0.007,0.024,9.809,-0.01,-0.01,-0.01
1777732992.9607756,1.57,0.07,-0.01,0.005,0.02,9.809,-0.01,-0.01,-0.01
1777732992.970717,1.57,0.07,-0.01,0.007,0.023,9.809,-0.01,-0.01,-0.01
1777732992.9807057,1.57,0.07,-0.01,0.012,0.03,9.809,-0.01,-0.01,-0.01
1777732992.991358,1.57,0.08,-0.01,0.011,0.03,9.809,-0.01,-0.01,-0.01
1777732993.0007331,1.57,0.07,-0.01,0.016,0.038,9.809,-0.01,-0.01,-0.01
1777732993.010725,1.58,0.07,-0.01,0.017,0.038,9.809,-0.01,0.0,-0.01
1777732993.020813,1.58,0.08,-0.01,0.018,0.038,9.809,-0.01,0.0,-0.01
1777732993.0306976,1.58,0.08,-0.01,0.016,0.038,9.809,-0.01,-0.01,0.0
1777732993.0407102,1.58,0.08,-0.01,0.013,0.037,9.809,-0.01,-0.01,-0.01
1777732993.0507014,1.58,0.07,-0.01,0.006,0.035,9.809,-0.01,0.0,-0.01
1777732993.060688,1.59,0.07,-0.01,0.006,0.038,9.809,-0.01,-0.01,-0.01
1777732993.070687,1.59,0.07,-0.01,0.008,0.036,9.809,-0.01,-0.01,-0.01
1777732993.0806842,1.59,0.08,-0.01,0.007,0.025,9.809,-0.01,-0.01,-0.01
1777732993.0906587,1.59,0.08,-0.01,0.016,0.026,9.809,-0.01,-0.01,-0.01
1777732993.10071,1.59,0.08,-0.01,0.024,0.034,9.809,-0.01,-0.01,-0.01
1777732993.110697,1.59,0.08,-0.01,0.024,0.038,9.809,-0.01,-0.01,0.0
1777732993.1206656,1.59,0.08,-0.01,0.025,0.046,9.809,-0.01,-0.01,0.0
1777732993.1306984,1.59,0.08,-0.01,0.023,0.042,9.809,-0.01,0.0,-0.01
1777732993.140664,1.59,0.08,-0.01,0.016,0.04,9.809,-0.01,0.0,-0.01
1777732993.1506824,1.59,0.08,-0.01,0.011,0.03,9.809,-0.01,-0.01,-0.01
1777732993.160721,1.6,0.08,-0.01,0.006,0.025,9.809,-0.01,-0.01,-0.01
1777732993.1707044,1.6,0.08,-0.01,0.01,0.024,9.809,-0.01,-0.01,-0.01
1777732993.18067,1.6,0.08,-0.01,0.011,0.035,9.809,-0.01,-0.01,0.0
1777732993.1911137,1.6,0.08,-0.01,0.014,0.037,9.809,-0.01,-0.01,-0.01
1777732993.2007117,1.6,0.08,-0.01,0.017,0.041,9.809,-0.01,-0.01,-0.01
1777732993.2106833,1.6,0.08,-0.01,0.02,0.041,9.809,-0.01,0.0,-0.01
1777732993.220684,1.61,0.08,-0.01,0.013,0.044,9.809,-0.01,-0.01,-0.01
1777732993.230685,1.61,0.08,-0.01,0.014,0.032,9.809,-0.01,-0.01,-0.01
1777732993.2406914,1.61,0.08,-0.01,0.01,0.041,9.809,-0.01,0.0,0.0
1777732993.2506862,1.61,0.08,-0.01,0.005,0.036,9.809,-0.01,0.0,-0.01
1777732993.2606902,1.61,0.08,-0.01,0.005,0.037,9.809,-0.01,-0.01,-0.01
1777732993.2706995,1.61,0.08,-0.01,0.008,0.018,9.809,-0.01,-0.01,-0.01
1777732993.280696,1.61,0.08,-0.01,0.007,0.026,9.809,-0.01,0.0,-0.01
1777732993.290657,1.62,0.08,-0.01,0.012,0.024,9.809,-0.01,-0.01,-0.01
1777732993.3006928,1.62,0.08,-0.01,0.011,0.032,9.809,-0.01,-0.01,-0.01
1777732993.3107007,1.62,0.08,-0.01,0.018,0.043,9.809,-0.01,0.0,-0.01
1777732993.3206866,1.62,0.08,-0.01,0.016,0.043,9.809,-0.01,-0.01,-0.01
1777732993.3306775,1.62,0.08,-0.01,0.023,0.042,9.809,-0.01,-0.01,-0.01
1777732993.3407068,1.62,0.08,-0.01,0.017,0.035,9.809,-0.01,-0.01,-0.01
1777732993.3507092,1.62,0.08,-0.01,0.011,0.026,9.809,-0.01,0.0,-0.01
1777732993.3606708,1.62,0.08,-0.01,0.006,0.019,9.809,-0.01,-0.01,-0.01
1777732993.370659,1.62,0.08,-0.01,0.0,0.01,9.809,-0.01,-0.01,-0.01
1777732993.3807104,1.62,0.08,-0.01,0.005,0.023,9.809,-0.01,-0.01,-0.01
1777732993.3906965,1.62,0.08,-0.01,0.008,0.026,9.809,-0.01,-0.01,-0.01
1777732993.4006648,1.62,0.08,-0.01,0.016,0.043,9.809,-0.01,-0.01,0.0
1777732993.4107192,1.62,0.08,-0.01,0.017,0.048,9.809,-0.01,-0.01,-0.01
1777732993.4206805,1.63,0.08,-0.01,0.02,0.044,9.809,-0.01,-0.01,-0.01
1777732993.4306655,1.63,0.08,-0.01,0.024,0.032,9.809,-0.01,0.0,-0.01
1777732993.4407098,1.63,0.08,-0.01,0.02,0.025,9.809,-0.01,-0.01,-0.01
1777732993.450666,1.63,0.08,-0.01,0.014,0.024,9.809,-0.01,0.0,-0.01
1777732993.461035,1.63,0.08,-0.01,0.01,0.026,9.809,-0.01,0.0,-0.01
1777732993.4707067,1.64,0.08,-0.01,0.007,0.034,9.809,-0.01,-0.01,-0.01
1777732993.480828,1.64,0.08,-0.01,0.008,0.047,9.809,-0.01,0.0,-0.01
1777732993.4906714,1.64,0.08,-0.01,0.012,0.047,9.809,-0.01,-0.01,-0.01
1777732993.5006573,1.64,0.08,-0.01,0.016,0.043,9.809,-0.01,-0.01,-0.01
1777732993.51064,1.64,0.08,-0.01,0.013,0.031,9.809,-0.01,-0.01,-0.01
1777732993.520664,1.64,0.08,-0.01,0.008,0.031,9.809,-0.01,0.0,-0.01
1777732993.5306566,1.64,0.08,-0.01,0.011,0.028,9.809,-0.01,0.0,-0.01
1777732993.5406508,1.64,0.08,-0.01,0.004,0.032,9.809,-0.01,-0.01,-0.01
1777732993.549834,1.64,0.08,-0.01,0.008,0.031,9.809,-0.01,-0.01,-0.01
1777732993.5606573,1.64,0.08,-0.01,0.008,0.03,9.809,-0.01,0.0,-0.01
1777732993.5698547,1.64,0.08,-0.01,0.01,0.028,9.809,-0.01,-0.01,-0.01
1777732993.579806,1.65,0.08,-0.01,0.01,0.022,9.809,-0.01,-0.01,-0.01
1777732993.590668,1.65,0.08,-0.01,0.012,0.035,9.809,-0.01,-0.01,-0.01
1777732993.6006484,1.65,0.08,-0.01,0.017,0.041,9.809,-0.01,-0.01,-0.01
1777732993.6106563,1.65,0.08,-0.01,0.019,0.044,9.809,-0.01,-0.01,-0.01
1777732993.6198452,1.65,0.08,-0.01,0.019,0.043,9.809,-0.01,-0.01,-0.01
1777732993.6298285,1.65,0.08,-0.01,0.013,0.037,9.809,-0.01,0.0,-0.01
1777732993.6406376,1.65,0.08,-0.01,0.017,0.037,9.809,-0.01,0.0,-0.01
1777732993.6498473,1.66,0.08,-0.01,0.011,0.03,9.809,-0.01,-0.01,-0.01
1777732993.6598284,1.66,0.08,-0.01,0.001,0.037,9.809,-0.01,-0.01,-0.01
1777732993.6698282,1.66,0.08,-0.01,0.0,0.024,9.809,-0.01,-0.01,-0.01
1777732993.6798325,1.66,0.08,-0.01,0.004,0.029,9.809,-0.01,-0.01,-0.01
1777732993.689831,1.66,0.08,-0.01,0.007,0.034,9.809,-0.01,-0.01,-0.01
1777732993.699813,1.66,0.08,-0.01,0.016,0.04,9.809,-0.01,-0.01,-0.01
1777732993.7098262,1.66,0.08,-0.01,0.019,0.043,9.809,-0.01,-0.01,-0.01
1777732993.7198057,1.66,0.08,-0.01,0.018,0.038,9.809,-0.01,-0.01,-0.01
1777732993.7302794,1.66,0.08,-0.01,0.017,0.035,9.809,-0.01,-0.01,-0.01
1777732993.7398207,1.67,0.08,-0.01,0.011,0.019,9.809,-0.01,0.0,-0.01
1777732993.7498312,1.67,0.08,-0.01,0.008,0.023,9.809,-0.01,-0.01,-0.01
1777732993.75982,1.67,0.08,-0.01,0.007,0.029,9.809,-0.01,0.0,-0.01
1777732993.7698517,1.67,0.08,-0.01,0.005,0.037,9.809,-0.01,-0.01,0.0
1777732993.7798185,1.67,0.08,-0.01,0.011,0.046,9.809,-0.01,-0.01,-0.01
1777732993.7897959,1.67,0.08,-0.01,0.017,0.04,9.809,-0.01,-0.01,-0.01
1777732993.799825,1.68,0.08,-0.01,0.02,0.032,9.809,-0.01,-0.01,-0.01
1777732993.8102489,1.68,0.08,-0.01,0.012,0.031,9.809,-0.01,0.0,-0.01
1777732993.8198726,1.68,0.08,-0.01,0.011,0.029,9.809,-0.01,-0.01,-0.01
1777732993.8297923,1.68,0.08,-0.01,0.01,0.035,9.809,-0.01,0.0,-0.01
1777732993.8398116,1.68,0.08,-0.01,0.0,0.026,9.809,-0.01,-0.01,-0.01
1777732993.8497984,1.69,0.08,-0.01,0.002,0.03,9.809,-0.01,0.0,-0.01
1777732993.859814,1.69,0.08,-0.01,0.004,0.038,9.809,-0.01,0.0,-0.01
1777732993.869781,1.69,0.08,-0.01,0.01,0.04,9.809,-0.01,-0.01,0.0
1777732993.8797843,1.69,0.08,-0.01,0.011,0.043,9.809,-0.01,-0.01,-0.01
1777732993.8898346,1.69,0.08,-0.01,0.014,0.038,9.809,-0.01,-0.01,-0.01
1777732993.8997767,1.69,0.08,-0.01,0.014,0.047,9.809,-0.01,0.0,-0.01
1777732993.9097724,1.69,0.08,-0.01,0.012,0.038,9.809,-0.01,-0.01,-0.01
1777732993.9197614,1.69,0.08,-0.01,0.011,0.043,9.809,-0.01,-0.01,-0.01
1777732993.929826,1.69,0.08,-0.01,0.008,0.046,9.809,-0.01,0.0,-0.01
1777732993.9397755,1.69,0.08,-0.01,0.006,0.034,9.809,-0.01,0.0,-0.01
1777732993.9497597,1.7,0.08,-0.01,0.001,0.031,9.809,-0.01,0.0,-0.01
1777732993.959931,1.7,0.08,-0.01,0.001,0.022,9.809,-0.01,-0.01,-0.01
1777732993.9697769,1.7,0.08,-0.01,0.0,0.03,9.809,-0.01,-0.01,-0.01
1777732993.9797635,1.7,0.08,-0.01,-0.001,0.035,9.809,-0.01,-0.01,0.0
1777732993.9897435,1.7,0.08,-0.01,0.005,0.048,9.809,-0.01,-0.01,-0.01
1777732993.9997854,1.7,0.08,0.0,0.007,0.044,9.809,-0.01,-0.01,-0.01
1777732994.0097432,1.7,0.08,0.0,0.004,0.032,9.809,-0.01,-0.01,-0.01
1777732994.0197845,1.71,0.08,-0.01,0.005,0.034,9.809,-0.01,0.0,-0.01
1777732994.0297508,1.71,0.08,-0.01,0.007,0.025,9.809,-0.01,0.0,-0.01
1777732994.0397925,1.71,0.08,-0.01,0.002,0.029,9.809,-0.01,0.0,-0.01
1777732994.049951,1.71,0.08,-0.01,0.004,0.03,9.809,-0.01,0.0,-0.01
1777732994.059814,1.71,0.08,-0.01,0.006,0.035,9.809,-0.01,-0.01,-0.01
1777732994.0697443,1.71,0.08,0.0,0.01,0.032,9.809,-0.01,-0.01,-0.01
1777732994.0797656,1.71,0.08,-0.01,0.012,0.029,9.809,-0.01,-0.01,-0.01
1777732994.0897532,1.71,0.08,-0.01,0.016,0.036,9.809,-0.01,-0.01,-0.01
1777732994.0998013,1.71,0.08,0.0,0.017,0.036,9.809,-0.01,-0.01,-0.01
1777732994.109771,1.71,0.08,0.0,0.024,0.038,9.809,-0.01,-0.01,-0.01
1777732994.1197746,1.72,0.08,0.0,0.025,0.036,9.809,-0.01,-0.01,-0.01
1777732994.1297631,1.72,0.08,-0.01,0.017,0.038,9.809,-0.01,0.0,0.0
1777732994.139871,1.72,0.08,0.0,0.013,0.04,9.809,-0.01,0.0,0.0
1777732994.1501832,1.72,0.08,-0.01,0.01,0.036,9.809,-0.01,-0.01,-0.01
1777732994.16013,1.72,0.08,-0.01,0.01,0.031,9.809,-0.01,-0.01,-0.01
1777732994.170226,1.72,0.08,-0.01,0.005,0.028,9.809,-0.01,-0.01,-0.01
1777732994.1802945,1.72,0.08,-0.01,0.01,0.026,9.809,-0.01,-0.01,-0.01
1777732994.1897755,1.72,0.08,-0.01,0.012,0.036,9.809,-0.01,-0.01,-0.01
1777732994.199778,1.73,0.08,-0.01,0.008,0.04,9.809,-0.01,-0.01,0.0
1777732994.2103662,1.73,0.08,0.0,0.01,0.048,9.809,-0.01,-0.01,-0.01
1777732994.2204518,1.73,0.08,0.0,0.011,0.043,9.809,-0.01,-0.01,-0.01
1777732994.22981,1.73,0.08,0.0,0.007,0.038,9.809,-0.01,-0.01,-0.01
1777732994.239777,1.73,0.08,0.0,0.014,0.03,9.809,-0.01,-0.01,-0.01
1777732994.2497656,1.73,0.08,-0.01,0.008,0.028,9.809,-0.01,-0.01,-0.01
1777732994.260309,1.73,0.08,-0.01,0.005,0.028,9.809,-0.01,-0.01,-0.01
1777732994.2703578,1.73,0.08,-0.01,0.001,0.029,9.809,-0.01,-0.01,-0.01
1777732994.2801805,1.73,0.08,-0.01,0.005,0.028,9.809,-0.01,-0.01,-0.01
1777732994.2899406,1.73,0.08,-0.01,0.002,0.03,9.809,-0.01,-0.01,-0.01
1777732994.2997532,1.74,0.08,-0.01,0.01,0.03,9.809,-0.01,0.0,-0.01
1777732994.3098056,1.74,0.08,-0.01,0.002,0.028,9.809,-0.01,-0.01,-0.01
1777732994.3198323,1.74,0.08,-0.01,0.004,0.024,9.809,-0.01,-0.01,-0.01
1777732994.3297243,1.74,0.08,-0.01,0.002,0.029,9.809,-0.01,-0.01,-0.01
1777732994.3397632,1.74,0.08,-0.01,0.0,0.028,9.809,-0.01,-0.01,-0.01
1777732994.3497567,1.75,0.08,-0.01,0.005,0.031,9.809,-0.01,-0.01,-0.01
1777732994.359733,1.75,0.08,-0.01,0.001,0.023,9.809,-0.01,0.0,-0.01
1777732994.3689237,1.75,0.08,-0.01,0.006,0.028,9.809,-0.01,-0.01,-0.01
1777732994.379766,1.75,0.08,-0.01,0.013,0.028,9.809,-0.01,-0.01,-0.01
1777732994.3897433,1.75,0.08,-0.01,0.014,0.026,9.809,-0.01,-0.01,-0.01
1777732994.3997524,1.76,0.08,-0.01,0.013,0.024,9.809,-0.01,-0.01,-0.01
1777732994.4098268,1.76,0.08,-0.01,0.01,0.018,9.809,-0.01,0.0,-0.01
1777732994.419748,1.76,0.08,-0.01,0.013,0.032,9.809,-0.01,-0.01,-0.01
1777732994.428931,1.76,0.08,-0.01,0.012,0.034,9.809,-0.01,0.0,0.0
1777732994.4397438,1.75,0.08,-0.01,0.014,0.037,9.809,0.0,-0.01,0.0
1777732994.4491289,1.76,0.08,0.0,0.018,0.038,9.809,-0.01,-0.01,0.0
1777732994.4598317,1.76,0.08,0.0,0.016,0.034,9.809,-0.01,-0.01,-0.01
1777732994.4689047,1.76,0.08,0.0,0.019,0.029,9.809,-0.01,0.0,-0.01
1777732994.4789252,1.76,0.08,0.0,0.018,0.019,9.809,0.0,0.0,-0.01
1777732994.4888716,1.76,0.08,0.0,0.018,0.03,9.809,-0.01,0.0,0.0
1777732994.4988897,1.76,0.08,0.0,0.014,0.028,9.809,-0.01,0.0,0.0
1777732994.5088758,1.76,0.08,0.0,0.007,0.031,9.809,0.0,0.0,-0.01
1777732994.518926,1.76,0.08,0.0,0.011,0.034,9.809,-0.01,0.0,-0.01
1777732994.5288918,1.76,0.08,0.0,0.011,0.037,9.809,-0.01,-0.01,-0.01
1777732994.53973,1.76,0.08,0.01,0.014,0.04,9.809,-0.01,-0.01,0.0
1777732994.5489035,1.76,0.08,0.01,0.014,0.036,9.809,-0.01,0.0,0.0
1777732994.5589292,1.76,0.08,0.01,0.008,0.028,9.809,-0.01,-0.01,-0.01
1777732994.5704072,1.76,0.08,0.01,0.008,0.025,9.809,0.0,0.0,-0.01
1777732994.579166,1.76,0.08,0.01,0.01,0.022,9.809,-0.01,0.0,-0.01
1777732994.5888994,1.76,0.08,0.01,0.007,0.03,9.809,-0.01,0.0,0.0
1777732994.599378,1.76,0.08,0.01,0.007,0.029,9.809,0.0,0.0,0.0
1777732994.6088781,1.76,0.08,0.01,0.007,0.034,9.809,-0.01,0.0,-0.01
1777732994.6189375,1.76,0.08,0.01,0.014,0.032,9.809,-0.01,0.0,-0.01
1777732994.62886,1.76,0.08,0.01,0.014,0.03,9.809,-0.01,-0.01,0.0
1777732994.6390285,1.76,0.08,0.01,0.019,0.035,9.809,0.0,0.0,0.0
1777732994.6494823,1.76,0.08,0.01,0.019,0.034,9.809,-0.01,0.0,-0.01
1777732994.6588476,1.76,0.08,0.02,0.024,0.028,9.809,-0.01,0.0,-0.01
1777732994.6688323,1.76,0.08,0.02,0.022,0.026,9.809,-0.01,-0.01,-0.01
1777732994.67889,1.76,0.08,0.02,0.017,0.026,9.809,-0.01,0.0,-0.01
1777732994.6888797,1.76,0.08,0.02,0.013,0.03,9.809,-0.01,0.0,0.0
1777732994.6988478,1.76,0.08,0.02,0.006,0.03,9.809,-0.01,0.0,-0.01
1777732994.709024,1.76,0.08,0.02,0.01,0.032,9.809,-0.01,0.0,-0.01
1777732994.7191334,1.76,0.08,0.02,0.007,0.032,9.809,-0.01,0.0,-0.01
1777732994.7293272,1.76,0.08,0.02,0.01,0.034,9.809,0.0,0.0,-0.01
1777732994.7388368,1.76,0.08,0.02,0.018,0.034,9.809,-0.01,-0.01,0.0
1777732994.7491777,1.76,0.08,0.02,0.022,0.034,9.809,-0.01,-0.01,0.0
1777732994.7592123,1.76,0.08,0.02,0.02,0.024,9.809,-0.01,0.0,-0.01
1777732994.769623,1.76,0.08,0.02,0.023,0.023,9.809,-0.01,0.0,-0.01
1777732994.7792387,1.76,0.08,0.02,0.019,0.019,9.809,-0.01,0.0,-0.01
1777732994.7888403,1.76,0.08,0.02,0.017,0.02,9.809,-0.01,0.0,0.0
1777732994.7989016,1.76,0.08,0.02,0.017,0.022,9.809,-0.01,-0.01,0.0
1777732994.8092747,1.76,0.08,0.02,0.013,0.026,9.809,-0.01,-0.01,0.0
1777732994.8193426,1.76,0.08,0.02,0.013,0.032,9.809,-0.01,0.0,-0.01
1777732994.8292902,1.76,0.08,0.02,0.011,0.03,9.809,0.0,-0.01,-0.01
1777732994.8388267,1.76,0.08,0.02,0.018,0.029,9.809,-0.01,-0.01,-0.01
1777732994.848835,1.76,0.08,0.02,0.022,0.03,9.809,-0.01,0.0,0.0
1777732994.858819,1.76,0.08,0.02,0.025,0.025,9.809,-0.01,-0.01,0.0
1777732994.8692055,1.76,0.08,0.02,0.023,0.03,9.809,-0.01,0.0,0.0
1777732994.8791158,1.76,0.08,0.02,0.018,0.022,9.809,-0.01,0.0,-0.01
1777732994.8888361,1.76,0.08,0.02,0.012,0.022,9.809,-0.01,0.0,0.0
1777732994.8992052,1.76,0.08,0.02,0.006,0.024,9.809,-0.01,0.0,-0.01
1777732994.9088356,1.76,0.08,0.02,0.005,0.02,9.809,-0.01,0.0,-0.01
1777732994.9192412,1.76,0.08,0.02,0.005,0.025,9.809,-0.01,-0.01,0.0
1777732994.9288526,1.76,0.08,0.02,0.002,0.031,9.809,-0.01,-0.01,-0.01
1777732994.9395812,1.76,0.08,0.02,0.005,0.034,9.809,0.0,-0.01,-0.01
1777732994.949453,1.76,0.08,0.02,0.01,0.036,9.809,-0.01,0.0,0.0
1777732994.958839,1.76,0.08,0.03,0.01,0.026,9.809,-0.01,-0.01,-0.01
1777732994.9688356,1.76,0.08,0.02,0.014,0.032,9.809,-0.01,0.0,-0.01
1777732994.9788282,1.76,0.08,0.03,0.011,0.031,9.809,-0.01,0.0,-0.01
1777732994.9890513,1.76,0.08,0.03,0.012,0.035,9.809,0.0,-0.01,0.0
1777732994.998878,1.76,0.08,0.03,0.017,0.032,9.809,-0.01,0.0,-0.01
1777732995.0088644,1.76,0.08,0.03,0.01,0.028,9.809,-0.01,0.0,-0.01
1777732995.0188444,1.76,0.08,0.03,0.012,0.029,9.809,-0.01,-0.01,-0.01
1777732995.0288084,1.76,0.08,0.03,0.012,0.02,9.809,0.0,0.0,-0.01
1777732995.039151,1.76,0.08,0.03,0.013,0.034,9.809,-0.01,0.0,-0.01
1777732995.0488343,1.76,0.08,0.03,0.013,0.032,9.809,-0.01,0.0,-0.01
1777732995.0588474,1.76,0.08,0.03,0.01,0.042,9.809,0.0,0.0,0.0
1777732995.068803,1.76,0.08,0.04,0.013,0.046,9.809,-0.01,0.0,0.0
1777732995.0789378,1.76,0.08,0.04,0.011,0.037,9.809,-0.01,0.0,-0.01
1777732995.0888517,1.76,0.08,0.04,0.01,0.032,9.809,-0.01,0.0,-0.01
1777732995.0993936,1.76,0.08,0.03,0.007,0.02,9.809,-0.01,0.0,-0.01
1777732995.108826,1.76,0.08,0.03,0.012,0.024,9.809,-0.01,-0.01,0.0
1777732995.1189613,1.76,0.08,0.03,0.006,0.024,9.809,-0.01,0.0,0.0
1777732995.1288633,1.76,0.08,0.03,0.011,0.022,9.809,0.0,0.0,0.0
1777732995.1393774,1.76,0.08,0.03,0.022,0.028,9.809,-0.01,0.0,-0.01
1777732995.1489263,1.76,0.08,0.04,0.02,0.025,9.809,0.0,0.0,0.0
1777732995.1590636,1.76,0.08,0.04,0.023,0.032,9.809,-0.01,0.0,-0.01
1777732995.1688573,1.76,0.08,0.04,0.023,0.025,9.809,-0.01,0.0,-0.01
1777732995.1788166,1.76,0.08,0.04,0.02,0.024,9.809,-0.01,0.0,-0.01
1777732995.1890945,1.76,0.08,0.04,0.023,0.02,9.809,-0.01,0.0,-0.01
1777732995.1990542,1.76,0.08,0.04,0.022,0.018,9.809,-0.01,-0.01,-0.01
1777732995.2087893,1.76,0.08,0.04,0.023,0.024,9.809,-0.01,0.0,-0.01
1777732995.2189074,1.76,0.08,0.04,0.019,0.023,9.809,-0.01,0.0,0.0
1777732995.228793,1.76,0.08,0.04,0.022,0.029,9.809,-0.01,0.0,-0.01
1777732995.2388227,1.76,0.08,0.04,0.018,0.024,9.809,-0.01,0.0,-0.01
1777732995.2488017,1.76,0.08,0.04,0.018,0.026,9.809,-0.01,0.0,-0.01
1777732995.258788,1.76,0.08,0.04,0.02,0.029,9.809,-0.01,-0.01,-0.01
1777732995.269039,1.76,0.08,0.04,0.017,0.02,9.809,0.0,0.0,-0.01
1777732995.278072,1.76,0.08,0.04,0.017,0.025,9.809,0.0,0.0,-0.01
1777732995.2888014,1.76,0.08,0.04,0.016,0.031,9.809,-0.01,0.0,-0.01
1777732995.297977,1.76,0.08,0.04,0.016,0.031,9.809,-0.01,0.0,0.0
1777732995.308803,1.76,0.08,0.04,0.014,0.032,9.809,0.0,0.0,0.0
1777732995.317982,1.76,0.08,0.04,0.02,0.036,9.809,-0.01,0.0,-0.01
1777732995.3288014,1.76,0.08,0.04,0.02,0.029,9.809,-0.01,0.0,-0.01
1777732995.3379676,1.76,0.08,0.04,0.016,0.018,9.809,0.0,0.0,-0.01
1777732995.3487935,1.76,0.08,0.04,0.013,0.011,9.809,-0.01,0.0,-0.01
1777732995.3579667,1.76,0.08,0.04,0.016,0.014,9.809,-0.01,-0.01,0.0
1777732995.3689268,1.76,0.08,0.04,0.011,0.022,9.809,-0.01,0.0,0.0
1777732995.378033,1.76,0.08,0.04,0.008,0.026,9.809,-0.01,0.0,0.0
1777732995.389275,1.76,0.08,0.04,0.002,0.034,9.809,-0.01,0.0,-0.01
1777732995.3985896,1.76,0.08,0.04,0.006,0.03,9.809,0.0,0.0,-0.01
1777732995.4081433,1.76,0.08,0.04,0.007,0.028,9.809,-0.01,-0.01,0.0
1777732995.4181209,1.76,0.08,0.04,0.0,0.024,9.809,-0.01,0.0,0.0
1777732995.4279497,1.76,0.08,0.04,0.002,0.017,9.809,-0.01,0.0,0.0
1777732995.4379537,1.76,0.08,0.04,0.005,0.019,9.809,-0.01,-0.01,-0.01
1777732995.4479842,1.76,0.08,0.04,0.004,0.012,9.809,-0.01,-0.01,-0.01
1777732995.457974,1.76,0.08,0.04,0.004,0.019,9.809,-0.01,0.0,-0.01
1777732995.4685373,1.76,0.08,0.04,0.004,0.025,9.809,-0.01,0.0,0.0
1777732995.478238,1.76,0.07,0.04,0.0,0.025,9.809,-0.01,0.0,-0.01
1777732995.4880373,1.76,0.07,0.04,0.002,0.031,9.809,-0.01,0.0,-0.01
1777732995.497973,1.76,0.07,0.04,0.005,0.024,9.809,-0.01,-0.01,-0.01
1777732995.5079155,1.76,0.07,0.04,0.006,0.02,9.809,-0.01,0.0,-0.01
1777732995.5179625,1.76,0.07,0.04,0.006,0.024,9.809,-0.01,0.0,-0.01
1777732995.5279453,1.76,0.07,0.04,0.008,0.022,9.809,-0.01,-0.01,-0.01
1777732995.5379581,1.76,0.07,0.04,0.012,0.019,9.809,-0.01,0.0,0.0
1777732995.5479665,1.76,0.07,0.04,0.012,0.016,9.809,-0.01,0.0,0.0
1777732995.5579484,1.76,0.07,0.04,0.017,0.016,9.809,-0.01,0.0,0.0
1777732995.5679176,1.76,0.07,0.04,0.018,0.018,9.809,-0.01,0.0,-0.01
1777732995.577971,1.76,0.07,0.04,0.011,0.016,9.809,-0.01,0.0,-0.01
1777732995.5879128,1.76,0.07,0.04,0.014,0.019,9.809,0.0,-0.01,-0.01
1777732995.5978959,1.76,0.07,0.04,0.016,0.022,9.809,-0.01,-0.01,-0.01
1777732995.6079137,1.76,0.07,0.04,0.012,0.019,9.809,0.0,0.0,-0.01
1777732995.618072,1.76,0.07,0.04,0.012,0.03,9.809,-0.01,0.0,0.0
1777732995.6279142,1.76,0.07,0.04,0.011,0.032,9.809,-0.01,-0.01,0.0
1777732995.6379526,1.76,0.07,0.04,0.013,0.041,9.809,0.0,0.0,0.0
1777732995.6479394,1.76,0.07,0.04,0.011,0.037,9.809,-0.01,0.0,-0.01
1777732995.6579573,1.76,0.07,0.04,0.002,0.03,9.809,-0.01,0.0,-0.01
1777732995.6680288,1.76,0.07,0.04,0.005,0.02,9.809,-0.01,0.0,-0.01
1777732995.6779265,1.76,0.07,0.04,0.01,0.016,9.809,0.0,0.0,-0.01
1777732995.687895,1.76,0.07,0.04,0.008,0.022,9.809,-0.01,0.0,0.0
1777732995.697918,1.76,0.07,0.04,0.007,0.029,9.809,-0.01,0.0,0.0
1777732995.7079074,1.76,0.07,0.04,0.011,0.034,9.809,-0.01,-0.01,0.0
1777732995.717927,1.76,0.07,0.04,0.013,0.034,9.809,-0.01,0.0,-0.01
1777732995.7278984,1.76,0.07,0.04,0.019,0.034,9.809,-0.01,-0.01,-0.01
1777732995.737913,1.76,0.07,0.04,0.017,0.035,9.809,-0.01,0.0,0.0
1777732995.747873,1.76,0.07,0.04,0.019,0.031,9.809,-0.01,0.0,0.0
1777732995.7579167,1.76,0.07,0.04,0.017,0.029,9.809,-0.01,-0.01,-0.01
1777732995.7678895,1.76,0.07,0.04,0.013,0.017,9.809,0.0,0.0,-0.01
1777732995.7779553,1.76,0.07,0.04,0.007,0.028,9.809,-0.01,0.0,-0.01
1777732995.7880745,1.76,0.07,0.04,0.004,0.024,9.809,-0.01,-0.01,0.0
1777732995.79794,1.76,0.07,0.04,0.011,0.03,9.809,-0.01,-0.01,0.0
1777732995.807933,1.76,0.07,0.04,0.019,0.038,9.809,-0.01,0.0,0.0
1777732995.817932,1.76,0.07,0.04,0.018,0.036,9.809,-0.01,-0.01,-0.01
1777732995.8283794,1.76,0.07,0.04,0.017,0.023,9.809,-0.01,0.0,-0.01
1777732995.8382945,1.76,0.07,0.04,0.016,0.016,9.809,-0.01,0.0,-0.01
1777732995.8478954,1.76,0.07,0.04,0.016,0.011,9.809,-0.01,0.0,0.0
1777732995.857929,1.76,0.07,0.04,0.018,0.018,9.809,-0.01,0.0,0.0
1777732995.867893,1.76,0.08,0.04,0.014,0.013,9.809,-0.01,-0.01,0.0
1777732995.8778965,1.76,0.08,0.04,0.01,0.017,9.809,-0.01,-0.01,-0.01
1777732995.8879025,1.76,0.08,0.04,0.013,0.014,9.809,-0.01,0.0,0.0
1777732995.8978906,1.76,0.08,0.04,0.013,0.022,9.809,0.0,0.0,0.0
1777732995.907954,1.76,0.07,0.04,0.01,0.024,9.809,-0.01,-0.01,-0.01
1777732995.9179034,1.76,0.07,0.04,0.01,0.034,9.809,0.0,0.0,-0.01
1777732995.9279196,1.76,0.07,0.04,0.012,0.028,9.809,-0.01,-0.01,-0.01
1777732995.9379046,1.76,0.07,0.04,0.014,0.031,9.809,-0.01,0.0,0.0
1777732995.9478805,1.76,0.08,0.04,0.014,0.038,9.809,-0.01,0.0,0.0
1777732995.9579105,1.76,0.08,0.04,0.018,0.03,9.809,-0.01,0.0,-0.01
1777732995.967883,1.76,0.08,0.04,0.016,0.024,9.809,-0.01,0.0,-0.01
1777732995.9779997,1.76,0.08,0.04,0.014,0.012,9.809,0.0,0.0,-0.01
1777732995.9879677,1.76,0.08,0.04,0.016,0.012,9.809,0.0,0.0,0.0
1777732995.9985573,1.76,0.08,0.04,0.016,0.02,9.809,-0.01,0.0,0.0
1777732996.0079029,1.76,0.08,0.04,0.017,0.022,9.809,-0.01,0.0,-0.01
1777732996.017906,1.76,0.08,0.04,0.014,0.037,9.809,-0.01,0.0,-0.01
1777732996.0278776,1.76,0.08,0.05,0.017,0.035,9.809,-0.01,-0.01,0.0
1777732996.0378928,1.76,0.08,0.04,0.014,0.036,9.809,-0.01,0.0,0.0
1777732996.047924,1.76,0.08,0.04,0.01,0.03,9.809,-0.01,0.0,0.0
1777732996.0578933,1.76,0.08,0.04,0.01,0.022,9.809,-0.01,0.0,-0.01
1777732996.0678585,1.76,0.07,0.04,0.006,0.014,9.809,-0.01,0.0,-0.01
1777732996.0778966,1.76,0.07,0.04,0.002,0.01,9.809,-0.01,0.0,0.0
1777732996.087849,1.76,0.07,0.04,0.002,0.011,9.809,-0.01,-0.01,-0.01
1777732996.0978627,1.76,0.07,0.04,0.013,0.02,9.809,0.0,0.0,0.0
1777732996.1079113,1.76,0.07,0.04,0.017,0.037,9.809,-0.01,0.0,-0.01
1777732996.1182878,1.76,0.07,0.04,0.016,0.04,9.809,-0.01,-0.01,-0.01
1777732996.1278818,1.76,0.07,0.05,0.016,0.038,9.809,-0.01,0.0,-0.01
1777732996.1378763,1.76,0.07,0.04,0.018,0.03,9.809,0.0,0.0,-0.01
1777732996.1478417,1.76,0.07,0.04,0.02,0.026,9.809,-0.01,0.0,-0.01
1777732996.1578755,1.76,0.07,0.04,0.016,0.02,9.809,-0.01,0.0,0.0
1777732996.1678464,1.76,0.07,0.04,0.013,0.019,9.809,-0.01,0.0,-0.01
1777732996.1778822,1.76,0.07,0.04,0.013,0.019,9.809,-0.01,0.0,-0.01
1777732996.1870787,1.77,0.07,0.04,0.005,0.025,9.809,-0.01,0.0,-0.01
1777732996.1978817,1.77,0.07,0.04,0.007,0.028,9.809,-0.01,0.0,-0.01
1777732996.2078633,1.77,0.07,0.04,0.01,0.028,9.809,-0.01,-0.01,-0.01
1777732996.217895,1.77,0.07,0.04,0.019,0.028,9.809,0.0,0.0,0.0
1777732996.22706,1.77,0.07,0.04,0.024,0.028,9.809,-0.01,0.0,0.0
1777732996.23787,1.77,0.07,0.04,0.024,0.025,9.809,-0.01,0.0,-0.01
1777732996.2470496,1.77,0.07,0.04,0.028,0.028,9.809,-0.01,0.0,-0.01
1777732996.25788,1.76,0.07,0.04,0.024,0.022,9.809,-0.01,0.0,0.0
1777732996.2670538,1.76,0.07,0.04,0.018,0.026,9.809,-0.01,0.0,-0.01
1777732996.2770653,1.76,0.07,0.04,0.008,0.02,9.809,-0.01,0.0,0.0
1777732996.2870576,1.76,0.07,0.04,0.0,0.023,9.809,-0.01,0.0,0.0
1777732996.297038,1.76,0.07,0.04,0.001,0.025,9.809,-0.01,0.0,0.0
1777732996.307102,1.76,0.07,0.05,0.004,0.026,9.809,0.0,-0.01,-0.01
1777732996.3170247,1.76,0.07,0.05,0.006,0.026,9.809,0.0,-0.01,-0.01
1777732996.3273573,1.76,0.07,0.05,0.013,0.036,9.809,-0.01,0.0,0.0
1777732996.3371127,1.76,0.07,0.05,0.012,0.035,9.809,-0.01,0.0,-0.01
1777732996.3472135,1.76,0.07,0.05,0.012,0.036,9.809,-0.01,0.0,-0.01
1777732996.3572154,1.76,0.07,0.05,0.016,0.031,9.809,-0.01,0.0,-0.01
1777732996.367054,1.76,0.07,0.05,0.013,0.026,9.809,-0.01,0.0,-0.01
1777732996.376978,1.76,0.07,0.05,0.014,0.023,9.809,-0.01,0.0,-0.01
1777732996.3870301,1.76,0.07,0.05,0.008,0.023,9.809,-0.01,0.0,0.0
1777732996.3969946,1.76,0.07,0.05,0.004,0.029,9.809,-0.01,-0.01,-0.01
1777732996.4069843,1.77,0.07,0.05,0.007,0.028,9.809,-0.01,0.0,-0.01
1777732996.4169803,1.77,0.07,0.05,0.014,0.028,9.809,0.0,0.0,-0.01
1777732996.426987,1.77,0.07,0.05,0.017,0.037,9.809,-0.01,0.0,-0.01
1777732996.4370039,1.77,0.07,0.05,0.011,0.037,9.809,-0.01,0.0,-0.01
1777732996.4471555,1.77,0.07,0.05,0.006,0.034,9.809,-0.01,0.0,-0.01
1777732996.4569721,1.77,0.06,0.05,0.004,0.029,9.809,-0.01,0.0,-0.01
1777732996.4670053,1.77,0.06,0.05,0.004,0.024,9.809,-0.01,0.0,-0.01
1777732996.476998,1.77,0.06,0.05,0.0,0.018,9.809,-0.01,0.0,-0.01
1777732996.487093,1.77,0.06,0.05,0.001,0.025,9.809,0.0,-0.01,-0.01
1777732996.4969513,1.77,0.06,0.05,0.004,0.029,9.809,-0.01,-0.01,0.0
1777732996.5071075,1.77,0.06,0.06,0.006,0.024,9.809,0.0,0.0,-0.01
1777732996.5169408,1.77,0.06,0.06,0.011,0.024,9.809,-0.01,0.0,0.0
1777732996.526945,1.77,0.06,0.05,0.01,0.019,9.809,-0.01,0.0,-0.01
1777732996.5369737,1.77,0.06,0.05,0.013,0.017,9.809,-0.01,0.0,-0.01
1777732996.546999,1.77,0.06,0.05,0.013,0.007,9.809,-0.01,0.0,-0.01
1777732996.5569391,1.77,0.06,0.05,0.01,0.005,9.809,0.0,0.0,-0.01
1777732996.5669327,1.77,0.06,0.05,0.007,0.013,9.809,-0.01,0.0,-0.01
1777732996.576952,1.77,0.06,0.05,0.011,0.011,9.809,-0.01,0.0,0.0
1777732996.5869777,1.77,0.06,0.05,0.004,0.024,9.809,-0.01,0.0,0.0
1777732996.5969412,1.77,0.06,0.05,0.011,0.02,9.809,-0.01,-0.01,-0.01
1777732996.6069274,1.77,0.06,0.05,0.013,0.018,9.809,-0.01,-0.01,-0.01
1777732996.6169593,1.77,0.06,0.05,0.016,0.02,9.809,-0.01,0.0,-0.01
1777732996.6269486,1.77,0.06,0.05,0.016,0.018,9.809,-0.01,0.0,-0.01
1777732996.6372921,1.77,0.06,0.05,0.017,0.018,9.809,0.0,-0.01,-0.01
1777732996.646941,1.77,0.06,0.05,0.011,0.018,9.809,-0.01,0.0,0.0
1777732996.65695,1.77,0.06,0.05,0.007,0.022,9.809,-0.01,0.0,-0.01
1777732996.6671486,1.77,0.06,0.05,0.002,0.028,9.809,0.0,0.0,0.0
1777732996.676963,1.77,0.06,0.05,0.004,0.026,9.809,0.0,0.0,0.0
1777732996.6869726,1.77,0.06,0.05,0.005,0.031,9.809,-0.01,-0.01,-0.01
1777732996.69694,1.77,0.06,0.05,0.011,0.025,9.809,-0.01,0.0,-0.01
1777732996.7069855,1.77,0.06,0.05,0.017,0.031,9.809,-0.01,0.0,-0.01
1777732996.7169342,1.77,0.06,0.05,0.016,0.024,9.809,0.0,-0.01,-0.01
1777732996.7270799,1.77,0.06,0.05,0.016,0.016,9.809,0.0,0.0,-0.01
1777732996.7369425,1.77,0.06,0.05,0.019,0.02,9.809,-0.01,0.0,-0.01
1777732996.7470884,1.77,0.06,0.05,0.016,0.03,9.809,-0.01,0.0,0.0
1777732996.7569504,1.77,0.06,0.05,0.017,0.034,9.809,0.0,-0.01,0.0
1777732996.7669616,1.77,0.06,0.05,0.011,0.04,9.809,-0.01,0.0,-0.01
1777732996.7769527,1.77,0.06,0.06,0.011,0.032,9.809,-0.01,0.0,-0.01
1777732996.786974,1.77,0.06,0.05,0.012,0.032,9.809,-0.01,0.0,-0.01
1777732996.7969368,1.77,0.06,0.05,0.017,0.025,9.809,-0.01,-0.01,-0.01
1777732996.8069677,1.77,0.06,0.05,0.016,0.019,9.809,-0.01,-0.01,-0.01
1777732996.8169322,1.77,0.07,0.05,0.012,0.025,9.809,0.0,0.0,-0.01
1777732996.8269644,1.77,0.07,0.05,0.007,0.026,9.809,-0.01,-0.01,0.0
1777732996.8369284,1.77,0.06,0.05,0.002,0.026,9.809,-0.01,0.0,0.0
1777732996.8469908,1.77,0.06,0.06,0.001,0.029,9.809,-0.01,0.0,-0.01
1777732996.8569734,1.77,0.06,0.06,0.004,0.025,9.809,0.0,0.0,-0.01
1777732996.8669908,1.77,0.06,0.06,0.005,0.031,9.809,-0.01,-0.01,-0.01
1777732996.8769608,1.77,0.06,0.06,0.007,0.023,9.809,-0.01,-0.01,-0.01
1777732996.8869796,1.77,0.06,0.06,0.01,0.023,9.809,-0.01,0.0,-0.01
1777732996.8969696,1.77,0.07,0.05,0.012,0.02,9.809,-0.01,0.0,-0.01
1777732996.907015,1.78,0.07,0.05,0.017,0.02,9.809,-0.01,-0.01,-0.01
1777732996.9169693,1.78,0.07,0.05,0.018,0.023,9.809,-0.01,0.0,-0.01
1777732996.9269552,1.78,0.07,0.05,0.01,0.026,9.809,-0.01,0.0,-0.01
1777732996.9369159,1.78,0.06,0.06,0.01,0.025,9.809,-0.01,0.0,-0.01
1777732996.947027,1.78,0.06,0.06,0.005,0.036,9.809,0.0,0.0,-0.01
1777732996.9569273,1.8,0.08,0.08,-0.043,0.18,9.809,-0.01,0.0,-0.01
1777732996.9669788,1.89,0.08,0.13,-0.194,0.093,9.809,0.01,-0.02,-0.02
1777732996.977085,1.99,0.07,0.11,-0.222,-0.219,9.809,0.02,-0.02,-0.06
1777732996.9870484,2.03,0.09,0.09,-0.072,-0.334,9.809,0.01,-0.02,-0.06
1777732996.9969826,2.01,0.15,0.09,-0.005,-0.23,9.809,0.01,-0.02,-0.02
1777732997.006949,2.01,0.17,0.12,0.105,-0.008,9.809,0.01,-0.02,0.01
1777732997.0161939,2.01,0.22,0.15,0.298,0.249,9.809,0.0,-0.01,0.0
1777732997.0269728,2.01,0.26,0.2,0.346,0.388,9.809,-0.01,-0.02,-0.01
1777732997.0360532,1.98,0.26,0.22,0.375,0.378,9.809,0.0,0.0,0.0
1777732997.0469453,1.97,0.25,0.21,0.283,0.368,9.809,-0.01,0.01,0.01
1777732997.0569386,1.96,0.21,0.21,0.093,0.278,9.809,-0.02,0.01,0.01
1777732997.0660527,1.97,0.17,0.2,-0.036,0.081,9.809,-0.01,0.01,-0.01
1777732997.0763667,1.98,0.14,0.16,-0.174,-0.115,9.809,-0.01,0.01,-0.01
1777732997.08732,1.97,0.12,0.13,-0.222,-0.222,9.809,-0.01,0.0,-0.01
1777732997.0973582,1.95,0.12,0.11,-0.213,-0.214,9.809,-0.01,-0.01,0.0
1777732997.1069536,1.95,0.13,0.12,-0.133,-0.128,9.809,0.0,-0.02,0.01
1777732997.1160626,1.96,0.15,0.13,-0.032,0.008,9.809,0.0,-0.01,0.0
1777732997.1270416,1.97,0.17,0.16,0.053,0.105,9.809,0.0,-0.01,-0.01
1777732997.136079,1.97,0.18,0.17,0.146,0.143,9.809,0.0,-0.01,-0.01
1777732997.14697,1.97,0.19,0.17,0.143,0.158,9.809,0.0,0.0,-0.01
1777732997.1560724,1.96,0.18,0.17,0.105,0.158,9.809,-0.01,0.0,0.0
1777732997.166418,1.96,0.16,0.16,0.02,0.09,9.809,-0.01,0.0,0.0
1777732997.1760478,1.97,0.14,0.15,-0.072,-0.01,9.809,-0.01,0.0,-0.01
1777732997.1873567,1.97,0.12,0.13,-0.133,-0.122,9.809,-0.01,0.0,-0.01
1777732997.1972163,1.97,0.11,0.11,-0.158,-0.194,9.809,-0.01,-0.01,-0.01
1777732997.2066736,1.96,0.12,0.11,-0.117,-0.176,9.809,0.0,-0.01,0.0
1777732997.2161267,1.96,0.13,0.11,-0.063,-0.078,9.809,0.0,-0.01,0.0
1777732997.2260795,1.96,0.14,0.13,0.02,0.037,9.809,0.0,-0.01,0.0
1777732997.2360704,1.97,0.15,0.14,0.084,0.12,9.809,0.0,-0.01,-0.01
1777732997.24604,1.97,0.16,0.16,0.116,0.163,9.809,0.0,-0.01,-0.01
1777732997.2560523,1.97,0.16,0.16,0.108,0.147,9.809,-0.01,0.0,-0.01
1777732997.2660677,1.97,0.15,0.15,0.043,0.09,9.809,-0.01,0.0,0.0
1777732997.276059,1.96,0.13,0.14,-0.018,0.006,9.809,-0.01,0.0,0.0
1777732997.286053,1.97,0.12,0.12,-0.089,-0.086,9.809,-0.01,0.0,0.0
1777732997.29607,1.97,0.11,0.11,-0.122,-0.157,9.809,-0.01,0.0,-0.01
1777732997.3063579,1.97,0.11,0.09,-0.114,-0.165,9.809,0.0,-0.01,-0.01
1777732997.3160446,1.97,0.11,0.09,-0.08,-0.119,9.809,0.0,-0.01,0.0
1777732997.3265736,1.97,0.12,0.1,-0.014,-0.026,9.809,0.0,-0.01,0.0
1777732997.3360782,1.97,0.13,0.11,0.04,0.057,9.809,0.0,-0.01,0.0
1777732997.346055,1.97,0.14,0.13,0.091,0.132,9.809,0.0,-0.01,-0.01
1777732997.35613,1.97,0.14,0.14,0.09,0.14,9.809,-0.01,0.0,-0.01
1777732997.366121,1.97,0.14,0.14,0.054,0.103,9.809,-0.01,0.0,-0.01
1777732997.3760593,1.97,0.12,0.12,0.008,0.035,9.809,-0.01,0.0,0.0
1777732997.3860583,1.97,0.12,0.11,-0.047,-0.049,9.809,-0.01,0.0,-0.01
1777732997.3960757,1.97,0.1,0.09,-0.091,-0.115,9.809,-0.01,0.0,-0.01
1777732997.406051,1.97,0.1,0.08,-0.101,-0.135,9.809,-0.01,-0.01,-0.01
1777732997.41606,1.97,0.1,0.08,-0.077,-0.117,9.809,0.0,-0.01,0.0
1777732997.4260485,1.97,0.11,0.09,-0.026,-0.054,9.809,0.0,-0.01,0.0
1777732997.4360507,1.97,0.12,0.09,0.018,0.028,9.809,0.0,-0.01,-0.01
1777732997.4460483,1.97,0.12,0.11,0.051,0.092,9.809,0.0,-0.01,0.0
1777732997.4560463,1.97,0.12,0.11,0.061,0.121,9.809,0.0,0.0,-0.01
1777732997.4661875,1.97,0.12,0.11,0.047,0.107,9.809,-0.01,0.0,-0.01
1777732997.476073,1.97,0.11,0.11,0.008,0.057,9.809,-0.01,0.0,-0.01
1777732997.4860482,1.97,0.1,0.09,-0.034,-0.013,9.809,-0.01,0.0,-0.01
1777732997.4960608,1.97,0.09,0.08,-0.067,-0.068,9.809,-0.01,0.0,-0.01
1777732997.506092,1.97,0.08,0.07,-0.089,-0.109,9.809,-0.01,-0.01,-0.01
1777732997.5160296,1.97,0.08,0.07,-0.077,-0.097,9.809,0.0,-0.01,0.0
1777732997.5260644,1.97,0.09,0.07,-0.046,-0.053,9.809,0.0,-0.01,0.0
1777732997.536039,1.97,0.1,0.08,-0.006,0.006,9.809,0.0,-0.01,0.0
1777732997.5465214,1.97,0.1,0.09,0.037,0.069,9.809,0.0,-0.01,-0.01
1777732997.5564697,1.97,0.1,0.09,0.059,0.097,9.809,0.0,0.0,-0.01
1777732997.566023,1.97,0.1,0.1,0.053,0.098,9.809,-0.01,0.0,-0.01
1777732997.5761147,1.97,0.1,0.09,0.035,0.061,9.809,-0.01,0.0,-0.01
1777732997.5860465,1.97,0.09,0.09,-0.002,0.006,9.809,-0.01,0.0,0.0
1777732997.5961,1.97,0.08,0.07,-0.037,-0.038,9.809,-0.01,0.0,-0.01
1777732997.6063137,1.97,0.08,0.06,-0.057,-0.078,9.809,-0.01,0.0,-0.01
1777732997.6160388,1.97,0.08,0.06,-0.056,-0.087,9.809,0.0,-0.01,-0.01
1777732997.626518,1.97,0.08,0.06,-0.035,-0.054,9.809,0.0,-0.01,-0.01
1777732997.6360538,1.97,0.08,0.06,-0.004,-0.001,9.809,0.0,-0.01,0.0
1777732997.6464117,1.97,0.09,0.07,0.029,0.053,9.809,0.0,-0.01,-0.01
1777732997.6560442,1.97,0.09,0.09,0.046,0.09,9.809,0.0,-0.01,0.0
1777732997.666068,1.97,0.09,0.09,0.038,0.098,9.809,-0.01,0.0,-0.01
1777732997.6760426,1.97,0.09,0.09,0.023,0.069,9.809,-0.01,0.0,0.0
1777732997.6860385,1.97,0.08,0.08,-0.008,0.017,9.809,-0.01,0.0,-0.01
1777732997.6964495,1.97,0.08,0.06,-0.032,-0.024,9.809,-0.01,0.0,-0.01
1777732997.7060578,1.97,0.07,0.06,-0.056,-0.066,9.809,-0.01,0.0,-0.01
1777732997.7160869,1.97,0.07,0.06,-0.054,-0.059,9.809,0.0,-0.01,-0.01
1777732997.7266526,1.97,0.07,0.06,-0.041,-0.048,9.809,0.0,-0.01,-0.01
1777732997.7365553,1.97,0.07,0.06,-0.012,0.011,9.809,0.0,-0.01,0.0
1777732997.7460637,1.97,0.08,0.07,0.017,0.041,9.809,0.0,-0.01,-0.01
1777732997.756373,1.97,0.08,0.07,0.036,0.077,9.809,0.0,-0.01,-0.01
1777732997.766241,1.97,0.08,0.08,0.043,0.081,9.809,-0.01,0.0,-0.01
1777732997.77604,1.97,0.08,0.08,0.029,0.06,9.809,-0.01,0.0,-0.01
1777732997.7860045,1.97,0.08,0.07,0.007,0.029,9.809,-0.01,0.0,-0.01
1777732997.796077,1.97,0.07,0.06,-0.02,-0.019,9.809,-0.01,0.0,-0.01
1777732997.8060262,1.97,0.06,0.06,-0.038,-0.046,9.809,-0.01,0.0,-0.01
1777732997.8160617,1.97,0.06,0.05,-0.041,-0.057,9.809,0.0,0.0,-0.01
1777732997.8268282,1.97,0.06,0.05,-0.037,-0.046,9.809,0.0,-0.01,0.0
1777732997.836013,1.97,0.06,0.05,-0.014,-0.005,9.809,0.0,-0.01,-0.01
