timestamp,yaw,pitch,roll,accel_x,accel_y,accel_z,gyro_x,gyro_y,gyro_z
1777733339.912856,-10.12,-0.24,-0.67,-0.031,-0.084,9.81,0.0,0.0,0.0
1777733339.9229307,-10.12,-0.24,-0.67,-0.024,-0.098,9.81,-0.01,0.0,-0.01
1777733339.9329267,-10.12,-0.24,-0.67,-0.026,-0.108,9.81,-0.01,0.0,-0.01
1777733339.942915,-10.12,-0.24,-0.68,-0.037,-0.137,9.81,-0.01,0.0,-0.01
1777733339.9528105,-10.12,-0.24,-0.69,-0.049,-0.152,9.81,0.0,0.0,-0.01
1777733339.962816,-10.12,-0.24,-0.69,-0.049,-0.145,9.81,-0.01,-0.01,0.0
1777733339.9728582,-10.12,-0.24,-0.68,-0.047,-0.133,9.81,0.0,0.0,0.0
1777733339.982842,-10.12,-0.24,-0.68,-0.049,-0.114,9.81,0.0,-0.01,0.0
1777733339.9928594,-10.12,-0.24,-0.68,-0.043,-0.11,9.81,0.0,0.0,-0.01
1777733340.002883,-10.12,-0.24,-0.67,-0.048,-0.104,9.81,0.0,-0.01,-0.01
1777733340.012854,-10.11,-0.24,-0.67,-0.036,-0.102,9.81,0.0,-0.01,-0.01
1777733340.0228407,-10.11,-0.24,-0.67,-0.036,-0.099,9.81,0.0,0.0,-0.01
1777733340.0328908,-10.11,-0.24,-0.68,-0.034,-0.113,9.81,-0.01,-0.01,-0.01
1777733340.0428555,-10.11,-0.24,-0.68,-0.035,-0.129,9.81,-0.01,-0.01,0.0
1777733340.052814,-10.12,-0.24,-0.68,-0.037,-0.138,9.81,-0.01,-0.01,0.0
1777733340.0628245,-10.12,-0.24,-0.69,-0.04,-0.138,9.81,-0.01,-0.01,0.0
1777733340.0728447,-10.13,-0.24,-0.69,-0.04,-0.133,9.81,-0.01,0.0,0.0
1777733340.0828538,-10.13,-0.24,-0.69,-0.035,-0.122,9.81,-0.01,-0.01,0.0
1777733340.0928526,-10.12,-0.24,-0.69,-0.038,-0.114,9.81,0.0,0.0,-0.01
1777733340.1028342,-10.12,-0.24,-0.69,-0.038,-0.115,9.81,0.0,0.0,-0.01
1777733340.112829,-10.11,-0.24,-0.69,-0.041,-0.11,9.81,0.0,0.0,-0.01
1777733340.1226084,-10.11,-0.24,-0.68,-0.044,-0.116,9.81,0.0,0.0,-0.01
1777733340.132394,-10.11,-0.24,-0.68,-0.044,-0.108,9.81,0.0,-0.01,-0.01
1777733340.14279,-10.11,-0.24,-0.68,-0.038,-0.101,9.81,-0.01,-0.01,0.0
1777733340.1523063,-10.11,-0.24,-0.68,-0.035,-0.103,9.81,-0.01,-0.01,0.0
1777733340.1619968,-10.12,-0.24,-0.68,-0.029,-0.085,9.81,-0.01,-0.01,0.0
1777733340.1728704,-10.12,-0.24,-0.68,-0.032,-0.102,9.81,-0.01,0.0,0.0
1777733340.1828823,-10.12,-0.24,-0.68,-0.034,-0.097,9.81,-0.01,-0.01,0.0
1777733340.1933641,-10.12,-0.24,-0.68,-0.032,-0.116,9.81,-0.01,0.0,0.0
1777733340.2028887,-10.12,-0.24,-0.69,-0.041,-0.128,9.81,-0.01,0.0,-0.01
1777733340.2128599,-10.12,-0.24,-0.69,-0.041,-0.15,9.81,-0.01,0.0,-0.01
1777733340.2220154,-10.12,-0.24,-0.69,-0.051,-0.172,9.81,0.0,0.0,0.0
1777733340.232019,-10.12,-0.24,-0.69,-0.055,-0.178,9.81,0.0,-0.01,0.0
1777733340.242909,-10.13,-0.24,-0.69,-0.059,-0.148,9.81,0.0,-0.01,0.0
1777733340.2528713,-10.13,-0.24,-0.69,-0.054,-0.116,9.81,0.0,-0.01,0.0
1777733340.2620764,-10.12,-0.24,-0.68,-0.055,-0.084,9.81,0.0,0.0,-0.01
1777733340.2727745,-10.12,-0.24,-0.67,-0.044,-0.077,9.81,0.0,0.0,-0.01
1777733340.2826843,-10.1,-0.24,-0.67,-0.043,-0.08,9.809,0.0,-0.01,-0.01
1777733340.2925692,-10.1,-0.24,-0.67,-0.046,-0.099,9.809,-0.01,-0.01,-0.01
1777733340.3021984,-10.1,-0.24,-0.68,-0.047,-0.123,9.809,-0.01,0.0,-0.01
1777733340.3124866,-10.11,-0.24,-0.69,-0.038,-0.125,9.81,-0.01,-0.01,0.0
1777733340.3220482,-10.12,-0.24,-0.69,-0.037,-0.123,9.81,-0.01,-0.01,0.0
1777733340.332036,-10.12,-0.24,-0.69,-0.025,-0.114,9.81,-0.01,-0.01,0.0
1777733340.3420494,-10.13,-0.24,-0.7,-0.03,-0.128,9.81,-0.01,-0.01,0.0
1777733340.352561,-10.13,-0.24,-0.7,-0.037,-0.139,9.81,-0.01,0.0,0.0
1777733340.36262,-10.13,-0.24,-0.7,-0.042,-0.123,9.81,0.0,0.0,-0.01
1777733340.372449,-10.12,-0.24,-0.7,-0.046,-0.134,9.81,0.0,0.0,-0.01
1777733340.3832257,-10.12,-0.24,-0.69,-0.043,-0.123,9.81,0.0,0.0,-0.01
1777733340.392107,-10.12,-0.24,-0.69,-0.05,-0.119,9.81,0.0,0.0,-0.01
1777733340.40207,-10.11,-0.24,-0.68,-0.044,-0.109,9.81,0.0,-0.01,-0.01
1777733340.412057,-10.11,-0.24,-0.68,-0.043,-0.099,9.81,0.0,-0.01,-0.01
1777733340.422048,-10.12,-0.24,-0.68,-0.04,-0.098,9.81,0.0,-0.01,0.0
1777733340.432052,-10.12,-0.24,-0.68,-0.028,-0.085,9.81,0.0,-0.01,0.0
1777733340.4420412,-10.12,-0.24,-0.68,-0.028,-0.091,9.81,-0.01,0.0,0.0
1777733340.4520283,-10.12,-0.24,-0.68,-0.022,-0.107,9.81,-0.01,0.0,0.0
1777733340.4620287,-10.12,-0.24,-0.68,-0.032,-0.12,9.81,-0.01,0.0,-0.01
1777733340.4720879,-10.12,-0.24,-0.69,-0.036,-0.131,9.81,-0.01,0.0,0.0
1777733340.4820611,-10.12,-0.24,-0.69,-0.049,-0.139,9.81,-0.01,0.0,0.0
1777733340.4920862,-10.12,-0.24,-0.69,-0.049,-0.127,9.81,-0.01,0.0,0.0
1777733340.5020664,-10.12,-0.24,-0.69,-0.031,-0.132,9.81,-0.01,0.0,0.0
1777733340.5120573,-10.12,-0.24,-0.69,0.01,-0.119,9.81,0.0,0.0,0.0
1777733340.522049,-10.12,-0.23,-0.69,0.034,-0.123,9.81,0.0,0.0,-0.01
1777733340.5320961,-10.12,-0.24,-0.69,0.048,-0.129,9.81,0.0,0.0,-0.01
1777733340.5427425,-10.12,-0.24,-0.69,0.038,-0.126,9.81,-0.01,0.0,0.0
1777733340.5520766,-10.13,-0.26,-0.69,0.005,-0.131,9.81,0.0,0.01,0.0
1777733340.5620723,-10.13,-0.28,-0.69,-0.043,-0.108,9.81,-0.01,0.01,0.0
1777733340.5720618,-10.13,-0.3,-0.68,-0.098,-0.111,9.81,-0.01,0.0,0.0
1777733340.5820954,-10.14,-0.31,-0.68,-0.15,-0.105,9.81,0.0,0.0,0.0
1777733340.5921485,-10.13,-0.32,-0.68,-0.168,-0.105,9.81,0.0,0.0,0.0
1777733340.602107,-10.13,-0.32,-0.68,-0.157,-0.108,9.81,-0.01,-0.01,-0.01
1777733340.6120996,-10.13,-0.31,-0.68,-0.125,-0.098,9.81,-0.01,-0.01,-0.01
1777733340.6221094,-10.12,-0.29,-0.68,-0.089,-0.132,9.81,0.0,-0.01,-0.01
1777733340.6321082,-10.12,-0.28,-0.68,-0.041,-0.143,9.81,0.0,-0.02,-0.01
1777733340.642142,-10.13,-0.26,-0.69,0.012,-0.134,9.81,-0.01,-0.01,0.0
1777733340.6520863,-10.13,-0.26,-0.69,0.042,-0.125,9.81,-0.01,-0.01,0.0
1777733340.6625485,-10.13,-0.25,-0.69,0.061,-0.111,9.81,0.0,-0.01,0.0
1777733340.6720617,-10.13,-0.25,-0.68,0.051,-0.108,9.81,0.0,0.0,0.0
1777733340.682059,-10.13,-0.26,-0.68,0.032,-0.097,9.81,-0.01,0.0,-0.01
1777733340.6924665,-10.12,-0.26,-0.68,0.002,-0.116,9.81,0.0,0.0,-0.01
1777733340.7025652,-10.12,-0.28,-0.68,-0.042,-0.11,9.81,-0.01,0.0,-0.01
1777733340.7124972,-10.12,-0.29,-0.68,-0.075,-0.131,9.81,0.0,0.0,-0.01
1777733340.722553,-10.13,-0.29,-0.68,-0.089,-0.11,9.81,-0.01,0.0,0.0
1777733340.7320988,-10.13,-0.29,-0.69,-0.093,-0.126,9.81,-0.01,-0.01,0.0
1777733340.7420907,-10.14,-0.29,-0.68,-0.084,-0.121,9.81,0.0,-0.01,0.0
1777733340.7521136,-10.14,-0.28,-0.68,-0.051,-0.109,9.81,0.0,-0.01,0.0
1777733340.7621179,-10.14,-0.26,-0.69,-0.026,-0.089,9.81,-0.01,-0.01,0.0
1777733340.7727172,-10.14,-0.26,-0.68,0.001,-0.104,9.81,0.0,-0.01,-0.01
1777733340.7821534,-10.13,-0.26,-0.68,0.02,-0.111,9.81,0.0,-0.01,-0.01
1777733340.7920942,-10.13,-0.26,-0.68,0.023,-0.123,9.81,0.0,0.0,-0.01
1777733340.8020844,-10.12,-0.26,-0.68,0.018,-0.125,9.81,0.0,0.0,-0.01
1777733340.8126185,-10.13,-0.26,-0.68,-0.005,-0.143,9.81,0.0,0.0,0.0
1777733340.8221054,-10.14,-0.26,-0.69,-0.031,-0.119,9.81,0.0,0.0,0.0
1777733340.832088,-10.14,-0.26,-0.69,-0.043,-0.103,9.81,-0.01,0.0,0.0
1777733340.842076,-10.14,-0.27,-0.68,-0.056,-0.097,9.81,-0.01,0.0,0.0
1777733340.852117,-10.14,-0.27,-0.68,-0.061,-0.086,9.81,-0.01,0.0,0.0
1777733340.862167,-10.14,-0.27,-0.68,-0.069,-0.107,9.81,0.0,-0.01,-0.01
1777733340.872131,-10.14,-0.27,-0.69,-0.055,-0.138,9.81,0.0,-0.01,-0.01
1777733340.8821099,-10.14,-0.26,-0.69,-0.035,-0.143,9.81,-0.01,-0.01,0.0
1777733340.8920932,-10.14,-0.26,-0.69,-0.022,-0.134,9.81,0.0,-0.01,0.0
1777733340.9020789,-10.14,-0.25,-0.69,-0.004,-0.128,9.81,0.0,-0.01,0.0
1777733340.9113119,-10.14,-0.25,-0.69,-0.006,-0.123,9.81,0.0,-0.01,-0.01
1777733340.921289,-10.13,-0.25,-0.69,-0.002,-0.113,9.81,-0.01,0.0,-0.01
1777733340.9312773,-10.13,-0.25,-0.68,-0.002,-0.123,9.81,0.0,0.0,-0.01
1777733340.942121,-10.13,-0.26,-0.69,-0.024,-0.123,9.81,0.0,0.0,-0.01
1777733340.9521103,-10.14,-0.26,-0.69,-0.04,-0.128,9.81,-0.01,0.0,0.0
1777733340.9612913,-10.14,-0.26,-0.69,-0.049,-0.126,9.81,0.0,0.0,0.0
1777733340.971284,-10.14,-0.26,-0.69,-0.054,-0.095,9.81,0.0,-0.01,0.0
1777733340.9812667,-10.14,-0.26,-0.68,-0.054,-0.081,9.81,-0.01,-0.01,0.0
1777733340.9912763,-10.14,-0.26,-0.68,-0.048,-0.092,9.81,-0.01,-0.01,-0.01
1777733341.001275,-10.14,-0.26,-0.68,-0.04,-0.087,9.81,0.0,-0.01,-0.01
1777733341.0113,-10.13,-0.25,-0.68,-0.03,-0.116,9.81,-0.01,-0.01,-0.01
1777733341.0212953,-10.13,-0.25,-0.68,-0.016,-0.132,9.81,-0.01,-0.01,-0.01
1777733341.0312996,-10.13,-0.24,-0.69,-0.018,-0.134,9.81,0.0,-0.01,-0.01
1777733341.041333,-10.14,-0.24,-0.69,-0.012,-0.139,9.81,-0.01,-0.01,0.0
1777733341.051313,-10.14,-0.24,-0.69,-0.02,-0.122,9.81,-0.01,0.0,0.0
1777733341.0613353,-10.14,-0.24,-0.69,-0.029,-0.126,9.81,0.0,0.0,0.0
1777733341.0713167,-10.14,-0.24,-0.68,-0.026,-0.108,9.81,0.0,0.0,0.0
1777733341.081274,-10.14,-0.25,-0.68,-0.037,-0.098,9.81,0.0,0.0,0.0
1777733341.0913363,-10.14,-0.25,-0.68,-0.044,-0.101,9.81,0.0,0.0,-0.01
1777733341.101333,-10.14,-0.25,-0.68,-0.038,-0.098,9.81,-0.01,0.0,-0.01
1777733341.1114736,-10.14,-0.24,-0.68,-0.04,-0.117,9.81,0.0,-0.01,-0.01
1777733341.12131,-10.14,-0.24,-0.68,-0.031,-0.109,9.81,0.0,-0.01,-0.01
1777733341.1318276,-10.14,-0.24,-0.68,-0.032,-0.125,9.81,-0.01,-0.01,-0.01
1777733341.1413133,-10.14,-0.24,-0.68,-0.028,-0.122,9.81,-0.01,-0.01,0.0
1777733341.1513011,-10.14,-0.24,-0.69,-0.025,-0.107,9.81,-0.01,-0.01,0.0
1777733341.1613145,-10.14,-0.24,-0.68,-0.022,-0.132,9.81,-0.01,-0.01,0.0
1777733341.1715834,-10.14,-0.24,-0.68,-0.02,-0.115,9.81,0.0,-0.01,0.0
1777733341.1812878,-10.14,-0.24,-0.69,-0.025,-0.126,9.81,-0.01,0.0,0.0
1777733341.1912973,-10.14,-0.24,-0.69,-0.026,-0.128,9.81,-0.01,0.0,-0.01
1777733341.2013586,-10.14,-0.24,-0.69,-0.03,-0.145,9.81,0.0,0.0,-0.01
1777733341.2113123,-10.14,-0.24,-0.69,-0.042,-0.157,9.81,0.0,-0.01,-0.01
1777733341.2212944,-10.14,-0.24,-0.7,-0.038,-0.163,9.81,-0.01,-0.01,0.0
1777733341.2312825,-10.14,-0.24,-0.69,-0.041,-0.14,9.81,0.0,0.0,0.0
1777733341.241342,-10.14,-0.24,-0.69,-0.041,-0.119,9.81,0.0,-0.01,0.0
1777733341.251353,-10.14,-0.23,-0.69,-0.028,-0.099,9.81,-0.01,-0.01,0.0
1777733341.261306,-10.14,-0.23,-0.68,-0.02,-0.084,9.81,0.0,0.0,-0.01
1777733341.2713163,-10.13,-0.23,-0.68,-0.02,-0.095,9.81,0.0,-0.01,-0.01
1777733341.2813165,-10.12,-0.23,-0.68,-0.012,-0.111,9.81,-0.01,0.0,-0.01
1777733341.2913132,-10.13,-0.23,-0.69,-0.026,-0.121,9.81,0.0,0.0,-0.01
1777733341.301378,-10.13,-0.23,-0.69,-0.03,-0.122,9.81,-0.01,0.0,0.0
1777733341.3113024,-10.14,-0.23,-0.69,-0.035,-0.126,9.81,-0.01,0.0,0.0
1777733341.3213053,-10.15,-0.24,-0.69,-0.044,-0.137,9.81,0.0,-0.01,0.0
1777733341.3313265,-10.16,-0.23,-0.7,-0.044,-0.116,9.81,-0.01,-0.01,0.0
1777733341.341324,-10.16,-0.23,-0.7,-0.048,-0.127,9.81,-0.01,-0.01,0.0
1777733341.3513303,-10.15,-0.23,-0.69,-0.038,-0.115,9.81,-0.01,-0.01,0.0
1777733341.3613017,-10.14,-0.23,-0.69,-0.04,-0.111,9.81,0.0,0.0,-0.01
1777733341.3713055,-10.14,-0.23,-0.68,-0.031,-0.111,9.81,0.0,0.0,-0.01
1777733341.381302,-10.13,-0.23,-0.68,-0.028,-0.114,9.81,0.0,0.0,-0.01
1777733341.3913121,-10.13,-0.23,-0.68,-0.022,-0.116,9.81,0.0,0.0,-0.01
1777733341.4013422,-10.13,-0.23,-0.68,-0.013,-0.109,9.81,0.0,0.0,-0.01
1777733341.4113364,-10.14,-0.23,-0.68,-0.019,-0.116,9.81,-0.01,-0.01,0.0
1777733341.4213188,-10.14,-0.23,-0.69,-0.024,-0.111,9.81,-0.01,0.0,0.0
1777733341.4313216,-10.14,-0.23,-0.68,-0.032,-0.113,9.81,-0.01,-0.01,0.0
1777733341.4413297,-10.14,-0.22,-0.69,-0.038,-0.113,9.81,0.0,0.0,0.0
1777733341.451328,-10.14,-0.23,-0.69,-0.036,-0.116,9.81,0.0,-0.01,0.0
1777733341.4613435,-10.14,-0.23,-0.69,-0.04,-0.134,9.81,-0.01,0.0,-0.01
1777733341.4713206,-10.14,-0.23,-0.69,-0.043,-0.123,9.81,-0.01,0.0,-0.01
1777733341.4812958,-10.14,-0.23,-0.69,-0.035,-0.12,9.81,0.0,0.0,-0.01
1777733341.491303,-10.13,-0.23,-0.69,-0.032,-0.116,9.81,0.0,-0.01,-0.01
1777733341.5013435,-10.13,-0.23,-0.69,-0.029,-0.123,9.81,0.0,0.0,-0.01
1777733341.5113528,-10.13,-0.22,-0.68,-0.029,-0.122,9.81,0.0,0.0,-0.01
1777733341.5213442,-10.14,-0.22,-0.69,-0.04,-0.115,9.81,0.0,-0.01,0.0
1777733341.5313492,-10.14,-0.22,-0.68,-0.031,-0.107,9.81,-0.01,-0.01,0.0
1777733341.5413363,-10.14,-0.22,-0.68,-0.036,-0.097,9.81,-0.01,-0.01,0.0
1777733341.5513265,-10.14,-0.23,-0.68,-0.023,-0.074,9.81,-0.01,-0.01,0.0
1777733341.5622993,-10.14,-0.22,-0.68,-0.031,-0.101,9.81,-0.01,0.0,-0.01
1777733341.5718212,-10.13,-0.22,-0.68,-0.032,-0.11,9.81,-0.01,0.0,-0.01
1777733341.5813403,-10.13,-0.22,-0.68,-0.043,-0.134,9.81,-0.01,0.0,-0.01
1777733341.5913465,-10.13,-0.22,-0.69,-0.046,-0.129,9.81,-0.01,-0.01,-0.01
1777733341.6014044,-10.13,-0.22,-0.69,-0.035,-0.135,9.81,-0.01,0.0,-0.01
1777733341.6113427,-10.13,-0.22,-0.69,-0.042,-0.141,9.81,-0.01,-0.01,0.0
1777733341.6213076,-10.13,-0.22,-0.69,-0.035,-0.15,9.81,0.0,0.0,0.0
1777733341.63052,-10.14,-0.22,-0.69,-0.044,-0.154,9.81,0.0,-0.01,0.0
1777733341.6413345,-10.14,-0.22,-0.69,-0.044,-0.151,9.81,0.0,-0.01,0.0
1777733341.651322,-10.14,-0.22,-0.69,-0.044,-0.127,9.81,0.0,-0.01,0.0
1777733341.6605442,-10.14,-0.22,-0.68,-0.042,-0.102,9.81,0.0,0.0,0.0
1777733341.6713476,-10.14,-0.22,-0.68,-0.038,-0.089,9.81,0.0,0.0,0.0
1777733341.6813295,-10.14,-0.22,-0.68,-0.037,-0.084,9.81,0.0,0.0,-0.01
1777733341.6913326,-10.14,-0.22,-0.68,-0.043,-0.083,9.81,-0.01,0.0,-0.01
1777733341.701321,-10.14,-0.22,-0.68,-0.042,-0.099,9.81,-0.01,0.0,-0.01
1777733341.7117314,-10.14,-0.23,-0.68,-0.042,-0.107,9.81,-0.01,-0.01,0.0
1777733341.7208877,-10.14,-0.23,-0.68,-0.036,-0.103,9.81,-0.01,0.0,0.0
1777733341.731101,-10.14,-0.23,-0.68,-0.036,-0.102,9.81,-0.01,0.0,0.0
1777733341.7413464,-10.14,-0.23,-0.68,-0.036,-0.116,9.81,-0.01,0.0,0.0
1777733341.7513473,-10.14,-0.22,-0.68,-0.046,-0.131,9.81,-0.01,0.0,-0.01
1777733341.7613502,-10.14,-0.23,-0.69,-0.054,-0.145,9.81,-0.01,-0.01,-0.01
1777733341.7705262,-10.14,-0.23,-0.69,-0.057,-0.16,9.81,0.0,-0.01,-0.01
1777733341.7805471,-10.14,-0.23,-0.69,-0.051,-0.147,9.81,0.0,-0.01,0.0
1777733341.7905402,-10.14,-0.23,-0.69,-0.04,-0.126,9.81,0.0,-0.01,0.0
1777733341.8005226,-10.14,-0.22,-0.68,-0.032,-0.115,9.81,0.0,0.0,0.0
1777733341.8105154,-10.14,-0.22,-0.68,-0.023,-0.09,9.81,0.0,-0.01,-0.01
1777733341.820502,-10.14,-0.22,-0.68,-0.03,-0.078,9.81,-0.01,0.0,-0.01
1777733341.8305407,-10.14,-0.22,-0.68,-0.031,-0.085,9.81,-0.01,0.0,-0.01
1777733341.84055,-10.14,-0.22,-0.68,-0.03,-0.095,9.81,0.0,0.0,-0.01
1777733341.851224,-10.14,-0.22,-0.68,-0.029,-0.108,9.81,-0.01,-0.01,-0.01
1777733341.8605335,-10.14,-0.22,-0.68,-0.026,-0.114,9.81,-0.01,0.0,-0.01
1777733341.8705099,-10.14,-0.22,-0.69,-0.041,-0.157,9.81,-0.01,0.0,0.0
1777733341.8805015,-10.14,-0.22,-0.7,-0.043,-0.16,9.81,0.0,-0.01,0.0
1777733341.8907921,-10.15,-0.22,-0.7,-0.044,-0.172,9.81,-0.01,-0.01,0.0
1777733341.9012203,-10.15,-0.22,-0.7,-0.04,-0.144,9.81,0.0,-0.01,0.0
1777733341.9106145,-10.15,-0.22,-0.69,-0.036,-0.111,9.81,0.0,-0.01,0.0
1777733341.9205163,-10.14,-0.22,-0.68,-0.036,-0.099,9.81,0.0,-0.01,-0.01
1777733341.9310641,-10.14,-0.22,-0.68,-0.026,-0.081,9.81,0.0,0.0,-0.01
1777733341.9405088,-10.13,-0.22,-0.68,-0.023,-0.098,9.81,0.0,0.0,-0.01
1777733341.9510396,-10.13,-0.22,-0.68,-0.023,-0.09,9.81,0.0,0.0,-0.01
1777733341.9606848,-10.13,-0.21,-0.68,-0.028,-0.108,9.81,-0.01,0.0,-0.01
1777733341.970527,-10.14,-0.22,-0.68,-0.03,-0.102,9.81,-0.01,-0.01,0.0
1777733341.9805365,-10.14,-0.22,-0.68,-0.046,-0.093,9.81,-0.01,0.0,0.0
1777733341.9905293,-10.15,-0.22,-0.68,-0.04,-0.098,9.81,-0.01,0.0,0.0
1777733342.0005136,-10.15,-0.22,-0.68,-0.043,-0.12,9.81,-0.01,-0.01,0.0
1777733342.0105574,-10.15,-0.22,-0.69,-0.049,-0.153,9.81,-0.01,-0.01,0.0
1777733342.0210073,-10.15,-0.22,-0.7,-0.049,-0.153,9.81,0.0,-0.01,0.0
1777733342.0305486,-10.14,-0.22,-0.7,-0.042,-0.15,9.81,0.0,-0.01,-0.01
1777733342.0405335,-10.14,-0.22,-0.69,-0.043,-0.139,9.81,0.0,-0.01,-0.01
1777733342.051027,-10.14,-0.22,-0.69,-0.043,-0.122,9.81,0.0,-0.01,-0.01
1777733342.0610175,-10.14,-0.22,-0.68,-0.034,-0.113,9.81,0.0,0.0,-0.01
1777733342.0711918,-10.14,-0.22,-0.68,-0.04,-0.117,9.81,0.0,-0.01,-0.01
1777733342.0805333,-10.14,-0.22,-0.68,-0.036,-0.093,9.81,0.0,-0.01,-0.01
1777733342.0905344,-10.14,-0.22,-0.68,-0.038,-0.09,9.81,-0.01,0.0,0.0
1777733342.100551,-10.14,-0.22,-0.68,-0.04,-0.085,9.81,-0.01,-0.01,0.0
1777733342.1110067,-10.14,-0.22,-0.68,-0.043,-0.095,9.81,-0.01,0.0,-0.01
1777733342.1205318,-10.14,-0.22,-0.68,-0.046,-0.113,9.81,-0.01,0.0,-0.01
1777733342.1310098,-10.14,-0.22,-0.69,-0.043,-0.135,9.81,-0.01,0.0,-0.01
1777733342.1409717,-10.14,-0.22,-0.69,-0.053,-0.143,9.81,-0.01,-0.01,0.0
1777733342.150975,-10.15,-0.22,-0.69,-0.04,-0.143,9.81,-0.01,-0.01,0.0
1777733342.1605315,-10.15,-0.22,-0.69,-0.041,-0.122,9.81,0.0,-0.01,0.0
1777733342.170563,-10.15,-0.22,-0.68,-0.038,-0.104,9.81,0.0,-0.01,0.0
1777733342.181193,-10.14,-0.22,-0.68,-0.035,-0.087,9.81,0.0,0.0,-0.01
1777733342.1910086,-10.13,-0.21,-0.68,-0.04,-0.09,9.81,0.0,0.0,-0.01
1777733342.2012014,-10.13,-0.21,-0.68,-0.037,-0.11,9.81,0.0,0.0,-0.01
1777733342.2105575,-10.12,-0.21,-0.68,-0.035,-0.117,9.81,0.0,0.0,-0.01
1777733342.2205634,-10.13,-0.22,-0.68,-0.037,-0.117,9.81,0.0,0.0,-0.01
1777733342.2305458,-10.13,-0.22,-0.68,-0.036,-0.117,9.81,-0.01,0.0,0.0
1777733342.2405179,-10.14,-0.22,-0.68,-0.037,-0.105,9.81,-0.01,-0.01,0.0
1777733342.2510257,-10.14,-0.21,-0.68,-0.037,-0.101,9.81,0.0,-0.01,0.0
1777733342.2611592,-10.14,-0.21,-0.68,-0.029,-0.098,9.81,-0.01,-0.01,0.0
1777733342.2711186,-10.14,-0.22,-0.68,-0.026,-0.117,9.81,-0.01,0.0,-0.01
1777733342.2810977,-10.13,-0.21,-0.68,-0.037,-0.125,9.81,-0.01,0.0,-0.01
1777733342.2910314,-10.14,-0.21,-0.68,-0.037,-0.154,9.81,-0.01,-0.01,-0.01
1777733342.300794,-10.14,-0.22,-0.68,-0.037,-0.137,9.81,0.0,-0.01,0.0
1777733342.3105705,-10.14,-0.21,-0.68,-0.041,-0.123,9.81,0.0,0.0,0.0
1777733342.3205693,-10.14,-0.22,-0.68,-0.042,-0.102,9.81,-0.01,-0.01,0.0
1777733342.330558,-10.14,-0.22,-0.68,-0.053,-0.11,9.81,0.0,0.0,-0.01
1777733342.3410137,-10.13,-0.22,-0.68,-0.055,-0.125,9.81,0.0,0.0,-0.01
1777733342.3510418,-10.13,-0.22,-0.68,-0.048,-0.122,9.81,-0.01,-0.01,-0.01
1777733342.3605702,-10.13,-0.22,-0.68,-0.055,-0.137,9.81,0.0,0.0,-0.01
1777733342.3705838,-10.13,-0.22,-0.68,-0.044,-0.133,9.81,0.0,-0.01,0.0
1777733342.3805652,-10.14,-0.22,-0.68,-0.05,-0.12,9.81,-0.01,-0.01,0.0
1777733342.3905425,-10.14,-0.22,-0.68,-0.038,-0.105,9.81,0.0,-0.01,0.0
1777733342.4005497,-10.14,-0.22,-0.68,-0.037,-0.113,9.81,-0.01,-0.01,0.0
1777733342.4105299,-10.14,-0.22,-0.68,-0.032,-0.107,9.81,-0.01,0.0,-0.01
1777733342.4206045,-10.13,-0.22,-0.68,-0.038,-0.115,9.81,0.0,0.0,-0.01
1777733342.4297311,-10.13,-0.22,-0.68,-0.035,-0.126,9.81,0.0,-0.01,-0.01
1777733342.440574,-10.13,-0.22,-0.68,-0.031,-0.115,9.81,0.0,0.0,-0.01
1777733342.450574,-10.13,-0.22,-0.68,-0.031,-0.122,9.81,0.0,0.0,-0.01
1777733342.4605653,-10.13,-0.22,-0.68,-0.036,-0.111,9.81,0.0,0.0,0.0
1777733342.4697304,-10.13,-0.22,-0.68,-0.038,-0.116,9.81,0.0,-0.01,-0.01
1777733342.480591,-10.13,-0.22,-0.68,-0.038,-0.131,9.81,-0.01,0.0,0.0
1777733342.4910011,-10.13,-0.21,-0.68,-0.044,-0.138,9.81,-0.01,0.0,0.0
1777733342.500601,-10.14,-0.22,-0.69,-0.036,-0.119,9.81,-0.01,-0.01,0.0
1777733342.5097709,-10.14,-0.21,-0.68,-0.042,-0.108,9.81,0.0,0.0,0.0
1777733342.519733,-10.14,-0.22,-0.68,-0.049,-0.098,9.81,0.0,-0.01,-0.01
1777733342.529757,-10.13,-0.22,-0.68,-0.034,-0.096,9.81,-0.01,0.0,-0.01
1777733342.5407617,-10.12,-0.21,-0.68,-0.042,-0.122,9.81,0.0,0.0,-0.01
1777733342.5510912,-10.12,-0.22,-0.69,-0.037,-0.143,9.81,0.0,0.0,-0.01
1777733342.5602655,-10.12,-0.22,-0.69,-0.044,-0.169,9.81,-0.01,0.0,0.0
1777733342.56976,-10.14,-0.22,-0.7,-0.046,-0.17,9.81,0.0,-0.01,0.0
1777733342.5797553,-10.14,-0.22,-0.7,-0.044,-0.141,9.81,0.0,-0.01,0.0
1777733342.5906045,-10.15,-0.22,-0.69,-0.038,-0.11,9.81,0.0,-0.01,0.0
1777733342.5997565,-10.14,-0.22,-0.68,-0.036,-0.089,9.81,0.0,0.0,0.0
1777733342.6097834,-10.14,-0.21,-0.68,-0.035,-0.081,9.81,0.0,0.0,-0.01
1777733342.619748,-10.13,-0.21,-0.68,-0.041,-0.098,9.81,0.0,0.0,-0.01
1777733342.6298027,-10.12,-0.21,-0.68,-0.042,-0.108,9.81,-0.01,0.0,-0.01
1777733342.639823,-10.13,-0.22,-0.68,-0.048,-0.111,9.81,-0.01,0.0,-0.01
1777733342.649767,-10.14,-0.22,-0.68,-0.041,-0.099,9.81,-0.01,-0.01,0.0
1777733342.659751,-10.14,-0.22,-0.68,-0.035,-0.102,9.81,-0.01,-0.01,0.0
1777733342.669764,-10.14,-0.22,-0.68,-0.037,-0.089,9.81,-0.01,-0.01,0.0
1777733342.679751,-10.14,-0.22,-0.68,-0.034,-0.12,9.81,-0.01,-0.01,0.0
1777733342.6897533,-10.14,-0.22,-0.69,-0.037,-0.122,9.81,0.0,-0.01,-0.01
1777733342.6997378,-10.13,-0.22,-0.69,-0.032,-0.147,9.81,-0.01,0.0,-0.01
1777733342.7097495,-10.13,-0.22,-0.69,-0.03,-0.147,9.81,-0.01,-0.01,-0.01
1777733342.7197397,-10.13,-0.22,-0.69,-0.028,-0.154,9.81,0.0,0.0,-0.01
1777733342.7297301,-10.14,-0.21,-0.7,-0.041,-0.152,9.81,0.0,-0.01,0.0
1777733342.7397366,-10.14,-0.22,-0.69,-0.036,-0.145,9.81,-0.01,-0.01,0.0
1777733342.7497668,-10.14,-0.21,-0.69,-0.04,-0.122,9.81,0.0,0.0,0.0
1777733342.7597694,-10.14,-0.21,-0.69,-0.036,-0.093,9.81,0.0,-0.01,0.0
1777733342.7697892,-10.14,-0.21,-0.68,-0.025,-0.079,9.81,-0.01,0.0,0.0
1777733342.779745,-10.14,-0.21,-0.68,-0.036,-0.079,9.81,0.0,0.0,-0.01
1777733342.7897816,-10.14,-0.22,-0.68,-0.029,-0.089,9.81,0.0,0.0,-0.01
1777733342.7998574,-10.14,-0.21,-0.68,-0.044,-0.113,9.81,-0.01,0.0,-0.01
1777733342.8097854,-10.14,-0.22,-0.68,-0.046,-0.134,9.81,-0.01,-0.01,0.0
1777733342.8197742,-10.14,-0.21,-0.69,-0.044,-0.135,9.81,0.0,-0.01,0.0
1777733342.829784,-10.14,-0.22,-0.69,-0.04,-0.123,9.81,-0.01,-0.01,0.0
1777733342.83979,-10.14,-0.21,-0.69,-0.036,-0.119,9.81,0.0,0.0,0.0
1777733342.84975,-10.14,-0.21,-0.69,-0.041,-0.127,9.81,0.0,-0.01,-0.01
1777733342.8597534,-10.14,-0.22,-0.68,-0.037,-0.123,9.81,-0.01,0.0,-0.01
1777733342.869776,-10.14,-0.22,-0.68,-0.044,-0.122,9.81,0.0,0.0,-0.01
1777733342.8797824,-10.14,-0.22,-0.68,-0.041,-0.114,9.81,0.0,0.0,0.0
1777733342.890162,-10.14,-0.22,-0.68,-0.031,-0.092,9.81,-0.01,0.0,0.0
1777733342.8997865,-10.14,-0.21,-0.68,-0.034,-0.079,9.81,-0.01,0.0,0.0
1777733342.9097636,-10.14,-0.21,-0.68,-0.025,-0.074,9.81,-0.01,0.0,0.0
1777733342.9197717,-10.14,-0.21,-0.68,-0.029,-0.091,9.81,0.0,-0.01,-0.01
1777733342.9298255,-10.14,-0.21,-0.68,-0.034,-0.109,9.81,-0.01,0.0,-0.01
1777733342.9397924,-10.14,-0.21,-0.68,-0.042,-0.138,9.81,-0.01,-0.01,0.0
1777733342.9498012,-10.14,-0.21,-0.68,-0.036,-0.133,9.81,-0.01,-0.01,0.0
1777733342.959815,-10.15,-0.21,-0.68,-0.029,-0.127,9.81,-0.01,-0.01,0.0
1777733342.969786,-10.14,-0.21,-0.68,-0.035,-0.114,9.81,0.0,-0.01,0.0
1777733342.9797943,-10.14,-0.21,-0.68,-0.022,-0.111,9.81,0.0,0.0,-0.01
1777733342.9897873,-10.14,-0.21,-0.68,-0.036,-0.116,9.81,0.0,0.0,-0.01
1777733342.9997983,-10.13,-0.21,-0.68,-0.031,-0.127,9.81,0.0,0.0,-0.01
1777733343.0098195,-10.14,-0.21,-0.68,-0.041,-0.127,9.81,0.0,0.0,-0.01
1777733343.0197678,-10.14,-0.22,-0.68,-0.036,-0.129,9.81,-0.01,0.0,0.0
1777733343.029815,-10.14,-0.21,-0.68,-0.048,-0.115,9.81,-0.01,0.0,0.0
1777733343.0398016,-10.14,-0.21,-0.68,-0.044,-0.109,9.81,0.0,-0.01,0.0
1777733343.0497956,-10.14,-0.21,-0.68,-0.04,-0.098,9.81,0.0,-0.01,0.0
1777733343.0603094,-10.14,-0.21,-0.68,-0.04,-0.103,9.81,-0.01,-0.01,-0.01
1777733343.070288,-10.14,-0.21,-0.68,-0.036,-0.107,9.81,-0.01,0.0,-0.01
1777733343.0798047,-10.13,-0.21,-0.68,-0.043,-0.135,9.81,0.0,0.0,-0.01
1777733343.0897715,-10.13,-0.21,-0.68,-0.036,-0.145,9.81,0.0,0.0,-0.01
1777733343.0998278,-10.13,-0.21,-0.69,-0.041,-0.157,9.81,0.0,0.0,0.0
1777733343.109828,-10.14,-0.21,-0.69,-0.044,-0.143,9.81,0.0,-0.01,0.0
1777733343.1202672,-10.14,-0.21,-0.68,-0.037,-0.132,9.81,0.0,0.0,0.0
1777733343.1302414,-10.14,-0.21,-0.68,-0.048,-0.103,9.81,0.0,-0.01,0.0
1777733343.1402564,-10.14,-0.21,-0.68,-0.038,-0.105,9.81,-0.01,0.0,-0.01
1777733343.1502562,-10.13,-0.21,-0.68,-0.038,-0.107,9.81,-0.01,-0.01,-0.01
1777733343.1598089,-10.13,-0.21,-0.68,-0.036,-0.111,9.81,-0.01,0.0,-0.01
1777733343.1701968,-10.14,-0.21,-0.68,-0.04,-0.109,9.81,0.0,0.0,0.0
1777733343.1804743,-10.14,-0.21,-0.68,-0.037,-0.116,9.81,0.0,-0.01,0.0
1777733343.1901472,-10.14,-0.21,-0.68,-0.043,-0.091,9.81,-0.01,-0.01,0.0
1777733343.2003481,-10.14,-0.21,-0.68,-0.037,-0.093,9.81,-0.01,0.0,0.0
1777733343.2102509,-10.14,-0.21,-0.68,-0.042,-0.105,9.81,0.0,0.0,-0.01
1777733343.2197978,-10.13,-0.21,-0.68,-0.034,-0.109,9.81,-0.01,0.0,-0.01
1777733343.2298,-10.12,-0.21,-0.68,-0.042,-0.134,9.81,0.0,0.0,-0.01
1777733343.2389925,-10.12,-0.21,-0.68,-0.035,-0.148,9.81,0.0,0.0,-0.01
1777733343.2489824,-10.13,-0.21,-0.69,-0.043,-0.16,9.81,0.0,-0.01,0.0
1777733343.2600257,-10.14,-0.21,-0.69,-0.054,-0.158,9.81,0.0,-0.01,0.0
1777733343.2703183,-10.14,-0.21,-0.69,-0.044,-0.12,9.81,0.0,-0.01,0.0
1777733343.2799473,-10.15,-0.21,-0.68,-0.04,-0.095,9.81,0.0,-0.01,0.0
1777733343.2903578,-10.14,-0.21,-0.68,-0.03,-0.072,9.81,-0.01,0.0,-0.01
1777733343.2991745,-10.14,-0.21,-0.68,-0.032,-0.066,9.81,0.0,0.0,-0.01
1777733343.3089678,-10.13,-0.21,-0.68,-0.031,-0.077,9.81,0.0,0.0,-0.01
1777733343.319026,-10.12,-0.21,-0.68,-0.035,-0.09,9.81,-0.01,0.0,-0.01
1777733343.328973,-10.12,-0.21,-0.68,-0.04,-0.113,9.81,-0.01,0.0,-0.01
1777733343.3390148,-10.12,-0.21,-0.68,-0.038,-0.123,9.81,-0.01,-0.01,-0.01
1777733343.3489957,-10.13,-0.22,-0.68,-0.038,-0.12,9.81,-0.01,-0.01,0.0
1777733343.3590324,-10.14,-0.21,-0.68,-0.048,-0.135,9.81,-0.01,0.0,0.0
1777733343.369448,-10.14,-0.21,-0.68,-0.047,-0.146,9.81,0.0,-0.01,0.0
1777733343.379502,-10.14,-0.21,-0.69,-0.047,-0.135,9.81,0.0,-0.01,0.0
1777733343.3890314,-10.14,-0.21,-0.68,-0.042,-0.121,9.81,-0.01,0.0,0.0
1777733343.3990245,-10.14,-0.21,-0.68,-0.04,-0.128,9.81,0.0,0.0,-0.01
1777733343.4090078,-10.13,-0.21,-0.68,-0.034,-0.109,9.81,0.0,-0.01,-0.01
1777733343.4189975,-10.12,-0.21,-0.68,-0.035,-0.102,9.81,0.0,0.0,-0.01
1777733343.4289958,-10.12,-0.21,-0.68,-0.031,-0.111,9.81,-0.01,0.0,-0.01
1777733343.4390085,-10.13,-0.21,-0.68,-0.036,-0.135,9.81,0.0,-0.01,0.0
1777733343.4489605,-10.14,-0.21,-0.68,-0.035,-0.125,9.81,0.0,-0.01,0.0
1777733343.4590125,-10.14,-0.21,-0.68,-0.034,-0.096,9.81,-0.01,-0.01,0.0
1777733343.4689803,-10.14,-0.21,-0.68,-0.042,-0.093,9.81,-0.01,-0.01,0.0
1777733343.4790409,-10.13,-0.21,-0.68,-0.031,-0.084,9.81,-0.01,0.0,-0.01
1777733343.4890018,-10.13,-0.21,-0.68,-0.035,-0.121,9.81,0.0,0.0,-0.01
1777733343.4989905,-10.13,-0.22,-0.68,-0.035,-0.144,9.81,0.0,0.0,-0.01
1777733343.5089915,-10.13,-0.21,-0.69,-0.043,-0.154,9.81,-0.01,0.0,-0.01
1777733343.5189872,-10.14,-0.21,-0.69,-0.047,-0.163,9.81,-0.01,-0.01,0.0
1777733343.5290222,-10.14,-0.21,-0.69,-0.043,-0.135,9.81,0.0,-0.01,0.0
1777733343.5390253,-10.14,-0.21,-0.68,-0.043,-0.119,9.81,0.0,-0.01,0.0
1777733343.549038,-10.14,-0.21,-0.68,-0.041,-0.101,9.81,0.0,0.0,-0.01
1777733343.5590303,-10.13,-0.21,-0.68,-0.036,-0.109,9.81,0.0,0.0,-0.01
1777733343.5690296,-10.12,-0.21,-0.68,-0.04,-0.115,9.81,0.0,0.0,-0.01
1777733343.579034,-10.12,-0.21,-0.68,-0.034,-0.111,9.81,-0.01,0.0,-0.01
1777733343.5890236,-10.13,-0.22,-0.68,-0.036,-0.122,9.81,0.0,0.0,0.0
1777733343.5990858,-10.13,-0.22,-0.68,-0.04,-0.11,9.81,-0.01,-0.01,0.0
1777733343.6090162,-10.14,-0.21,-0.68,-0.042,-0.109,9.81,-0.01,0.0,0.0
1777733343.6190362,-10.14,-0.21,-0.68,-0.04,-0.095,9.81,-0.01,-0.01,0.0
1777733343.6290042,-10.13,-0.22,-0.68,-0.043,-0.113,9.81,-0.01,0.0,-0.01
1777733343.6390634,-10.13,-0.22,-0.68,-0.049,-0.138,9.81,-0.01,-0.01,-0.01
1777733343.649008,-10.12,-0.22,-0.69,-0.041,-0.162,9.81,-0.01,0.0,-0.01
1777733343.659034,-10.13,-0.21,-0.69,-0.05,-0.178,9.81,0.0,-0.01,-0.01
1777733343.6690166,-10.14,-0.21,-0.69,-0.044,-0.171,9.81,0.0,-0.01,0.0
1777733343.6790068,-10.14,-0.21,-0.69,-0.042,-0.134,9.81,0.0,-0.01,0.0
1777733343.6890395,-10.14,-0.21,-0.68,-0.036,-0.102,9.81,0.0,0.0,0.0
1777733343.6990206,-10.14,-0.21,-0.68,-0.038,-0.074,9.81,0.0,0.0,-0.01
1777733343.7090213,-10.13,-0.21,-0.68,-0.034,-0.071,9.81,0.0,0.0,-0.01
1777733343.7190418,-10.12,-0.21,-0.67,-0.024,-0.08,9.81,-0.01,0.0,-0.01
1777733343.7290137,-10.12,-0.21,-0.67,-0.035,-0.116,9.81,0.0,0.0,-0.01
1777733343.7390454,-10.12,-0.21,-0.68,-0.038,-0.117,9.81,0.0,0.0,-0.01
1777733343.7490277,-10.12,-0.21,-0.68,-0.053,-0.127,9.81,-0.01,-0.01,0.0
1777733343.7590337,-10.13,-0.22,-0.68,-0.051,-0.127,9.81,-0.01,-0.01,0.0
1777733343.7690287,-10.14,-0.21,-0.68,-0.055,-0.123,9.81,-0.01,-0.01,0.0
1777733343.7794864,-10.14,-0.22,-0.68,-0.043,-0.126,9.81,-0.01,-0.01,0.0
1777733343.7894754,-10.14,-0.21,-0.68,-0.048,-0.138,9.81,0.0,0.0,0.0
1777733343.7990282,-10.14,-0.22,-0.69,-0.041,-0.144,9.81,0.0,-0.01,-0.01
1777733343.8090112,-10.14,-0.22,-0.69,-0.034,-0.14,9.81,-0.01,0.0,-0.01
1777733343.819049,-10.13,-0.22,-0.68,-0.042,-0.145,9.81,0.0,0.0,-0.01
1777733343.8290458,-10.13,-0.22,-0.68,-0.038,-0.133,9.81,0.0,0.0,-0.01
1777733343.839076,-10.13,-0.22,-0.68,-0.043,-0.123,9.81,0.0,0.0,-0.01
1777733343.8496482,-10.13,-0.22,-0.68,-0.043,-0.113,9.81,0.0,0.0,-0.01
1777733343.8590322,-10.13,-0.21,-0.68,-0.048,-0.111,9.81,0.0,0.0,0.0
1777733343.8690104,-10.13,-0.22,-0.68,-0.056,-0.107,9.81,0.0,-0.01,0.0
1777733343.8790212,-10.14,-0.21,-0.68,-0.043,-0.099,9.81,-0.01,-0.01,0.0
1777733343.889017,-10.14,-0.21,-0.68,-0.05,-0.103,9.81,-0.01,-0.01,0.0
1777733343.8990388,-10.13,-0.22,-0.68,-0.047,-0.096,9.81,-0.01,-0.01,-0.01
1777733343.9090507,-10.13,-0.21,-0.68,-0.046,-0.115,9.81,-0.01,-0.01,-0.01
1777733343.9190946,-10.14,-0.22,-0.68,-0.053,-0.125,9.81,0.0,-0.01,-0.01
1777733343.9290645,-10.14,-0.22,-0.68,-0.043,-0.133,9.81,0.0,-0.01,0.0
1777733343.939094,-10.14,-0.22,-0.68,-0.042,-0.122,9.81,-0.01,-0.01,0.0
1777733343.9490497,-10.14,-0.22,-0.68,-0.031,-0.114,9.81,0.0,0.0,0.0
1777733343.9590445,-10.14,-0.21,-0.68,-0.03,-0.125,9.81,0.0,0.0,-0.01
1777733343.9690385,-10.13,-0.22,-0.68,-0.036,-0.114,9.81,0.0,-0.01,-0.01
1777733343.9790442,-10.12,-0.21,-0.68,-0.037,-0.111,9.81,-0.01,0.0,-0.01
1777733343.9890337,-10.13,-0.22,-0.68,-0.049,-0.132,9.81,0.0,0.0,-0.01
1777733343.9982321,-10.13,-0.22,-0.68,-0.042,-0.12,9.81,0.0,-0.01,0.0
1777733344.0081804,-10.14,-0.22,-0.68,-0.04,-0.111,9.81,-0.01,0.0,0.0
1777733344.0190582,-10.14,-0.21,-0.68,-0.04,-0.092,9.81,-0.01,-0.01,0.0
1777733344.0290446,-10.14,-0.21,-0.68,-0.035,-0.097,9.81,0.0,-0.01,0.0
1777733344.03911,-10.13,-0.21,-0.68,-0.038,-0.092,9.81,-0.01,-0.01,-0.01
1777733344.0490644,-10.12,-0.21,-0.68,-0.037,-0.116,9.81,-0.01,0.0,-0.01
1777733344.0590792,-10.12,-0.21,-0.68,-0.037,-0.139,9.81,-0.01,0.0,-0.01
1777733344.069037,-10.13,-0.22,-0.69,-0.049,-0.163,9.81,0.0,0.0,0.0
1777733344.0782447,-10.14,-0.22,-0.69,-0.043,-0.148,9.81,-0.01,0.0,0.0
1777733344.0882301,-10.14,-0.22,-0.68,-0.047,-0.128,9.81,0.0,-0.01,0.0
1777733344.0990672,-10.14,-0.22,-0.68,-0.048,-0.099,9.81,0.0,-0.01,0.0
1777733344.1090558,-10.13,-0.22,-0.68,-0.051,-0.109,9.81,-0.01,0.0,-0.01
1777733344.1187472,-10.13,-0.22,-0.68,-0.053,-0.099,9.81,0.0,0.0,-0.01
1777733344.1286697,-10.12,-0.22,-0.68,-0.043,-0.092,9.81,-0.01,0.0,-0.01
1777733344.1382596,-10.12,-0.22,-0.68,-0.047,-0.089,9.81,-0.01,-0.01,-0.01
1777733344.1487346,-10.12,-0.21,-0.68,-0.036,-0.095,9.81,-0.01,0.0,-0.01
1777733344.1582627,-10.13,-0.21,-0.68,-0.032,-0.095,9.81,-0.01,-0.01,0.0
1777733344.168226,-10.13,-0.21,-0.68,-0.031,-0.093,9.81,0.0,-0.01,0.0
1777733344.1782289,-10.13,-0.21,-0.68,-0.019,-0.109,9.81,-0.01,0.0,0.0
1777733344.1882126,-10.13,-0.21,-0.68,-0.029,-0.121,9.81,0.0,0.0,-0.01
1777733344.1982167,-10.13,-0.22,-0.68,-0.037,-0.116,9.81,0.0,-0.01,-0.01
1777733344.208779,-10.12,-0.21,-0.68,-0.043,-0.138,9.81,-0.01,0.0,-0.01
1777733344.2189288,-10.12,-0.21,-0.68,-0.036,-0.123,9.81,0.0,0.0,-0.01
1777733344.2282662,-10.12,-0.21,-0.68,-0.048,-0.135,9.81,0.0,0.0,-0.01
1777733344.2384963,-10.12,-0.21,-0.68,-0.044,-0.122,9.81,0.0,-0.01,0.0
1777733344.2482529,-10.12,-0.21,-0.68,-0.047,-0.12,9.81,0.0,0.0,-0.01
1777733344.2582362,-10.12,-0.21,-0.68,-0.043,-0.109,9.81,0.0,-0.01,-0.01
1777733344.2682793,-10.12,-0.21,-0.68,-0.031,-0.108,9.81,0.0,0.0,-0.01
1777733344.2782407,-10.12,-0.21,-0.68,-0.037,-0.104,9.81,-0.01,-0.01,-0.01
1777733344.2882688,-10.12,-0.21,-0.68,-0.041,-0.12,9.81,0.0,-0.01,0.0
1777733344.2982402,-10.13,-0.21,-0.68,-0.031,-0.113,9.81,-0.01,-0.01,0.0
1777733344.3082347,-10.13,-0.21,-0.68,-0.032,-0.109,9.81,-0.01,-0.01,0.0
1777733344.3182552,-10.13,-0.21,-0.68,-0.032,-0.113,9.81,-0.01,-0.01,0.0
1777733344.328213,-10.13,-0.21,-0.68,-0.028,-0.115,9.81,0.0,-0.01,-0.01
1777733344.338235,-10.13,-0.21,-0.68,-0.035,-0.115,9.81,0.0,0.0,-0.01
1777733344.3482292,-10.13,-0.21,-0.68,-0.032,-0.119,9.81,-0.01,0.0,-0.01
1777733344.3582277,-10.12,-0.21,-0.68,-0.037,-0.111,9.81,0.0,0.0,-0.01
1777733344.3682082,-10.12,-0.21,-0.68,-0.047,-0.098,9.81,0.0,0.0,-0.01
1777733344.378228,-10.12,-0.21,-0.68,-0.043,-0.113,9.81,-0.01,0.0,-0.01
1777733344.3882446,-10.13,-0.21,-0.68,-0.049,-0.108,9.81,-0.01,-0.01,0.0
1777733344.3986955,-10.13,-0.21,-0.68,-0.049,-0.113,9.81,0.0,-0.01,0.0
1777733344.4087427,-10.13,-0.21,-0.68,-0.041,-0.102,9.81,0.0,-0.01,0.0
1777733344.4182737,-10.13,-0.21,-0.68,-0.041,-0.104,9.81,-0.01,-0.01,0.0
1777733344.4282818,-10.13,-0.21,-0.68,-0.036,-0.099,9.81,-0.01,-0.01,0.0
1777733344.4382777,-10.13,-0.21,-0.68,-0.032,-0.097,9.81,-0.01,0.0,-0.01
1777733344.448755,-10.12,-0.21,-0.68,-0.038,-0.115,9.81,0.0,0.0,-0.01
1777733344.4596062,-10.12,-0.21,-0.68,-0.031,-0.135,9.81,-0.01,0.0,-0.01
1777733344.4682426,-10.12,-0.21,-0.68,-0.051,-0.152,9.81,0.0,0.0,-0.01
1777733344.4782262,-10.13,-0.22,-0.69,-0.053,-0.147,9.81,0.0,-0.01,0.0
1777733344.4882371,-10.14,-0.22,-0.68,-0.05,-0.123,9.81,-0.01,-0.01,0.0
1777733344.498232,-10.14,-0.22,-0.68,-0.056,-0.099,9.81,-0.01,-0.01,0.0
1777733344.508261,-10.13,-0.21,-0.68,-0.053,-0.101,9.81,0.0,-0.01,-0.01
1777733344.5182705,-10.13,-0.21,-0.68,-0.043,-0.104,9.81,-0.01,0.0,-0.01
1777733344.5282617,-10.13,-0.21,-0.68,-0.046,-0.111,9.81,0.0,-0.01,-0.01
1777733344.5382707,-10.13,-0.22,-0.68,-0.03,-0.119,9.81,0.0,-0.01,0.0
1777733344.5482285,-10.14,-0.21,-0.68,-0.025,-0.107,9.81,-0.01,0.0,0.0
1777733344.55825,-10.13,-0.21,-0.68,-0.024,-0.113,9.81,-0.01,-0.01,0.0
1777733344.5687556,-10.13,-0.21,-0.68,-0.024,-0.096,9.81,-0.01,0.0,-0.01
1777733344.5782597,-10.12,-0.21,-0.68,-0.03,-0.114,9.81,0.0,0.0,-0.01
1777733344.5882761,-10.12,-0.21,-0.68,-0.034,-0.123,9.81,-0.01,0.0,-0.01
1777733344.5982533,-10.12,-0.21,-0.68,-0.038,-0.15,9.81,0.0,0.0,-0.01
1777733344.6082492,-10.13,-0.22,-0.69,-0.04,-0.143,9.81,-0.01,-0.01,0.0
1777733344.6183066,-10.14,-0.22,-0.69,-0.042,-0.146,9.81,-0.01,0.0,0.0
1777733344.6282876,-10.14,-0.22,-0.69,-0.051,-0.144,9.81,0.0,-0.01,0.0
1777733344.6382964,-10.14,-0.22,-0.69,-0.041,-0.116,9.81,0.0,-0.01,0.0
1777733344.6483653,-10.14,-0.21,-0.69,-0.038,-0.095,9.81,-0.01,-0.01,0.0
1777733344.6582851,-10.14,-0.22,-0.68,-0.034,-0.087,9.81,0.0,-0.01,-0.01
1777733344.6682694,-10.13,-0.22,-0.68,-0.028,-0.093,9.81,0.0,0.0,-0.01
1777733344.678674,-10.12,-0.21,-0.68,-0.037,-0.103,9.81,0.0,0.0,-0.01
1777733344.6882524,-10.12,-0.21,-0.68,-0.034,-0.103,9.81,-0.01,0.0,-0.01
1777733344.6982608,-10.12,-0.21,-0.68,-0.04,-0.119,9.81,0.0,0.0,-0.01
1777733344.7082455,-10.13,-0.22,-0.69,-0.035,-0.111,9.81,-0.01,0.0,0.0
1777733344.7182932,-10.14,-0.22,-0.68,-0.038,-0.111,9.81,-0.01,0.0,0.0
1777733344.7282774,-10.14,-0.22,-0.69,-0.053,-0.11,9.81,0.0,-0.01,0.0
1777733344.738278,-10.14,-0.22,-0.69,-0.046,-0.115,9.81,-0.01,-0.01,0.0
1777733344.7482755,-10.14,-0.22,-0.69,-0.042,-0.111,9.81,-0.01,-0.01,0.0
1777733344.7582738,-10.14,-0.22,-0.68,-0.038,-0.114,9.81,0.0,0.0,-0.01
1777733344.7682693,-10.13,-0.22,-0.68,-0.028,-0.129,9.81,0.0,0.0,-0.01
1777733344.7782686,-10.12,-0.22,-0.69,-0.028,-0.129,9.81,0.0,-0.01,-0.01
1777733344.7889638,-10.12,-0.21,-0.69,-0.031,-0.141,9.81,0.0,0.0,-0.01
1777733344.7974885,-10.13,-0.21,-0.69,-0.034,-0.139,9.81,0.0,-0.01,-0.01
1777733344.8082988,-10.13,-0.21,-0.69,-0.048,-0.132,9.81,0.0,0.0,0.0
1777733344.8183,-10.14,-0.22,-0.69,-0.05,-0.109,9.81,-0.01,-0.01,0.0
1777733344.8282835,-10.14,-0.22,-0.69,-0.047,-0.096,9.81,-0.01,0.0,0.0
1777733344.8374755,-10.14,-0.22,-0.68,-0.043,-0.091,9.81,-0.01,0.0,0.0
1777733344.8474927,-10.14,-0.22,-0.68,-0.044,-0.081,9.81,-0.01,-0.01,-0.01
1777733344.8646111,-10.13,-0.22,-0.68,-0.047,-0.103,9.81,0.0,-0.01,-0.01
1777733344.882712,-10.13,-0.22,-0.68,-0.041,-0.107,9.81,-0.01,-0.01,-0.01
1777733344.8921633,-10.13,-0.22,-0.68,-0.029,-0.126,9.81,-0.01,0.0,-0.01
1777733344.8985238,-10.13,-0.22,-0.69,-0.032,-0.137,9.81,0.0,-0.01,-0.01
1777733344.9063926,-10.13,-0.21,-0.69,-0.025,-0.144,9.81,-0.01,0.0,0.0
1777733344.913124,-10.13,-0.21,-0.69,-0.034,-0.138,9.81,0.0,-0.01,0.0
1777733344.920242,-10.14,-0.21,-0.69,-0.03,-0.129,9.81,0.0,0.0,0.0
1777733344.92858,-10.13,-0.21,-0.69,-0.04,-0.11,9.81,0.0,0.0,0.0
1777733344.9391317,-10.13,-0.22,-0.68,-0.034,-0.098,9.81,0.0,0.0,-0.01
1777733344.9486737,-10.12,-0.21,-0.68,-0.035,-0.107,9.81,0.0,0.0,-0.01
1777733344.9583192,-10.12,-0.21,-0.69,-0.032,-0.111,9.81,-0.01,-0.01,-0.01
1777733344.9686642,-10.13,-0.21,-0.68,-0.029,-0.111,9.81,-0.01,0.0,0.0
1777733344.977547,-10.14,-0.21,-0.68,-0.028,-0.115,9.81,0.0,-0.01,0.0
1777733344.9874928,-10.14,-0.2,-0.68,-0.024,-0.103,9.81,0.0,-0.01,0.0
1777733344.9974658,-10.14,-0.2,-0.68,-0.026,-0.081,9.81,-0.01,-0.01,0.0
1777733345.0080528,-10.14,-0.2,-0.68,-0.019,-0.086,9.81,-0.01,-0.01,-0.01
1777733345.0174932,-10.13,-0.2,-0.68,-0.025,-0.104,9.81,0.0,0.0,-0.01
1777733345.028076,-10.12,-0.2,-0.68,-0.026,-0.125,9.81,0.0,0.0,-0.01
1777733345.038223,-10.12,-0.2,-0.68,-0.026,-0.14,9.81,0.0,0.0,-0.01
1777733345.047503,-10.13,-0.2,-0.69,-0.037,-0.127,9.81,0.0,-0.01,0.0
1777733345.0574079,-10.14,-0.2,-0.68,-0.036,-0.121,9.81,-0.01,0.0,0.0
1777733345.0679913,-10.14,-0.2,-0.68,-0.044,-0.099,9.81,0.0,0.0,0.0
1777733345.0774329,-10.13,-0.2,-0.68,-0.041,-0.097,9.81,0.0,0.0,0.0
1777733345.0880735,-10.13,-0.21,-0.68,-0.037,-0.091,9.81,-0.01,-0.01,-0.01
1777733345.0980055,-10.12,-0.21,-0.68,-0.037,-0.109,9.81,-0.01,0.0,-0.01
1777733345.1074238,-10.13,-0.2,-0.68,-0.044,-0.12,9.81,-0.01,-0.01,-0.01
1777733345.1179247,-10.13,-0.2,-0.68,-0.046,-0.135,9.81,-0.01,-0.01,0.0
1777733345.1274698,-10.14,-0.2,-0.68,-0.042,-0.115,9.81,0.0,-0.01,0.0
1777733345.1375873,-10.14,-0.2,-0.68,-0.035,-0.111,9.81,0.0,0.0,0.0
1777733345.147542,-10.14,-0.2,-0.68,-0.03,-0.101,9.81,-0.01,-0.01,0.0
1777733345.1574285,-10.13,-0.2,-0.68,-0.03,-0.109,9.81,-0.01,0.0,-0.01
1777733345.1674442,-10.12,-0.2,-0.68,-0.041,-0.123,9.81,0.0,0.0,-0.01
1777733345.1781368,-10.12,-0.2,-0.68,-0.036,-0.129,9.81,-0.01,0.0,-0.01
1777733345.1884956,-10.12,-0.2,-0.68,-0.051,-0.151,9.81,0.0,0.0,-0.01
1777733345.1974041,-10.13,-0.2,-0.68,-0.048,-0.146,9.81,0.0,-0.01,0.0
1777733345.2082334,-10.14,-0.2,-0.68,-0.049,-0.121,9.81,0.0,-0.01,0.0
1777733345.2189956,-10.14,-0.2,-0.68,-0.043,-0.103,9.81,0.0,-0.01,0.0
1777733345.2279482,-10.14,-0.2,-0.68,-0.041,-0.086,9.81,0.0,0.0,0.0
1777733345.2374196,-10.13,-0.2,-0.68,-0.034,-0.072,9.81,-0.01,0.0,-0.01
1777733345.247648,-10.13,-0.2,-0.68,-0.028,-0.087,9.81,-0.01,-0.01,-0.01
1777733345.257454,-10.12,-0.2,-0.68,-0.026,-0.095,9.81,-0.01,-0.01,-0.01
1777733345.267492,-10.12,-0.2,-0.68,-0.04,-0.11,9.81,0.0,0.0,-0.01
1777733345.277463,-10.12,-0.2,-0.68,-0.028,-0.113,9.81,-0.01,0.0,0.0
1777733345.287489,-10.12,-0.2,-0.68,-0.036,-0.125,9.81,-0.01,0.0,0.0
1777733345.2974868,-10.13,-0.2,-0.68,-0.04,-0.14,9.81,-0.01,-0.01,0.0
1777733345.3075294,-10.13,-0.2,-0.68,-0.05,-0.153,9.81,-0.01,0.0,0.0
1777733345.3174853,-10.13,-0.2,-0.69,-0.057,-0.144,9.81,0.0,-0.01,0.0
1777733345.3275003,-10.14,-0.2,-0.69,-0.055,-0.146,9.81,0.0,-0.01,0.0
1777733345.3374577,-10.13,-0.2,-0.69,-0.053,-0.127,9.81,0.0,-0.01,0.0
1777733345.347499,-10.13,-0.2,-0.68,-0.055,-0.129,9.81,0.0,-0.01,-0.01
1777733345.3575232,-10.13,-0.2,-0.68,-0.05,-0.125,9.81,0.0,-0.01,-0.01
1777733345.3674753,-10.13,-0.2,-0.68,-0.037,-0.104,9.81,-0.01,0.0,-0.01
1777733345.3774645,-10.13,-0.2,-0.68,-0.038,-0.086,9.81,-0.01,-0.01,0.0
1777733345.3874958,-10.14,-0.2,-0.68,-0.034,-0.096,9.81,0.0,0.0,0.0
1777733345.3974888,-10.14,-0.2,-0.68,-0.032,-0.097,9.81,-0.01,-0.01,0.0
1777733345.4152443,-10.14,-0.2,-0.68,-0.042,-0.104,9.81,-0.01,0.0,0.0
1777733345.4226356,-10.14,-0.21,-0.68,-0.05,-0.113,9.81,-0.01,-0.01,0.0
1777733345.4363394,-10.14,-0.21,-0.68,-0.05,-0.123,9.81,-0.01,0.0,0.0
1777733345.4495776,-10.14,-0.21,-0.68,-0.053,-0.128,9.81,-0.01,0.0,0.0
1777733345.454779,-10.14,-0.21,-0.69,-0.048,-0.133,9.81,0.0,0.0,-0.01
1777733345.457459,-10.13,-0.21,-0.69,-0.048,-0.131,9.81,0.0,0.0,-0.01
1777733345.4674695,-10.13,-0.21,-0.69,-0.048,-0.139,9.81,0.0,-0.01,-0.01
1777733345.4778361,-10.13,-0.21,-0.69,-0.044,-0.138,9.81,0.0,0.0,-0.01
1777733345.4874501,-10.14,-0.21,-0.69,-0.043,-0.117,9.81,0.0,-0.01,0.0
1777733345.497442,-10.14,-0.21,-0.68,-0.04,-0.092,9.81,-0.01,-0.01,0.0
1777733345.507801,-10.13,-0.21,-0.68,-0.038,-0.08,9.81,-0.01,-0.01,-0.01
1777733345.517794,-10.13,-0.21,-0.68,-0.049,-0.087,9.81,0.0,0.0,-0.01
1777733345.527466,-10.13,-0.21,-0.68,-0.041,-0.098,9.81,-0.01,-0.01,-0.01
1777733345.5378287,-10.13,-0.21,-0.68,-0.05,-0.138,9.81,-0.01,-0.01,-0.01
1777733345.5479536,-10.14,-0.21,-0.69,-0.041,-0.145,9.81,0.0,-0.01,0.0
1777733345.556915,-10.14,-0.2,-0.69,-0.035,-0.144,9.81,-0.01,-0.01,0.0
1777733345.5665863,-10.14,-0.21,-0.69,-0.037,-0.123,9.81,-0.01,-0.01,0.0
1777733345.5765839,-10.14,-0.21,-0.68,-0.035,-0.114,9.81,0.0,0.0,-0.01
1777733345.586584,-10.13,-0.21,-0.68,-0.038,-0.116,9.81,0.0,-0.01,-0.01
1777733345.5976853,-10.12,-0.21,-0.68,-0.038,-0.113,9.81,0.0,0.0,-0.01
1777733345.6074898,-10.12,-0.21,-0.68,-0.041,-0.131,9.81,0.0,0.0,-0.01
1777733345.6174898,-10.12,-0.21,-0.68,-0.044,-0.144,9.81,-0.01,0.0,-0.01
1777733345.6275153,-10.12,-0.21,-0.69,-0.04,-0.116,9.81,-0.01,-0.01,0.0
1777733345.6375077,-10.13,-0.21,-0.68,-0.038,-0.114,9.81,0.0,-0.01,0.0
1777733345.6466303,-10.14,-0.21,-0.68,-0.031,-0.096,9.81,0.0,-0.01,0.0
1777733345.6566346,-10.14,-0.21,-0.68,-0.029,-0.093,9.81,-0.01,-0.01,0.0
1777733345.6666312,-10.13,-0.21,-0.68,-0.03,-0.101,9.81,-0.01,0.0,-0.01
1777733345.6766207,-10.12,-0.21,-0.68,-0.038,-0.109,9.81,0.0,0.0,-0.01
1777733345.6865923,-10.12,-0.21,-0.68,-0.038,-0.137,9.81,-0.01,0.0,-0.01
1777733345.696975,-10.12,-0.21,-0.69,-0.044,-0.148,9.81,0.0,0.0,-0.01
1777733345.707007,-10.12,-0.21,-0.7,-0.049,-0.174,9.81,0.0,-0.01,0.0
1777733345.716618,-10.13,-0.21,-0.7,-0.048,-0.162,9.81,0.0,-0.01,0.0
1777733345.727194,-10.14,-0.21,-0.7,-0.048,-0.141,9.81,0.0,-0.01,0.0
1777733345.7371526,-10.14,-0.21,-0.69,-0.042,-0.099,9.81,0.0,-0.01,0.0
1777733345.7466333,-10.14,-0.21,-0.68,-0.046,-0.063,9.81,0.0,0.0,0.0
1777733345.75667,-10.14,-0.21,-0.68,-0.043,-0.065,9.81,0.0,-0.01,-0.01
1777733345.7667353,-10.12,-0.21,-0.68,-0.042,-0.071,9.81,0.0,0.0,-0.01
1777733345.776635,-10.12,-0.21,-0.68,-0.041,-0.086,9.81,-0.01,0.0,-0.01
1777733345.7866392,-10.12,-0.21,-0.68,-0.043,-0.104,9.81,-0.01,0.0,-0.01
1777733345.7966616,-10.12,-0.21,-0.68,-0.043,-0.11,9.81,-0.01,0.0,-0.01
1777733345.8066237,-10.12,-0.21,-0.68,-0.042,-0.125,9.81,-0.01,-0.01,0.0
1777733345.8166604,-10.13,-0.21,-0.69,-0.044,-0.133,9.81,-0.01,-0.01,0.0
1777733345.8267398,-10.14,-0.21,-0.69,-0.054,-0.139,9.81,-0.01,-0.01,0.0
1777733345.8366444,-10.14,-0.21,-0.69,-0.043,-0.123,9.81,-0.01,-0.01,0.0
1777733345.8466356,-10.14,-0.21,-0.69,-0.041,-0.121,9.81,0.0,-0.01,0.0
1777733345.856648,-10.13,-0.21,-0.69,-0.032,-0.122,9.81,0.0,-0.01,-0.01
1777733345.8666391,-10.12,-0.21,-0.68,-0.03,-0.125,9.81,0.0,0.0,-0.01
1777733345.87686,-10.12,-0.2,-0.69,-0.031,-0.111,9.81,0.0,0.0,-0.01
1777733345.8866699,-10.12,-0.2,-0.68,-0.014,-0.123,9.81,-0.01,-0.01,-0.01
1777733345.896636,-10.13,-0.2,-0.68,-0.034,-0.121,9.81,0.0,-0.01,0.0
1777733345.9066207,-10.14,-0.2,-0.68,-0.019,-0.102,9.81,-0.01,0.0,0.0
1777733345.916638,-10.14,-0.2,-0.68,-0.028,-0.081,9.81,-0.01,-0.01,0.0
1777733345.9266653,-10.14,-0.2,-0.68,-0.029,-0.092,9.81,0.0,-0.01,0.0
1777733345.9367123,-10.13,-0.2,-0.68,-0.028,-0.101,9.81,-0.01,0.0,-0.01
1777733345.9466724,-10.12,-0.2,-0.68,-0.038,-0.138,9.81,-0.01,-0.01,-0.01
1777733345.9568508,-10.12,-0.2,-0.68,-0.03,-0.144,9.81,0.0,0.0,-0.01
1777733345.9666843,-10.13,-0.2,-0.69,-0.042,-0.15,9.81,0.0,-0.01,-0.01
1777733345.9766695,-10.13,-0.2,-0.69,-0.038,-0.141,9.81,-0.01,-0.01,0.0
1777733345.9867218,-10.13,-0.2,-0.68,-0.05,-0.121,9.81,0.0,-0.01,0.0
1777733345.9966514,-10.13,-0.2,-0.68,-0.048,-0.102,9.81,0.0,-0.01,0.0
1777733346.0067072,-10.13,-0.2,-0.68,-0.041,-0.11,9.81,-0.01,-0.01,-0.01
1777733346.0167391,-10.13,-0.2,-0.68,-0.043,-0.126,9.81,0.0,-0.01,-0.01
1777733346.0275242,-10.13,-0.2,-0.68,-0.028,-0.129,9.81,-0.01,0.0,-0.01
1777733346.0367372,-10.13,-0.2,-0.68,-0.032,-0.126,9.81,-0.01,-0.01,0.0
1777733346.0466802,-10.13,-0.2,-0.68,-0.029,-0.129,9.81,0.0,0.0,0.0
1777733346.056673,-10.13,-0.2,-0.68,-0.031,-0.121,9.81,0.0,-0.01,0.0
1777733346.0666764,-10.13,-0.2,-0.68,-0.034,-0.126,9.81,-0.01,0.0,-0.01
1777733346.0766778,-10.12,-0.2,-0.68,-0.038,-0.125,9.81,-0.01,0.0,-0.01
1777733346.0866811,-10.12,-0.2,-0.69,-0.054,-0.138,9.81,0.0,-0.01,-0.01
1777733346.0966818,-10.13,-0.2,-0.69,-0.047,-0.133,9.81,-0.01,-0.01,0.0
1777733346.1066837,-10.13,-0.2,-0.69,-0.056,-0.117,9.81,-0.01,0.0,0.0
1777733346.11669,-10.13,-0.2,-0.68,-0.05,-0.11,9.81,0.0,-0.01,0.0
1777733346.1266847,-10.13,-0.2,-0.68,-0.041,-0.096,9.81,-0.01,-0.01,0.0
1777733346.1366947,-10.13,-0.2,-0.68,-0.04,-0.108,9.81,0.0,-0.01,-0.01
1777733346.146699,-10.12,-0.19,-0.69,-0.026,-0.108,9.81,-0.01,0.0,-0.01
1777733346.1567097,-10.12,-0.19,-0.69,-0.03,-0.119,9.81,-0.01,0.0,-0.01
1777733346.1667676,-10.13,-0.19,-0.68,-0.034,-0.123,9.81,-0.01,-0.01,0.0
1777733346.1772356,-10.13,-0.19,-0.68,-0.024,-0.109,9.81,-0.01,0.0,0.0
1777733346.186698,-10.13,-0.19,-0.68,-0.038,-0.111,9.81,0.0,-0.01,0.0
1777733346.197236,-10.13,-0.19,-0.68,-0.032,-0.102,9.81,-0.01,-0.01,-0.01
1777733346.2070124,-10.13,-0.19,-0.68,-0.047,-0.119,9.81,-0.01,0.0,-0.01
1777733346.2171865,-10.13,-0.2,-0.68,-0.05,-0.126,9.81,0.0,-0.01,-0.01
1777733346.2270236,-10.13,-0.19,-0.68,-0.049,-0.126,9.81,0.0,0.0,0.0
1777733346.2367256,-10.13,-0.2,-0.68,-0.05,-0.12,9.81,0.0,-0.01,0.0
1777733346.246722,-10.13,-0.2,-0.68,-0.038,-0.111,9.81,-0.01,0.0,0.0
1777733346.2567327,-10.13,-0.19,-0.68,-0.054,-0.12,9.81,0.0,-0.01,0.0
1777733346.2666857,-10.13,-0.2,-0.68,-0.038,-0.103,9.81,0.0,-0.01,0.0
1777733346.2767007,-10.13,-0.2,-0.68,-0.04,-0.108,9.81,-0.01,-0.01,0.0
1777733346.2869747,-10.13,-0.2,-0.68,-0.044,-0.101,9.81,0.0,-0.01,-0.01
1777733346.2962303,-10.13,-0.2,-0.68,-0.038,-0.104,9.81,-0.01,0.0,-0.01
1777733346.3058558,-10.13,-0.2,-0.68,-0.038,-0.105,9.81,-0.01,-0.01,-0.01
1777733346.316718,-10.13,-0.2,-0.68,-0.041,-0.107,9.81,0.0,0.0,-0.01
1777733346.3267045,-10.13,-0.2,-0.68,-0.043,-0.111,9.81,0.0,0.0,-0.01
1777733346.3367243,-10.13,-0.2,-0.68,-0.044,-0.121,9.81,-0.01,-0.01,-0.01
1777733346.3469522,-10.13,-0.2,-0.68,-0.037,-0.126,9.81,-0.01,0.0,0.0
1777733346.3570848,-10.14,-0.2,-0.68,-0.048,-0.132,9.81,-0.01,-0.01,0.0
1777733346.3661115,-10.14,-0.2,-0.68,-0.054,-0.146,9.81,0.0,-0.01,0.0
1777733346.3758152,-10.14,-0.2,-0.68,-0.048,-0.126,9.81,0.0,-0.01,0.0
1777733346.3858435,-10.14,-0.2,-0.68,-0.037,-0.12,9.81,-0.01,-0.01,0.0
1777733346.3958642,-10.14,-0.19,-0.68,-0.036,-0.111,9.81,0.0,-0.01,-0.01
1777733346.4058633,-10.13,-0.2,-0.68,-0.029,-0.12,9.81,0.0,-0.01,-0.01
1777733346.4167306,-10.12,-0.2,-0.68,-0.035,-0.114,9.81,0.0,0.0,-0.01
1777733346.4267242,-10.12,-0.2,-0.68,-0.034,-0.126,9.81,0.0,0.0,-0.01
1777733346.4358695,-10.12,-0.2,-0.68,-0.043,-0.123,9.81,0.0,0.0,-0.01
1777733346.44587,-10.13,-0.2,-0.68,-0.048,-0.115,9.81,0.0,0.0,0.0
1777733346.4558706,-10.13,-0.2,-0.68,-0.051,-0.121,9.81,-0.01,-0.01,0.0
1777733346.4658892,-10.14,-0.2,-0.68,-0.049,-0.105,9.81,0.0,0.0,0.0
1777733346.4764273,-10.14,-0.2,-0.68,-0.053,-0.085,9.81,-0.01,-0.01,0.0
1777733346.485905,-10.13,-0.2,-0.68,-0.038,-0.078,9.81,-0.01,-0.01,-0.01
1777733346.495887,-10.12,-0.2,-0.68,-0.041,-0.093,9.81,0.0,-0.01,-0.01
1777733346.505903,-10.12,-0.2,-0.68,-0.046,-0.116,9.81,0.0,-0.01,-0.01
1777733346.515876,-10.12,-0.2,-0.68,-0.044,-0.134,9.81,-0.01,0.0,-0.01
1777733346.5258882,-10.12,-0.2,-0.68,-0.047,-0.163,9.81,0.0,-0.01,0.0
1777733346.5365596,-10.14,-0.2,-0.69,-0.047,-0.16,9.81,0.0,-0.01,0.0
1777733346.545873,-10.14,-0.2,-0.69,-0.05,-0.15,9.81,0.0,-0.01,0.0
1777733346.5559745,-10.15,-0.2,-0.68,-0.051,-0.123,9.81,0.0,-0.01,0.0
1777733346.5661714,-10.14,-0.2,-0.68,-0.044,-0.102,9.81,0.0,0.0,0.0
1777733346.5759022,-10.14,-0.21,-0.68,-0.047,-0.101,9.81,0.0,0.0,-0.01
1777733346.585868,-10.13,-0.21,-0.68,-0.046,-0.103,9.81,0.0,0.0,-0.01
1777733346.595859,-10.13,-0.21,-0.68,-0.043,-0.101,9.81,-0.01,0.0,-0.01
1777733346.6058834,-10.13,-0.21,-0.68,-0.041,-0.108,9.81,-0.01,0.0,-0.01
1777733346.6158452,-10.14,-0.21,-0.68,-0.041,-0.105,9.81,0.0,-0.01,0.0
1777733346.6258638,-10.14,-0.21,-0.68,-0.031,-0.103,9.81,-0.01,-0.01,0.0
1777733346.6358745,-10.14,-0.2,-0.68,-0.029,-0.093,9.81,-0.01,-0.01,0.0
1777733346.6461003,-10.14,-0.21,-0.68,-0.038,-0.108,9.81,-0.01,-0.01,-0.01
1777733346.6558657,-10.14,-0.21,-0.68,-0.036,-0.123,9.81,-0.01,0.0,-0.01
1777733346.6659386,-10.13,-0.21,-0.68,-0.041,-0.128,9.81,-0.01,0.0,-0.01
1777733346.6763673,-10.12,-0.21,-0.69,-0.046,-0.131,9.81,0.0,0.0,-0.01
1777733346.6859784,-10.12,-0.21,-0.69,-0.049,-0.163,9.81,0.0,0.0,-0.01
1777733346.6959689,-10.13,-0.21,-0.69,-0.049,-0.165,9.81,0.0,-0.01,0.0
1777733346.7059271,-10.14,-0.21,-0.69,-0.048,-0.157,9.81,0.0,-0.01,0.0
1777733346.7158992,-10.14,-0.2,-0.69,-0.04,-0.113,9.81,0.0,-0.01,0.0
1777733346.7258902,-10.14,-0.2,-0.68,-0.029,-0.08,9.81,0.0,-0.01,0.0
1777733346.735887,-10.14,-0.21,-0.68,-0.029,-0.061,9.81,0.0,0.0,-0.01
1777733346.7458787,-10.13,-0.21,-0.68,-0.026,-0.085,9.81,0.0,0.0,-0.01
1777733346.7558959,-10.12,-0.21,-0.68,-0.03,-0.102,9.81,-0.01,0.0,-0.01
1777733346.7658885,-10.12,-0.21,-0.68,-0.038,-0.123,9.81,-0.01,0.0,-0.01
1777733346.7758827,-10.13,-0.21,-0.68,-0.037,-0.137,9.81,-0.01,0.0,0.0
1777733346.7864327,-10.14,-0.21,-0.69,-0.048,-0.135,9.81,-0.01,-0.01,0.0
1777733346.796306,-10.14,-0.21,-0.69,-0.044,-0.131,9.81,-0.01,-0.01,0.0
1777733346.8058884,-10.14,-0.21,-0.69,-0.048,-0.109,9.81,-0.01,-0.01,0.0
1777733346.8158853,-10.14,-0.21,-0.68,-0.05,-0.115,9.81,0.0,0.0,-0.01
1777733346.8258874,-10.13,-0.21,-0.68,-0.041,-0.104,9.81,-0.01,0.0,-0.01
1777733346.835909,-10.12,-0.21,-0.68,-0.04,-0.14,9.81,0.0,0.0,-0.01
1777733346.8458931,-10.12,-0.21,-0.69,-0.042,-0.152,9.81,0.0,0.0,-0.01
1777733346.855903,-10.12,-0.21,-0.69,-0.043,-0.169,9.81,0.0,-0.01,-0.01
1777733346.8659,-10.13,-0.21,-0.69,-0.047,-0.144,9.81,0.0,-0.01,0.0
1777733346.8759353,-10.14,-0.21,-0.69,-0.04,-0.114,9.81,0.0,0.0,0.0
1777733346.8859472,-10.14,-0.21,-0.68,-0.042,-0.079,9.81,-0.01,-0.01,0.0
1777733346.8959444,-10.14,-0.21,-0.68,-0.037,-0.073,9.81,0.0,0.0,0.0
1777733346.9059334,-10.13,-0.21,-0.68,-0.034,-0.084,9.81,0.0,0.0,-0.01
1777733346.9159236,-10.13,-0.21,-0.68,-0.03,-0.099,9.81,-0.01,0.0,-0.01
1777733346.9259212,-10.12,-0.21,-0.68,-0.044,-0.11,9.81,-0.01,0.0,-0.01
1777733346.9359207,-10.12,-0.21,-0.68,-0.048,-0.139,9.81,-0.01,0.0,-0.01
1777733346.9459252,-10.13,-0.21,-0.69,-0.057,-0.141,9.81,-0.01,-0.01,0.0
1777733346.955928,-10.14,-0.21,-0.69,-0.048,-0.147,9.81,-0.01,-0.01,0.0
1777733346.9659429,-10.14,-0.21,-0.69,-0.048,-0.137,9.81,0.0,-0.01,0.0
1777733346.9759161,-10.14,-0.21,-0.68,-0.034,-0.123,9.81,0.0,-0.01,0.0
1777733346.9859068,-10.14,-0.21,-0.68,-0.032,-0.105,9.81,0.0,0.0,-0.01
1777733346.9959543,-10.13,-0.21,-0.68,-0.025,-0.107,9.81,0.0,-0.01,-0.01
1777733347.0059426,-10.13,-0.21,-0.68,-0.031,-0.114,9.81,0.0,0.0,-0.01
1777733347.0160007,-10.13,-0.21,-0.68,-0.038,-0.103,9.81,-0.01,0.0,-0.01
1777733347.0259078,-10.13,-0.21,-0.68,-0.036,-0.102,9.81,-0.01,0.0,-0.01
1777733347.0359702,-10.13,-0.21,-0.68,-0.041,-0.102,9.81,0.0,-0.01,0.0
1777733347.045978,-10.14,-0.22,-0.68,-0.035,-0.085,9.81,-0.01,0.0,0.0
1777733347.0559478,-10.14,-0.21,-0.68,-0.044,-0.104,9.81,-0.01,0.0,0.0
1777733347.0659313,-10.13,-0.22,-0.68,-0.047,-0.126,9.81,-0.01,-0.01,-0.01
1777733347.075992,-10.13,-0.21,-0.69,-0.048,-0.159,9.81,-0.01,-0.01,-0.01
1777733347.0850651,-10.13,-0.21,-0.7,-0.053,-0.169,9.81,-0.01,-0.01,-0.01
1777733347.0959632,-10.14,-0.21,-0.7,-0.044,-0.175,9.81,0.0,-0.01,0.0
1777733347.1059403,-10.14,-0.21,-0.7,-0.044,-0.146,9.81,0.0,-0.01,0.0
1777733347.1159701,-10.14,-0.21,-0.69,-0.038,-0.114,9.81,0.0,-0.01,0.0
1777733347.1250741,-10.13,-0.21,-0.68,-0.037,-0.105,9.81,0.0,0.0,-0.01
1777733347.1350384,-10.13,-0.21,-0.68,-0.037,-0.105,9.81,0.0,0.0,-0.01
1777733347.1459846,-10.12,-0.21,-0.68,-0.034,-0.105,9.81,0.0,0.0,-0.01
1777733347.155964,-10.12,-0.21,-0.68,-0.038,-0.087,9.81,-0.01,0.0,-0.01
1777733347.1659522,-10.13,-0.21,-0.68,-0.044,-0.116,9.81,-0.01,0.0,0.0
1777733347.175957,-10.13,-0.22,-0.68,-0.049,-0.096,9.81,-0.01,-0.01,0.0
1777733347.1859932,-10.14,-0.21,-0.68,-0.042,-0.09,9.81,-0.01,-0.01,0.0
1777733347.1959703,-10.14,-0.21,-0.68,-0.043,-0.096,9.81,-0.01,-0.01,0.0
1777733347.2060554,-10.13,-0.21,-0.68,-0.036,-0.122,9.81,-0.01,-0.01,-0.01
1777733347.2151482,-10.13,-0.21,-0.69,-0.049,-0.126,9.81,-0.01,-0.01,-0.01
1777733347.2251136,-10.13,-0.21,-0.69,-0.035,-0.15,9.81,-0.01,0.0,-0.01
1777733347.2350717,-10.13,-0.21,-0.69,-0.034,-0.147,9.81,0.0,-0.01,-0.01
1777733347.24597,-10.13,-0.21,-0.7,-0.031,-0.153,9.81,0.0,0.0,-0.01
1777733347.2551355,-10.13,-0.21,-0.69,-0.03,-0.148,9.81,-0.01,0.0,0.0
1777733347.2651155,-10.13,-0.21,-0.69,-0.048,-0.15,9.81,0.0,-0.01,0.0
1777733347.27514,-10.14,-0.21,-0.69,-0.047,-0.145,9.81,0.0,-0.01,0.0
1777733347.2851586,-10.14,-0.21,-0.69,-0.042,-0.093,9.81,-0.01,-0.01,0.0
1777733347.295139,-10.14,-0.21,-0.68,-0.035,-0.079,9.81,0.0,-0.01,0.0
1777733347.3052104,-10.14,-0.21,-0.68,-0.03,-0.069,9.81,-0.01,-0.01,-0.01
1777733347.3151333,-10.14,-0.21,-0.68,-0.032,-0.065,9.81,0.0,0.0,-0.01
1777733347.32519,-10.13,-0.2,-0.68,-0.026,-0.075,9.81,-0.01,0.0,-0.01
1777733347.3351085,-10.12,-0.21,-0.68,-0.018,-0.113,9.81,-0.01,-0.01,-0.01
1777733347.3450868,-10.12,-0.21,-0.68,-0.031,-0.14,9.81,-0.01,0.0,-0.01
1777733347.3551707,-10.13,-0.21,-0.69,-0.03,-0.135,9.81,-0.01,0.0,0.0
1777733347.3651998,-10.14,-0.21,-0.69,-0.043,-0.152,9.81,0.0,-0.01,0.0
1777733347.37512,-10.14,-0.21,-0.69,-0.047,-0.132,9.81,0.0,-0.01,0.0
1777733347.385112,-10.14,-0.21,-0.69,-0.042,-0.12,9.81,-0.01,0.0,0.0
1777733347.395118,-10.13,-0.21,-0.68,-0.047,-0.126,9.81,0.0,0.0,-0.01
1777733347.4051173,-10.12,-0.21,-0.68,-0.046,-0.139,9.81,0.0,0.0,-0.01
1777733347.4151216,-10.12,-0.21,-0.69,-0.05,-0.145,9.81,0.0,-0.01,-0.01
1777733347.4251115,-10.13,-0.21,-0.69,-0.035,-0.128,9.81,0.0,-0.01,0.0
1777733347.4351335,-10.14,-0.21,-0.68,-0.036,-0.104,9.81,0.0,-0.01,0.0
1777733347.4451272,-10.14,-0.21,-0.68,-0.03,-0.081,9.81,-0.01,-0.01,0.0
1777733347.4551249,-10.14,-0.2,-0.68,-0.037,-0.079,9.81,0.0,0.0,0.0
1777733347.465141,-10.14,-0.21,-0.68,-0.035,-0.084,9.81,-0.01,-0.01,-0.01
1777733347.4751363,-10.13,-0.21,-0.68,-0.036,-0.115,9.81,-0.01,0.0,-0.01
1777733347.485138,-10.13,-0.21,-0.68,-0.05,-0.146,9.81,0.0,-0.01,-0.01
1777733347.4951305,-10.13,-0.21,-0.69,-0.048,-0.165,9.81,0.0,-0.01,-0.01
1777733347.5051358,-10.14,-0.2,-0.69,-0.046,-0.157,9.81,-0.01,-0.01,0.0
1777733347.5151713,-10.14,-0.21,-0.69,-0.049,-0.137,9.81,0.0,-0.01,0.0
1777733347.5251112,-10.14,-0.21,-0.68,-0.043,-0.11,9.81,0.0,0.0,0.0
1777733347.5351384,-10.13,-0.21,-0.68,-0.041,-0.102,9.81,-0.01,-0.01,-0.01
1777733347.545151,-10.12,-0.21,-0.68,-0.035,-0.116,9.81,0.0,0.0,-0.01
1777733347.5551922,-10.12,-0.21,-0.68,-0.044,-0.127,9.81,0.0,0.0,-0.01
1777733347.5651515,-10.12,-0.21,-0.68,-0.046,-0.144,9.81,0.0,-0.01,-0.01
1777733347.5751421,-10.12,-0.21,-0.68,-0.048,-0.131,9.81,0.0,-0.01,0.0
1777733347.5851479,-10.14,-0.21,-0.68,-0.046,-0.128,9.81,-0.01,-0.01,0.0
1777733347.5951426,-10.14,-0.21,-0.68,-0.05,-0.104,9.81,0.0,-0.01,0.0
1777733347.6051424,-10.14,-0.21,-0.68,-0.041,-0.08,9.81,-0.01,0.0,0.0
1777733347.615154,-10.13,-0.21,-0.68,-0.04,-0.096,9.81,-0.01,0.0,-0.01
1777733347.6251597,-10.13,-0.21,-0.68,-0.036,-0.107,9.81,-0.01,-0.01,-0.01
1777733347.6351593,-10.13,-0.21,-0.68,-0.036,-0.132,9.81,-0.01,0.0,-0.01
1777733347.6451628,-10.13,-0.21,-0.68,-0.034,-0.152,9.81,-0.01,-0.01,0.0
1777733347.655178,-10.14,-0.2,-0.69,-0.031,-0.15,9.81,0.0,-0.01,0.0
1777733347.6651614,-10.14,-0.2,-0.69,-0.036,-0.111,9.81,0.0,-0.01,0.0
1777733347.6751907,-10.13,-0.2,-0.68,-0.028,-0.097,9.81,-0.01,-0.01,0.0
1777733347.685177,-10.12,-0.2,-0.68,-0.038,-0.087,9.81,0.0,0.0,-0.01
1777733347.6951792,-10.12,-0.2,-0.68,-0.04,-0.101,9.81,0.0,0.0,-0.01
1777733347.7053173,-10.12,-0.21,-0.68,-0.038,-0.108,9.81,0.0,0.0,-0.01
1777733347.7151942,-10.12,-0.2,-0.68,-0.047,-0.137,9.81,-0.01,-0.01,-0.01
1777733347.725324,-10.12,-0.21,-0.68,-0.049,-0.119,9.81,0.0,-0.01,0.0
1777733347.735178,-10.13,-0.21,-0.68,-0.042,-0.113,9.81,-0.01,0.0,0.0
1777733347.7453043,-10.13,-0.2,-0.68,-0.038,-0.092,9.81,-0.01,-0.01,0.0
1777733347.7552075,-10.13,-0.21,-0.68,-0.028,-0.081,9.81,-0.01,0.0,0.0
1777733347.7651687,-10.12,-0.21,-0.68,-0.044,-0.104,9.81,0.0,0.0,-0.01
1777733347.775289,-10.12,-0.21,-0.68,-0.036,-0.111,9.81,-0.01,0.0,-0.01
1777733347.7851503,-10.12,-0.21,-0.68,-0.049,-0.138,9.81,-0.01,0.0,-0.01
1777733347.7951465,-10.12,-0.21,-0.68,-0.056,-0.16,9.81,0.0,-0.01,0.0
1777733347.8052044,-10.13,-0.21,-0.69,-0.047,-0.146,9.81,0.0,-0.01,0.0
1777733347.8152306,-10.13,-0.21,-0.68,-0.04,-0.128,9.81,-0.01,-0.01,0.0
1777733347.8252146,-10.13,-0.21,-0.68,-0.035,-0.108,9.81,0.0,-0.01,0.0
1777733347.8351793,-10.13,-0.21,-0.68,-0.031,-0.11,9.81,0.0,0.0,-0.01
1777733347.8451807,-10.12,-0.21,-0.68,-0.029,-0.113,9.81,0.0,0.0,-0.01
1777733347.855202,-10.12,-0.21,-0.68,-0.036,-0.119,9.81,0.0,0.0,-0.01
1777733347.865173,-10.12,-0.21,-0.68,-0.037,-0.117,9.81,-0.01,0.0,-0.01
1777733347.8751829,-10.13,-0.21,-0.68,-0.036,-0.111,9.81,0.0,-0.01,0.0
1777733347.8852332,-10.13,-0.21,-0.68,-0.046,-0.096,9.81,0.0,0.0,0.0
1777733347.8952172,-10.13,-0.21,-0.68,-0.042,-0.093,9.81,-0.01,-0.01,0.0
1777733347.9044266,-10.13,-0.21,-0.68,-0.038,-0.091,9.81,-0.01,-0.01,-0.01
1777733347.9143708,-10.12,-0.21,-0.68,-0.041,-0.123,9.81,-0.01,0.0,-0.01
1777733347.9243412,-10.12,-0.21,-0.68,-0.037,-0.143,9.81,-0.01,0.0,-0.01
1777733347.9342854,-10.12,-0.21,-0.68,-0.041,-0.169,9.81,0.0,0.0,-0.01
1777733347.9452562,-10.13,-0.21,-0.69,-0.041,-0.154,9.81,0.0,-0.01,0.0
1777733347.9545357,-10.14,-0.21,-0.68,-0.036,-0.128,9.81,0.0,0.0,0.0
1777733347.965211,-10.14,-0.21,-0.68,-0.032,-0.107,9.81,0.0,0.0,0.0
1777733347.9752421,-10.13,-0.21,-0.68,-0.029,-0.085,9.81,0.0,-0.01,-0.01
1777733347.985228,-10.12,-0.21,-0.68,-0.03,-0.09,9.81,0.0,0.0,-0.01
1777733347.9952106,-10.12,-0.21,-0.68,-0.034,-0.098,9.81,-0.01,0.0,-0.01
1777733348.004502,-10.12,-0.21,-0.68,-0.044,-0.116,9.81,-0.01,0.0,-0.01
1777733348.0143266,-10.13,-0.21,-0.68,-0.038,-0.109,9.81,0.0,-0.01,0.0
1777733348.024313,-10.14,-0.21,-0.68,-0.038,-0.103,9.81,-0.01,-0.01,0.0
1777733348.0344179,-10.14,-0.21,-0.68,-0.035,-0.092,9.81,-0.01,0.0,0.0
1777733348.0443175,-10.14,-0.2,-0.68,-0.034,-0.081,9.81,-0.01,-0.01,0.0
1777733348.054367,-10.13,-0.21,-0.67,-0.038,-0.098,9.81,0.0,0.0,-0.01
1777733348.0648189,-10.12,-0.21,-0.68,-0.044,-0.117,9.81,0.0,0.0,-0.01
1777733348.0743225,-10.12,-0.21,-0.68,-0.042,-0.137,9.81,0.0,0.0,-0.01
1777733348.0843685,-10.12,-0.21,-0.68,-0.042,-0.162,9.81,0.0,0.0,-0.01
1777733348.094335,-10.13,-0.2,-0.68,-0.047,-0.169,9.81,0.0,-0.01,0.0
1777733348.104322,-10.14,-0.2,-0.68,-0.051,-0.14,9.81,0.0,-0.01,0.0
1777733348.1143856,-10.14,-0.21,-0.68,-0.051,-0.105,9.81,0.0,-0.01,0.0
1777733348.1243439,-10.14,-0.21,-0.68,-0.044,-0.078,9.81,-0.01,-0.01,0.0
1777733348.1343622,-10.13,-0.2,-0.67,-0.04,-0.078,9.81,0.0,0.0,-0.01
1777733348.1443527,-10.13,-0.21,-0.67,-0.038,-0.097,9.81,0.0,-0.01,-0.01
1777733348.1543467,-10.12,-0.21,-0.67,-0.03,-0.107,9.81,-0.01,0.0,-0.01
1777733348.1643453,-10.12,-0.21,-0.68,-0.032,-0.126,9.81,-0.01,0.0,-0.01
1777733348.174366,-10.13,-0.21,-0.68,-0.032,-0.133,9.81,-0.01,-0.01,0.0
1777733348.184346,-10.14,-0.2,-0.68,-0.044,-0.141,9.81,-0.01,0.0,0.0
1777733348.1943336,-10.14,-0.21,-0.68,-0.044,-0.138,9.81,-0.01,-0.01,0.0
1777733348.2043421,-10.14,-0.21,-0.68,-0.041,-0.122,9.81,0.0,-0.01,0.0
1777733348.214355,-10.14,-0.21,-0.68,-0.044,-0.12,9.81,0.0,0.0,-0.01
1777733348.2243378,-10.13,-0.21,-0.68,-0.034,-0.113,9.81,0.0,0.0,-0.01
1777733348.2343376,-10.12,-0.21,-0.68,-0.038,-0.113,9.81,-0.01,0.0,-0.01
1777733348.244356,-10.12,-0.21,-0.68,-0.035,-0.115,9.81,0.0,-0.01,-0.01
1777733348.2543626,-10.12,-0.21,-0.68,-0.035,-0.116,9.81,-0.01,-0.01,-0.01
1777733348.2643595,-10.12,-0.21,-0.68,-0.035,-0.121,9.81,0.0,0.0,-0.01
1777733348.2744386,-10.12,-0.21,-0.68,-0.037,-0.125,9.81,-0.01,0.0,0.0
1777733348.2848036,-10.13,-0.21,-0.68,-0.041,-0.122,9.81,0.0,-0.01,0.0
1777733348.2943711,-10.14,-0.21,-0.68,-0.043,-0.11,9.81,0.0,0.0,0.0
1777733348.3043938,-10.14,-0.21,-0.68,-0.04,-0.115,9.81,-0.01,0.0,0.0
1777733348.3143973,-10.13,-0.21,-0.68,-0.049,-0.11,9.81,0.0,0.0,0.0
1777733348.3244019,-10.13,-0.21,-0.68,-0.049,-0.12,9.81,0.0,-0.01,-0.01
1777733348.3345616,-10.12,-0.21,-0.68,-0.043,-0.114,9.81,-0.01,-0.01,-0.01
1777733348.3443956,-10.12,-0.21,-0.68,-0.05,-0.125,9.81,0.0,0.0,-0.01
1777733348.3544126,-10.12,-0.21,-0.68,-0.047,-0.113,9.81,0.0,-0.01,-0.01
1777733348.3643982,-10.12,-0.21,-0.68,-0.044,-0.128,9.81,0.0,0.0,0.0
1777733348.3743978,-10.13,-0.21,-0.68,-0.041,-0.103,9.81,0.0,-0.01,0.0
1777733348.384374,-10.14,-0.21,-0.68,-0.031,-0.117,9.81,-0.01,-0.01,0.0
1777733348.3944151,-10.14,-0.21,-0.68,-0.03,-0.099,9.81,-0.01,-0.01,0.0
1777733348.404494,-10.14,-0.2,-0.68,-0.036,-0.091,9.81,0.0,-0.01,0.0
1777733348.414378,-10.13,-0.21,-0.68,-0.038,-0.097,9.81,-0.01,-0.01,-0.01
1777733348.4245307,-10.13,-0.21,-0.68,-0.041,-0.101,9.81,0.0,0.0,-0.01
1777733348.4344091,-10.12,-0.21,-0.68,-0.053,-0.123,9.81,-0.01,0.0,-0.01
1777733348.444403,-10.12,-0.21,-0.68,-0.049,-0.154,9.81,-0.01,0.0,-0.01
1777733348.4543948,-10.13,-0.21,-0.68,-0.06,-0.166,9.81,0.0,-0.01,0.0
1777733348.4643748,-10.13,-0.21,-0.69,-0.054,-0.144,9.81,0.0,-0.01,0.0
1777733348.4743752,-10.14,-0.21,-0.69,-0.044,-0.128,9.81,-0.01,-0.01,0.0
1777733348.4844084,-10.14,-0.21,-0.68,-0.046,-0.121,9.81,0.0,0.0,0.0
1777733348.494394,-10.12,-0.21,-0.68,-0.035,-0.113,9.81,0.0,0.0,-0.01
1777733348.5044146,-10.12,-0.21,-0.68,-0.029,-0.117,9.81,0.0,-0.01,-0.01
1777733348.5144057,-10.12,-0.21,-0.68,-0.038,-0.139,9.81,0.0,0.0,-0.01
1777733348.5243974,-10.12,-0.21,-0.68,-0.042,-0.151,9.81,0.0,0.0,-0.01
1777733348.5344105,-10.13,-0.21,-0.69,-0.037,-0.132,9.81,-0.01,-0.01,0.0
1777733348.5444233,-10.14,-0.21,-0.68,-0.041,-0.103,9.81,-0.01,-0.01,0.0
1777733348.554394,-10.14,-0.21,-0.68,-0.042,-0.096,9.81,0.0,-0.01,0.0
1777733348.5643878,-10.13,-0.21,-0.68,-0.047,-0.09,9.81,-0.01,-0.01,-0.01
1777733348.574399,-10.12,-0.21,-0.68,-0.05,-0.099,9.81,-0.01,0.0,-0.01
1777733348.5844085,-10.12,-0.21,-0.68,-0.046,-0.129,9.81,-0.01,0.0,-0.01
1777733348.5944211,-10.12,-0.21,-0.69,-0.053,-0.159,9.81,0.0,-0.01,-0.01
1777733348.6043994,-10.12,-0.21,-0.69,-0.044,-0.157,9.81,0.0,0.0,0.0
1777733348.6144083,-10.13,-0.21,-0.69,-0.046,-0.139,9.81,-0.01,-0.01,0.0
1777733348.62441,-10.13,-0.21,-0.69,-0.034,-0.119,9.81,0.0,-0.01,0.0
1777733348.6344252,-10.13,-0.21,-0.68,-0.036,-0.111,9.81,0.0,0.0,0.0
1777733348.644444,-10.12,-0.21,-0.68,-0.035,-0.117,9.81,0.0,0.0,-0.01
1777733348.6544309,-10.12,-0.21,-0.68,-0.044,-0.127,9.81,0.0,0.0,-0.01
1777733348.663554,-10.13,-0.21,-0.69,-0.042,-0.127,9.81,0.0,-0.01,0.0
1777733348.6735775,-10.14,-0.21,-0.69,-0.031,-0.12,9.81,-0.01,-0.01,0.0
1777733348.6844757,-10.14,-0.21,-0.68,-0.036,-0.103,9.81,0.0,-0.01,0.0
1777733348.6944425,-10.14,-0.21,-0.68,-0.034,-0.086,9.81,0.0,0.0,0.0
1777733348.7044373,-10.13,-0.21,-0.68,-0.041,-0.093,9.81,-0.01,0.0,-0.01
1777733348.7144444,-10.12,-0.21,-0.68,-0.035,-0.109,9.81,-0.01,0.0,-0.01
1777733348.724032,-10.12,-0.21,-0.68,-0.038,-0.141,9.81,0.0,0.0,-0.01
1777733348.734053,-10.13,-0.21,-0.69,-0.042,-0.137,9.81,0.0,-0.01,-0.01
1777733348.7440178,-10.13,-0.21,-0.69,-0.036,-0.127,9.81,-0.01,0.0,0.0
1777733348.7544444,-10.13,-0.21,-0.68,-0.043,-0.128,9.81,-0.01,-0.01,0.0
1777733348.763907,-10.13,-0.21,-0.68,-0.032,-0.101,9.81,0.0,0.0,0.0
1777733348.7735882,-10.13,-0.21,-0.68,-0.032,-0.104,9.81,-0.01,-0.01,-0.01
1777733348.7844472,-10.12,-0.21,-0.68,-0.036,-0.107,9.81,-0.01,-0.01,-0.01
1777733348.7935727,-10.12,-0.21,-0.68,-0.037,-0.122,9.81,0.0,0.0,-0.01
1777733348.8035808,-10.12,-0.21,-0.69,-0.032,-0.121,9.81,-0.01,0.0,-0.01
1777733348.8135529,-10.13,-0.2,-0.69,-0.04,-0.137,9.81,-0.01,0.0,0.0
1777733348.8235667,-10.14,-0.2,-0.69,-0.048,-0.133,9.81,0.0,-0.01,0.0
1777733348.8336034,-10.14,-0.2,-0.69,-0.047,-0.125,9.81,0.0,-0.01,0.0
1777733348.8441496,-10.14,-0.2,-0.68,-0.042,-0.097,9.81,-0.01,0.0,0.0
1777733348.85358,-10.14,-0.2,-0.68,-0.05,-0.095,9.81,0.0,-0.01,-0.01
1777733348.863592,-10.12,-0.21,-0.68,-0.048,-0.083,9.81,0.0,0.0,-0.01
1777733348.873641,-10.12,-0.21,-0.68,-0.051,-0.11,9.81,0.0,0.0,-0.01
1777733348.883583,-10.12,-0.21,-0.68,-0.048,-0.119,9.81,-0.01,0.0,-0.01
1777733348.8935606,-10.12,-0.21,-0.69,-0.054,-0.131,9.81,-0.01,0.0,-0.01
1777733348.903606,-10.13,-0.21,-0.68,-0.051,-0.14,9.81,-0.01,-0.01,0.0
1777733348.9135582,-10.14,-0.21,-0.69,-0.05,-0.122,9.81,0.0,-0.01,0.0
1777733348.9235873,-10.14,-0.21,-0.68,-0.053,-0.103,9.81,-0.01,-0.01,0.0
1777733348.9336042,-10.14,-0.21,-0.68,-0.044,-0.092,9.81,-0.01,-0.01,0.0
1777733348.943595,-10.13,-0.21,-0.68,-0.046,-0.103,9.81,0.0,0.0,-0.01
1777733348.9536088,-10.12,-0.21,-0.68,-0.04,-0.108,9.81,0.0,0.0,-0.01
1777733348.9635928,-10.12,-0.21,-0.68,-0.048,-0.144,9.81,0.0,0.0,-0.01
1777733348.9740682,-10.12,-0.22,-0.69,-0.054,-0.148,9.81,0.0,-0.01,-0.01
1777733348.9836671,-10.13,-0.21,-0.69,-0.049,-0.146,9.81,0.0,-0.01,0.0
1777733348.993589,-10.13,-0.21,-0.69,-0.047,-0.115,9.81,-0.01,-0.01,0.0
1777733349.0035875,-10.13,-0.21,-0.68,-0.037,-0.102,9.81,0.0,-0.01,0.0
1777733349.013618,-10.13,-0.21,-0.68,-0.04,-0.099,9.81,0.0,0.0,0.0
1777733349.0235775,-10.12,-0.21,-0.68,-0.029,-0.108,9.81,-0.01,-0.01,-0.01
1777733349.0335696,-10.12,-0.21,-0.68,-0.035,-0.113,9.81,-0.01,0.0,-0.01
1777733349.0435846,-10.12,-0.21,-0.68,-0.041,-0.138,9.81,0.0,-0.01,-0.01
1777733349.0535975,-10.13,-0.21,-0.69,-0.032,-0.123,9.81,-0.01,-0.01,0.0
1777733349.0636153,-10.13,-0.2,-0.69,-0.032,-0.117,9.81,-0.01,0.0,0.0
1777733349.0736203,-10.13,-0.21,-0.69,-0.028,-0.116,9.81,0.0,-0.01,0.0
1777733349.083626,-10.12,-0.2,-0.69,-0.022,-0.117,9.81,0.0,0.0,-0.01
1777733349.093595,-10.12,-0.2,-0.69,-0.028,-0.121,9.81,0.0,0.0,-0.01
1777733349.1035986,-10.12,-0.2,-0.69,-0.022,-0.122,9.81,0.0,0.0,-0.01
1777733349.1136413,-10.12,-0.2,-0.68,-0.037,-0.114,9.81,0.0,0.0,-0.01
1777733349.1236334,-10.12,-0.2,-0.69,-0.043,-0.107,9.81,0.0,-0.01,-0.01
1777733349.133624,-10.12,-0.2,-0.68,-0.038,-0.121,9.81,-0.01,0.0,0.0
1777733349.1443598,-10.12,-0.2,-0.69,-0.05,-0.122,9.81,0.0,-0.01,0.0
1777733349.153652,-10.13,-0.2,-0.69,-0.031,-0.111,9.81,-0.01,0.0,0.0
1777733349.1636648,-10.13,-0.2,-0.69,-0.035,-0.099,9.81,-0.01,-0.01,0.0
1777733349.1737702,-10.13,-0.2,-0.68,-0.03,-0.114,9.81,0.0,-0.01,0.0
1777733349.183643,-10.13,-0.19,-0.68,-0.025,-0.109,9.81,0.0,0.0,0.0
1777733349.1937826,-10.13,-0.2,-0.68,-0.029,-0.109,9.81,-0.01,-0.01,-0.01
1777733349.2036607,-10.12,-0.2,-0.68,-0.031,-0.114,9.81,0.0,0.0,-0.01
1777733349.2138112,-10.11,-0.2,-0.68,-0.035,-0.123,9.81,0.0,0.0,-0.01
1777733349.2236238,-10.11,-0.2,-0.69,-0.043,-0.128,9.81,-0.01,0.0,-0.01
1777733349.2336462,-10.11,-0.2,-0.68,-0.041,-0.135,9.81,-0.01,0.0,-0.01
1777733349.2438946,-10.12,-0.2,-0.69,-0.055,-0.135,9.81,0.0,-0.01,0.0
1777733349.253751,-10.12,-0.2,-0.69,-0.041,-0.133,9.81,-0.01,-0.01,0.0
1777733349.2636385,-10.12,-0.2,-0.69,-0.048,-0.129,9.81,-0.01,-0.01,0.0
1777733349.2738712,-10.13,-0.2,-0.69,-0.04,-0.119,9.81,0.0,-0.01,0.0
1777733349.2836611,-10.12,-0.19,-0.69,-0.032,-0.117,9.81,-0.01,0.0,0.0
1777733349.293636,-10.12,-0.2,-0.68,-0.029,-0.131,9.81,-0.01,-0.01,-0.01
1777733349.3036916,-10.13,-0.2,-0.69,-0.036,-0.12,9.81,0.0,0.0,-0.01
1777733349.3136592,-10.13,-0.2,-0.69,-0.048,-0.133,9.81,0.0,-0.01,0.0
1777733349.3241022,-10.13,-0.2,-0.69,-0.04,-0.109,9.81,-0.01,-0.01,0.0
1777733349.3336842,-10.13,-0.2,-0.68,-0.046,-0.101,9.81,-0.01,-0.01,0.0
1777733349.343662,-10.13,-0.2,-0.68,-0.046,-0.099,9.81,0.0,-0.01,-0.01
1777733349.3536599,-10.12,-0.2,-0.68,-0.04,-0.099,9.81,-0.01,0.0,-0.01
1777733349.3637476,-10.11,-0.2,-0.68,-0.044,-0.11,9.81,0.0,0.0,-0.01
1777733349.3736632,-10.12,-0.21,-0.68,-0.04,-0.131,9.81,0.0,0.0,-0.01
1777733349.3838089,-10.12,-0.21,-0.68,-0.048,-0.151,9.81,-0.01,0.0,-0.01
1777733349.394473,-10.12,-0.21,-0.69,-0.049,-0.146,9.81,-0.01,-0.01,0.0
1777733349.4036765,-10.13,-0.2,-0.69,-0.04,-0.12,9.81,-0.01,-0.01,0.0
1777733349.4136577,-10.13,-0.2,-0.69,-0.049,-0.121,9.81,0.0,-0.01,0.0
1777733349.422798,-10.13,-0.2,-0.69,-0.043,-0.111,9.81,0.0,-0.01,0.0
1777733349.4327893,-10.12,-0.2,-0.68,-0.041,-0.104,9.81,-0.01,0.0,-0.01
1777733349.4428296,-10.11,-0.2,-0.68,-0.041,-0.116,9.81,0.0,-0.01,-0.01
1777733349.4527273,-10.11,-0.21,-0.68,-0.043,-0.131,9.81,0.0,0.0,-0.01
1777733349.4636896,-10.11,-0.21,-0.69,-0.05,-0.148,9.81,0.0,0.0,-0.01
1777733349.4736583,-10.11,-0.21,-0.69,-0.041,-0.152,9.81,0.0,0.0,-0.01
1777733349.4829283,-10.12,-0.21,-0.69,-0.05,-0.15,9.81,0.0,-0.01,0.0
1777733349.4928453,-10.13,-0.21,-0.69,-0.053,-0.131,9.81,0.0,-0.01,0.0
1777733349.5027711,-10.13,-0.21,-0.69,-0.044,-0.099,9.81,-0.01,-0.01,0.0
1777733349.5127556,-10.13,-0.21,-0.68,-0.047,-0.09,9.81,-0.01,-0.01,0.0
1777733349.523661,-10.12,-0.21,-0.68,-0.048,-0.091,9.81,0.0,0.0,-0.01
1777733349.5329933,-10.11,-0.21,-0.68,-0.032,-0.099,9.81,-0.01,0.0,-0.01
1777733349.542803,-10.1,-0.21,-0.68,-0.037,-0.117,9.809,0.0,-0.01,-0.01
1777733349.552796,-10.1,-0.21,-0.68,-0.034,-0.14,9.809,0.0,0.0,-0.01
1777733349.562786,-10.11,-0.21,-0.69,-0.037,-0.148,9.81,0.0,0.0,-0.01
1777733349.5727952,-10.12,-0.21,-0.69,-0.035,-0.145,9.81,-0.01,0.0,0.0
1777733349.583052,-10.12,-0.21,-0.69,-0.044,-0.128,9.81,0.0,-0.01,0.0
1777733349.592788,-10.12,-0.21,-0.69,-0.048,-0.117,9.81,0.0,-0.01,0.0
1777733349.6027944,-10.12,-0.21,-0.69,-0.041,-0.092,9.81,-0.01,-0.01,0.0
1777733349.6127899,-10.12,-0.21,-0.68,-0.044,-0.105,9.81,0.0,-0.01,-0.01
1777733349.6227944,-10.11,-0.21,-0.68,-0.046,-0.103,9.81,0.0,0.0,-0.01
1777733349.6328049,-10.11,-0.21,-0.69,-0.054,-0.128,9.809,-0.01,0.0,-0.01
1777733349.6427999,-10.11,-0.21,-0.69,-0.053,-0.143,9.809,0.0,0.0,-0.01
1777733349.6527915,-10.11,-0.21,-0.69,-0.053,-0.143,9.81,0.0,-0.01,0.0
1777733349.6628196,-10.12,-0.21,-0.7,-0.056,-0.134,9.81,0.0,-0.01,0.0
1777733349.6728098,-10.12,-0.21,-0.69,-0.049,-0.117,9.81,-0.01,0.0,0.0
1777733349.6828475,-10.12,-0.21,-0.68,-0.048,-0.103,9.81,0.0,-0.01,0.0
1777733349.6928153,-10.12,-0.21,-0.69,-0.036,-0.083,9.81,-0.01,-0.01,-0.01
1777733349.7028303,-10.11,-0.21,-0.68,-0.037,-0.089,9.81,-0.01,0.0,-0.01
1777733349.7128081,-10.1,-0.21,-0.69,-0.044,-0.104,9.809,0.0,0.0,-0.01
1777733349.7228103,-10.11,-0.21,-0.69,-0.041,-0.133,9.81,-0.01,0.0,-0.01
1777733349.7328095,-10.12,-0.21,-0.69,-0.056,-0.148,9.81,0.0,-0.01,0.0
1777733349.7428014,-10.12,-0.21,-0.7,-0.048,-0.138,9.81,0.0,-0.01,0.0
1777733349.7528098,-10.12,-0.21,-0.69,-0.042,-0.126,9.81,-0.01,-0.01,0.0
1777733349.762855,-10.12,-0.22,-0.69,-0.043,-0.113,9.81,0.0,-0.01,0.0
1777733349.772834,-10.12,-0.21,-0.68,-0.034,-0.104,9.81,0.0,0.0,-0.01
1777733349.782827,-10.11,-0.21,-0.68,-0.035,-0.117,9.81,0.0,-0.01,-0.01
1777733349.7928367,-10.1,-0.22,-0.69,-0.038,-0.123,9.809,0.0,0.0,-0.01
1777733349.803125,-10.1,-0.22,-0.69,-0.04,-0.134,9.809,-0.01,0.0,-0.01
1777733349.812836,-10.11,-0.22,-0.69,-0.049,-0.139,9.81,0.0,-0.01,-0.01
1777733349.8228245,-10.12,-0.22,-0.69,-0.044,-0.111,9.81,-0.01,-0.01,0.0
1777733349.8328476,-10.12,-0.22,-0.69,-0.04,-0.09,9.81,-0.01,-0.01,0.0
1777733349.8428538,-10.12,-0.21,-0.68,-0.032,-0.075,9.81,-0.01,-0.01,0.0
1777733349.852957,-10.11,-0.21,-0.68,-0.03,-0.071,9.81,-0.01,-0.01,-0.01
1777733349.8628151,-10.1,-0.21,-0.68,-0.041,-0.085,9.809,-0.01,0.0,-0.01
1777733349.8728669,-10.1,-0.21,-0.68,-0.05,-0.139,9.809,0.0,0.0,-0.01
1777733349.882976,-10.1,-0.22,-0.69,-0.054,-0.162,9.809,0.0,-0.01,-0.01
1777733349.892997,-10.11,-0.22,-0.7,-0.056,-0.177,9.81,-0.01,-0.01,0.0
1777733349.9028456,-10.12,-0.22,-0.7,-0.047,-0.162,9.81,0.0,-0.01,0.0
1777733349.9132428,-10.12,-0.22,-0.7,-0.036,-0.128,9.81,-0.01,-0.01,0.0
1777733349.9228983,-10.12,-0.22,-0.69,-0.031,-0.099,9.81,0.0,-0.01,0.0
1777733349.93284,-10.12,-0.21,-0.68,-0.026,-0.086,9.81,0.0,0.0,-0.01
1777733349.9431615,-10.11,-0.21,-0.68,-0.029,-0.096,9.81,0.0,0.0,-0.01
1777733349.952872,-10.1,-0.21,-0.68,-0.029,-0.107,9.809,0.0,0.0,-0.01
1777733349.9630501,-10.1,-0.21,-0.68,-0.037,-0.129,9.809,-0.01,0.0,-0.01
1777733349.9728827,-10.11,-0.22,-0.69,-0.048,-0.141,9.81,0.0,0.0,0.0
1777733349.9828408,-10.12,-0.22,-0.69,-0.059,-0.138,9.81,-0.01,-0.01,0.0
1777733349.992864,-10.12,-0.22,-0.69,-0.054,-0.119,9.81,-0.01,-0.01,0.0
1777733350.003025,-10.12,-0.22,-0.69,-0.049,-0.11,9.81,-0.01,-0.01,0.0
1777733350.0128443,-10.12,-0.22,-0.69,-0.049,-0.108,9.81,0.0,0.0,0.0
1777733350.0228424,-10.12,-0.22,-0.69,-0.035,-0.102,9.81,-0.01,0.0,-0.01
1777733350.0328417,-10.11,-0.22,-0.69,-0.037,-0.116,9.81,0.0,0.0,-0.01
1777733350.042839,-10.11,-0.22,-0.69,-0.032,-0.128,9.81,0.0,-0.01,-0.01
1777733350.052841,-10.11,-0.22,-0.69,-0.026,-0.114,9.81,-0.01,0.0,-0.01
1777733350.0629008,-10.11,-0.22,-0.69,-0.036,-0.133,9.81,0.0,0.0,0.0
1777733350.072897,-10.12,-0.22,-0.69,-0.036,-0.137,9.81,0.0,-0.01,0.0
1777733350.0828803,-10.12,-0.22,-0.69,-0.04,-0.121,9.81,0.0,-0.01,0.0
1777733350.092865,-10.12,-0.21,-0.68,-0.04,-0.099,9.81,0.0,-0.01,0.0
1777733350.102902,-10.12,-0.21,-0.68,-0.032,-0.093,9.81,0.0,0.0,-0.01
1777733350.1128662,-10.11,-0.21,-0.68,-0.037,-0.093,9.81,0.0,0.0,-0.01
1777733350.122844,-10.11,-0.21,-0.68,-0.023,-0.108,9.81,-0.01,-0.01,-0.01
1777733350.132837,-10.11,-0.21,-0.68,-0.038,-0.12,9.809,0.0,0.0,-0.01
1777733350.1428885,-10.11,-0.22,-0.69,-0.037,-0.129,9.81,0.0,0.0,-0.01
1777733350.1528885,-10.11,-0.22,-0.69,-0.035,-0.128,9.81,-0.01,-0.01,0.0
1777733350.163556,-10.12,-0.22,-0.69,-0.044,-0.127,9.81,0.0,-0.01,0.0
1777733350.1728692,-10.12,-0.22,-0.69,-0.031,-0.111,9.81,-0.01,0.0,0.0
1777733350.1829104,-10.12,-0.22,-0.69,-0.04,-0.113,9.81,-0.01,-0.01,-0.01
1777733350.1929276,-10.11,-0.22,-0.69,-0.042,-0.111,9.81,-0.01,0.0,-0.01
1777733350.2289755,-10.1,-0.22,-0.69,-0.049,-0.126,9.809,0.0,0.0,-0.01
1777733350.2305992,-10.1,-0.22,-0.69,-0.054,-0.135,9.809,-0.01,-0.01,-0.01
1777733350.2321475,-10.11,-0.22,-0.69,-0.054,-0.12,9.81,-0.01,0.0,0.0
1777733350.2335315,-10.12,-0.22,-0.69,-0.043,-0.103,9.81,0.0,-0.01,0.0
1777733350.242105,-10.12,-0.22,-0.69,-0.036,-0.101,9.81,-0.01,-0.01,0.0
1777733350.284458,-10.12,-0.21,-0.68,-0.026,-0.078,9.81,-0.01,0.0,0.0
1777733350.2980173,-10.11,-0.21,-0.68,-0.032,-0.11,9.81,0.0,-0.01,-0.01
1777733350.310024,-10.1,-0.21,-0.68,-0.03,-0.105,9.809,-0.01,-0.01,-0.01
1777733350.3117194,-10.1,-0.22,-0.69,-0.041,-0.127,9.809,0.0,0.0,-0.01
1777733350.3146472,-10.1,-0.22,-0.69,-0.036,-0.129,9.809,-0.01,-0.01,-0.01
1777733350.3158145,-10.1,-0.22,-0.69,-0.043,-0.152,9.809,0.0,0.0,-0.01
1777733350.316938,-10.11,-0.22,-0.69,-0.046,-0.158,9.809,0.0,-0.01,0.0
1777733350.3223276,-10.11,-0.22,-0.7,-0.034,-0.132,9.81,-0.01,-0.01,0.0
1777733350.332472,-10.11,-0.22,-0.69,-0.044,-0.125,9.81,-0.01,0.0,0.0
1777733350.342058,-10.11,-0.22,-0.69,-0.04,-0.099,9.81,0.0,0.0,0.0
1777733350.352031,-10.11,-0.21,-0.68,-0.035,-0.101,9.81,0.0,0.0,-0.01
1777733350.3621018,-10.1,-0.22,-0.69,-0.041,-0.107,9.809,0.0,0.0,-0.01
1777733350.372044,-10.1,-0.22,-0.69,-0.032,-0.123,9.809,-0.01,0.0,-0.01
1777733350.3820534,-10.1,-0.22,-0.69,-0.042,-0.14,9.809,0.0,-0.01,-0.01
1777733350.392375,-10.11,-0.22,-0.69,-0.041,-0.115,9.81,0.0,-0.01,0.0
1777733350.402077,-10.11,-0.22,-0.69,-0.042,-0.11,9.81,-0.01,0.0,0.0
1777733350.4120753,-10.11,-0.22,-0.69,-0.046,-0.103,9.81,0.0,-0.01,0.0
1777733350.422024,-10.11,-0.22,-0.69,-0.034,-0.107,9.81,-0.01,0.0,-0.01
1777733350.4320896,-10.1,-0.22,-0.69,-0.036,-0.114,9.809,-0.01,0.0,-0.01
1777733350.442134,-10.1,-0.22,-0.69,-0.036,-0.126,9.809,0.0,-0.01,-0.01
1777733350.4520526,-10.1,-0.22,-0.69,-0.038,-0.127,9.809,0.0,0.0,0.0
1777733350.4621258,-10.1,-0.22,-0.69,-0.047,-0.116,9.809,-0.01,-0.01,0.0
1777733350.472058,-10.1,-0.22,-0.69,-0.041,-0.12,9.809,-0.01,0.0,-0.01
1777733350.482044,-10.1,-0.22,-0.69,-0.056,-0.134,9.809,0.0,-0.01,-0.01
1777733350.4920325,-10.1,-0.22,-0.69,-0.05,-0.141,9.809,0.0,-0.01,-0.01
1777733350.502039,-10.11,-0.22,-0.69,-0.041,-0.133,9.81,-0.01,0.0,0.0
1777733350.5120485,-10.11,-0.22,-0.69,-0.048,-0.117,9.81,0.0,-0.01,0.0
1777733350.522063,-10.11,-0.22,-0.69,-0.03,-0.096,9.81,0.0,0.0,0.0
1777733350.5320575,-10.11,-0.21,-0.68,-0.04,-0.099,9.81,0.0,-0.01,-0.01
1777733350.5420873,-10.1,-0.22,-0.69,-0.035,-0.097,9.809,-0.01,0.0,-0.01
1777733350.5520885,-10.1,-0.22,-0.69,-0.044,-0.117,9.809,-0.01,0.0,-0.01
1777733350.5620673,-10.1,-0.22,-0.69,-0.053,-0.134,9.809,0.0,-0.01,-0.01
1777733350.5722842,-10.11,-0.22,-0.7,-0.051,-0.132,9.81,-0.01,0.0,0.0
1777733350.5821054,-10.12,-0.22,-0.7,-0.051,-0.125,9.81,-0.01,-0.01,0.0
1777733350.5920584,-10.12,-0.22,-0.7,-0.046,-0.108,9.81,-0.01,-0.01,0.0
1777733350.6020696,-10.12,-0.22,-0.69,-0.042,-0.104,9.81,-0.01,0.0,0.0
1777733350.6120498,-10.11,-0.22,-0.69,-0.037,-0.092,9.81,0.0,0.0,-0.01
1777733350.6220403,-10.1,-0.22,-0.69,-0.037,-0.103,9.809,0.0,0.0,-0.01
1777733350.6326895,-10.1,-0.22,-0.69,-0.041,-0.111,9.809,0.0,0.0,-0.01
1777733350.6424768,-10.1,-0.22,-0.69,-0.046,-0.121,9.809,-0.01,0.0,-0.01
1777733350.6520727,-10.1,-0.22,-0.69,-0.044,-0.128,9.809,0.0,-0.01,0.0
1777733350.6620471,-10.11,-0.22,-0.7,-0.05,-0.133,9.81,0.0,-0.01,0.0
1777733350.672051,-10.11,-0.22,-0.69,-0.035,-0.109,9.81,-0.01,0.0,0.0
1777733350.6820714,-10.11,-0.22,-0.69,-0.04,-0.101,9.81,0.0,-0.01,0.0
1777733350.6920538,-10.11,-0.22,-0.69,-0.035,-0.102,9.81,0.0,0.0,-0.01
1777733350.7020607,-10.1,-0.22,-0.69,-0.031,-0.103,9.809,-0.01,0.0,-0.01
1777733350.7120752,-10.1,-0.22,-0.69,-0.03,-0.114,9.809,-0.01,-0.01,-0.01
1777733350.722066,-10.1,-0.22,-0.69,-0.03,-0.117,9.809,0.0,0.0,-0.01
1777733350.7320726,-10.11,-0.22,-0.69,-0.035,-0.126,9.81,0.0,-0.01,0.0
1777733350.7421129,-10.11,-0.22,-0.69,-0.034,-0.115,9.81,-0.01,-0.01,0.0
1777733350.752068,-10.11,-0.22,-0.69,-0.042,-0.111,9.81,-0.01,0.0,0.0
1777733350.762073,-10.11,-0.22,-0.69,-0.042,-0.111,9.81,0.0,-0.01,-0.01
1777733350.7720726,-10.1,-0.22,-0.69,-0.047,-0.119,9.809,-0.01,0.0,-0.01
1777733350.7820678,-10.1,-0.22,-0.69,-0.043,-0.128,9.809,-0.01,-0.01,-0.01
1777733350.7920535,-10.1,-0.22,-0.69,-0.044,-0.125,9.809,0.0,0.0,-0.01
1777733350.8020654,-10.1,-0.22,-0.69,-0.044,-0.141,9.809,0.0,-0.01,-0.01
1777733350.812131,-10.1,-0.22,-0.69,-0.044,-0.144,9.809,-0.01,-0.01,0.0
1777733350.822162,-10.11,-0.22,-0.7,-0.042,-0.121,9.81,0.0,0.0,0.0
1777733350.8320973,-10.12,-0.22,-0.69,-0.041,-0.117,9.81,-0.01,-0.01,0.0
1777733350.8421242,-10.12,-0.22,-0.69,-0.043,-0.093,9.81,0.0,-0.01,0.0
1777733350.8521068,-10.12,-0.22,-0.68,-0.032,-0.08,9.81,0.0,0.0,0.0
1777733350.8620982,-10.11,-0.22,-0.68,-0.034,-0.087,9.81,0.0,-0.01,-0.01
1777733350.8721714,-10.1,-0.22,-0.68,-0.034,-0.104,9.809,0.0,0.0,-0.01
1777733350.882175,-10.1,-0.22,-0.68,-0.038,-0.12,9.809,0.0,0.0,-0.01
1777733350.8920932,-10.1,-0.22,-0.68,-0.035,-0.125,9.809,-0.01,0.0,-0.01
1777733350.9023044,-10.1,-0.22,-0.69,-0.04,-0.138,9.809,-0.01,0.0,0.0
1777733350.9121656,-10.11,-0.22,-0.69,-0.042,-0.123,9.81,0.0,-0.01,0.0
1777733350.922171,-10.12,-0.22,-0.69,-0.04,-0.114,9.81,-0.01,-0.01,0.0
1777733350.932146,-10.12,-0.22,-0.69,-0.04,-0.11,9.81,-0.01,-0.01,0.0
1777733350.9422984,-10.12,-0.22,-0.69,-0.047,-0.098,9.81,0.0,-0.01,-0.01
1777733350.9521856,-10.11,-0.22,-0.69,-0.041,-0.109,9.81,-0.01,0.0,-0.01
1777733350.9621491,-10.1,-0.22,-0.69,-0.037,-0.111,9.809,-0.01,0.0,-0.01
1777733350.9712207,-10.1,-0.22,-0.69,-0.042,-0.134,9.809,0.0,-0.01,-0.01
1777733350.9812126,-10.1,-0.22,-0.69,-0.046,-0.146,9.809,0.0,-0.01,0.0
1777733350.9921305,-10.11,-0.22,-0.69,-0.035,-0.131,9.81,-0.01,-0.01,0.0
1777733351.002115,-10.11,-0.22,-0.69,-0.034,-0.11,9.81,0.0,0.0,0.0
1777733351.0112438,-10.11,-0.22,-0.68,-0.038,-0.104,9.81,0.0,-0.01,0.0
1777733351.0213125,-10.1,-0.22,-0.68,-0.037,-0.102,9.809,0.0,0.0,-0.01
1777733351.0312176,-10.1,-0.22,-0.68,-0.032,-0.104,9.809,0.0,0.0,-0.01
1777733351.042123,-10.1,-0.22,-0.69,-0.03,-0.108,9.809,-0.01,0.0,-0.01
1777733351.0512354,-10.1,-0.22,-0.69,-0.049,-0.14,9.809,-0.01,0.0,0.0
1777733351.0612411,-10.11,-0.22,-0.69,-0.053,-0.127,9.81,0.0,-0.01,0.0
1777733351.0712366,-10.12,-0.22,-0.69,-0.05,-0.135,9.81,-0.01,-0.01,0.0
1777733351.0812235,-10.12,-0.22,-0.69,-0.046,-0.12,9.81,-0.01,-0.01,0.0
1777733351.0912874,-10.12,-0.22,-0.69,-0.038,-0.103,9.81,0.0,0.0,0.0
1777733351.1012318,-10.11,-0.22,-0.69,-0.034,-0.101,9.81,0.0,0.0,-0.01
1777733351.111241,-10.1,-0.22,-0.69,-0.032,-0.113,9.809,0.0,0.0,-0.01
1777733351.121231,-10.09,-0.22,-0.68,-0.04,-0.123,9.809,0.0,0.0,-0.01
1777733351.1312716,-10.09,-0.22,-0.69,-0.043,-0.128,9.809,0.0,0.0,-0.01
1777733351.141242,-10.1,-0.22,-0.69,-0.038,-0.116,9.809,-0.01,0.0,0.0
1777733351.151232,-10.11,-0.22,-0.69,-0.047,-0.129,9.81,0.0,-0.01,0.0
1777733351.161266,-10.12,-0.22,-0.69,-0.032,-0.108,9.81,0.0,-0.01,0.0
1777733351.1712582,-10.12,-0.22,-0.69,-0.028,-0.092,9.81,-0.01,0.0,0.0
1777733351.1812575,-10.12,-0.22,-0.68,-0.026,-0.086,9.81,-0.01,-0.01,0.0
1777733351.1913598,-10.11,-0.22,-0.68,-0.031,-0.096,9.81,0.0,0.0,-0.01
1777733351.2012422,-10.1,-0.22,-0.68,-0.041,-0.114,9.809,0.0,0.0,-0.01
1777733351.2112515,-10.09,-0.22,-0.69,-0.047,-0.126,9.809,0.0,0.0,-0.01
1777733351.2212687,-10.1,-0.22,-0.69,-0.038,-0.152,9.809,0.0,0.0,-0.01
1777733351.2312763,-10.11,-0.22,-0.7,-0.051,-0.153,9.81,0.0,-0.01,0.0
1777733351.2412746,-10.12,-0.22,-0.7,-0.041,-0.131,9.81,-0.01,-0.01,0.0
1777733351.2512834,-10.12,-0.22,-0.69,-0.038,-0.103,9.81,0.0,-0.01,0.0
1777733351.261257,-10.12,-0.22,-0.68,-0.032,-0.084,9.81,0.0,-0.01,0.0
1777733351.2712595,-10.12,-0.22,-0.68,-0.026,-0.072,9.81,0.0,0.0,-0.01
1777733351.2812765,-10.1,-0.22,-0.68,-0.028,-0.101,9.809,-0.01,-0.01,-0.01
1777733351.291262,-10.09,-0.22,-0.68,-0.047,-0.109,9.809,0.0,0.0,-0.01
1777733351.3012996,-10.09,-0.22,-0.69,-0.049,-0.145,9.809,0.0,0.0,-0.01
1777733351.3113053,-10.1,-0.23,-0.7,-0.053,-0.145,9.809,-0.01,-0.01,0.0
1777733351.3212879,-10.11,-0.22,-0.69,-0.051,-0.144,9.81,-0.01,0.0,0.0
1777733351.3312855,-10.12,-0.22,-0.7,-0.04,-0.113,9.81,0.0,-0.01,0.0
1777733351.3416343,-10.12,-0.22,-0.69,-0.037,-0.104,9.81,-0.01,-0.01,0.0
1777733351.3512871,-10.11,-0.22,-0.69,-0.042,-0.092,9.81,-0.01,0.0,-0.01
1777733351.361273,-10.1,-0.22,-0.68,-0.038,-0.101,9.809,0.0,0.0,-0.01
1777733351.3714573,-10.09,-0.22,-0.68,-0.05,-0.114,9.809,0.0,0.0,-0.01
1777733351.3812783,-10.09,-0.22,-0.69,-0.048,-0.133,9.809,0.0,-0.01,-0.01
1777733351.3913057,-10.1,-0.22,-0.69,-0.048,-0.133,9.809,-0.01,-0.01,0.0
1777733351.401304,-10.12,-0.22,-0.69,-0.047,-0.116,9.81,0.0,-0.01,0.0
1777733351.4112847,-10.12,-0.22,-0.69,-0.03,-0.093,9.81,-0.01,-0.01,0.0
1777733351.4213302,-10.12,-0.22,-0.68,-0.031,-0.084,9.81,-0.01,-0.01,0.0
1777733351.4313152,-10.11,-0.22,-0.68,-0.029,-0.092,9.81,0.0,0.0,-0.01
1777733351.4413736,-10.1,-0.22,-0.68,-0.024,-0.108,9.809,0.0,0.0,-0.01
1777733351.4512963,-10.1,-0.22,-0.68,-0.03,-0.127,9.809,-0.01,0.0,-0.01
1777733351.4613092,-10.1,-0.22,-0.69,-0.047,-0.151,9.809,-0.01,0.0,-0.01
1777733351.4712968,-10.11,-0.22,-0.69,-0.053,-0.143,9.81,0.0,-0.01,0.0
1777733351.4812953,-10.11,-0.22,-0.69,-0.047,-0.114,9.81,-0.01,-0.01,0.0
1777733351.4913042,-10.12,-0.22,-0.68,-0.054,-0.108,9.81,-0.01,-0.01,0.0
1777733351.501299,-10.11,-0.22,-0.68,-0.043,-0.098,9.81,0.0,0.0,0.0
1777733351.5112917,-10.11,-0.22,-0.68,-0.044,-0.099,9.81,-0.01,-0.01,-0.01
1777733351.5213017,-10.11,-0.22,-0.68,-0.03,-0.108,9.81,0.0,-0.01,-0.01
1777733351.5313098,-10.11,-0.22,-0.68,-0.029,-0.11,9.809,0.0,-0.01,-0.01
1777733351.5413084,-10.1,-0.21,-0.68,-0.031,-0.12,9.809,0.0,-0.01,-0.01
1777733351.5513222,-10.1,-0.21,-0.68,-0.026,-0.101,9.809,-0.01,0.0,-0.01
1777733351.5613136,-10.1,-0.21,-0.68,-0.03,-0.111,9.809,0.0,0.0,-0.01
1777733351.5713382,-10.1,-0.21,-0.68,-0.034,-0.127,9.809,0.0,0.0,-0.01
1777733351.5813274,-10.1,-0.22,-0.69,-0.037,-0.12,9.809,-0.01,0.0,-0.01
1777733351.591331,-10.1,-0.22,-0.69,-0.041,-0.107,9.809,-0.01,0.0,0.0
1777733351.601321,-10.11,-0.22,-0.69,-0.038,-0.12,9.81,-0.01,-0.01,0.0
1777733351.6113758,-10.11,-0.22,-0.68,-0.043,-0.125,9.81,0.0,-0.01,0.0
1777733351.621312,-10.11,-0.22,-0.69,-0.046,-0.11,9.81,0.0,-0.01,0.0
1777733351.6313303,-10.11,-0.22,-0.68,-0.032,-0.095,9.81,-0.01,-0.01,-0.01
1777733351.6413202,-10.1,-0.22,-0.68,-0.038,-0.097,9.809,0.0,-0.01,-0.01
1777733351.6513298,-10.09,-0.22,-0.68,-0.026,-0.098,9.809,0.0,0.0,-0.01
1777733351.6613452,-10.09,-0.22,-0.68,-0.034,-0.114,9.809,0.0,0.0,-0.01
1777733351.6713693,-10.09,-0.22,-0.68,-0.029,-0.119,9.809,-0.01,0.0,-0.01
1777733351.6815286,-10.1,-0.21,-0.68,-0.035,-0.12,9.809,-0.01,0.0,0.0
1777733351.6913574,-10.11,-0.22,-0.68,-0.036,-0.121,9.81,-0.01,-0.01,0.0
1777733351.7013419,-10.12,-0.21,-0.68,-0.043,-0.12,9.81,0.0,-0.01,0.0
1777733351.7113342,-10.12,-0.22,-0.68,-0.04,-0.11,9.81,0.0,-0.01,0.0
1777733351.7213662,-10.12,-0.22,-0.68,-0.034,-0.099,9.81,-0.01,0.0,0.0
1777733351.731366,-10.11,-0.22,-0.68,-0.034,-0.104,9.81,0.0,-0.01,-0.01
1777733351.7416782,-10.1,-0.22,-0.68,-0.044,-0.107,9.809,0.0,0.0,-0.01
1777733351.7513654,-10.09,-0.22,-0.68,-0.044,-0.115,9.809,-0.01,0.0,-0.01
1777733351.7605162,-10.09,-0.22,-0.68,-0.046,-0.128,9.809,0.0,0.0,-0.01
1777733351.771376,-10.09,-0.22,-0.68,-0.041,-0.139,9.809,-0.01,0.0,0.0
1777733351.7813618,-10.1,-0.22,-0.69,-0.047,-0.132,9.809,0.0,-0.01,0.0
1777733351.7913861,-10.11,-0.22,-0.68,-0.035,-0.111,9.81,-0.01,-0.01,0.0
1777733351.8013692,-10.12,-0.21,-0.68,-0.026,-0.098,9.81,-0.01,-0.01,0.0
1777733351.8113801,-10.12,-0.21,-0.68,-0.02,-0.093,9.81,0.0,-0.01,0.0
1777733351.8205397,-10.11,-0.21,-0.68,-0.022,-0.095,9.81,0.0,0.0,-0.01
1777733351.8307738,-10.1,-0.21,-0.68,-0.028,-0.107,9.809,-0.01,0.0,-0.01
1777733351.8410382,-10.1,-0.22,-0.68,-0.036,-0.131,9.809,-0.01,0.0,-0.01
1777733351.85099,-10.1,-0.22,-0.69,-0.049,-0.16,9.809,0.0,0.0,-0.01
1777733351.8613956,-10.11,-0.22,-0.69,-0.046,-0.157,9.81,0.0,-0.01,0.0
1777733351.8705947,-10.12,-0.22,-0.69,-0.056,-0.148,9.81,0.0,-0.01,0.0
1777733351.8805857,-10.12,-0.22,-0.69,-0.049,-0.126,9.81,0.0,-0.01,0.0
1777733351.8905478,-10.12,-0.22,-0.68,-0.042,-0.089,9.81,0.0,-0.01,0.0
1777733351.9005637,-10.11,-0.22,-0.68,-0.032,-0.081,9.81,0.0,0.0,-0.01
1777733351.9108756,-10.09,-0.22,-0.68,-0.04,-0.081,9.809,-0.01,0.0,-0.01
1777733351.9205759,-10.09,-0.22,-0.68,-0.036,-0.116,9.809,-0.01,0.0,-0.01
1777733351.9305727,-10.09,-0.21,-0.68,-0.038,-0.125,9.809,0.0,-0.01,-0.01
1777733351.9405708,-10.1,-0.21,-0.68,-0.037,-0.143,9.809,-0.01,-0.01,0.0
1777733351.9505773,-10.11,-0.22,-0.69,-0.038,-0.126,9.81,-0.01,-0.01,0.0
1777733351.9605565,-10.12,-0.21,-0.68,-0.032,-0.101,9.81,-0.01,-0.01,0.0
1777733351.970594,-10.11,-0.21,-0.68,-0.041,-0.099,9.81,0.0,0.0,0.0
1777733351.980612,-10.1,-0.22,-0.68,-0.035,-0.087,9.809,-0.01,0.0,-0.01
1777733351.9905455,-10.09,-0.22,-0.68,-0.04,-0.134,9.809,0.0,0.0,-0.01
1777733352.0005713,-10.09,-0.22,-0.68,-0.047,-0.141,9.809,0.0,0.0,-0.01
1777733352.0105598,-10.1,-0.22,-0.69,-0.046,-0.156,9.809,0.0,0.0,-0.01
1777733352.0205626,-10.11,-0.22,-0.69,-0.044,-0.126,9.809,0.0,-0.01,0.0
1777733352.0305617,-10.11,-0.21,-0.68,-0.035,-0.104,9.81,0.0,-0.01,0.0
1777733352.0405395,-10.11,-0.21,-0.68,-0.03,-0.073,9.81,0.0,-0.01,0.0
1777733352.0505633,-10.1,-0.21,-0.68,-0.022,-0.073,9.809,-0.01,-0.01,-0.01
1777733352.0605469,-10.09,-0.21,-0.68,-0.03,-0.095,9.809,0.0,0.0,-0.01
1777733352.070549,-10.09,-0.21,-0.68,-0.04,-0.132,9.809,-0.01,0.0,-0.01
1777733352.0806108,-10.09,-0.22,-0.68,-0.048,-0.137,9.809,-0.01,-0.01,-0.01
1777733352.0905533,-10.1,-0.22,-0.68,-0.04,-0.14,9.809,-0.01,0.0,0.0
1777733352.1006126,-10.11,-0.21,-0.68,-0.049,-0.131,9.81,0.0,-0.01,0.0
1777733352.1106143,-10.12,-0.21,-0.68,-0.047,-0.131,9.81,-0.01,-0.01,0.0
1777733352.1205993,-10.11,-0.21,-0.68,-0.049,-0.11,9.81,-0.01,-0.01,0.0
1777733352.1306078,-10.11,-0.21,-0.68,-0.053,-0.129,9.81,0.0,-0.01,-0.01
1777733352.1409209,-10.1,-0.21,-0.68,-0.047,-0.132,9.809,0.0,0.0,-0.01
1777733352.1506114,-10.1,-0.21,-0.68,-0.049,-0.139,9.809,0.0,-0.01,-0.01
1777733352.1606123,-10.09,-0.21,-0.68,-0.043,-0.121,9.809,0.0,0.0,-0.01
1777733352.170586,-10.09,-0.21,-0.68,-0.046,-0.123,9.809,0.0,0.0,-0.01
1777733352.1805632,-10.1,-0.22,-0.68,-0.037,-0.096,9.809,-0.01,-0.01,0.0
1777733352.1905735,-10.1,-0.22,-0.68,-0.041,-0.09,9.809,-0.01,0.0,0.0
1777733352.2006059,-10.1,-0.22,-0.68,-0.043,-0.095,9.809,0.0,0.0,0.0
1777733352.2106087,-10.1,-0.22,-0.68,-0.046,-0.11,9.809,-0.01,-0.01,0.0
1777733352.220613,-10.1,-0.22,-0.68,-0.049,-0.125,9.809,-0.01,-0.01,-0.01
1777733352.2305994,-10.1,-0.22,-0.68,-0.041,-0.144,9.809,0.0,-0.01,0.0
1777733352.240583,-10.11,-0.22,-0.69,-0.044,-0.153,9.81,0.0,-0.01,0.0
1777733352.250585,-10.11,-0.22,-0.69,-0.042,-0.148,9.81,0.0,-0.01,0.0
1777733352.260589,-10.11,-0.22,-0.68,-0.03,-0.121,9.81,-0.01,-0.01,0.0
1777733352.2706268,-10.1,-0.21,-0.68,-0.032,-0.117,9.809,0.0,0.0,-0.01
1777733352.280592,-10.09,-0.22,-0.68,-0.028,-0.122,9.809,0.0,0.0,-0.01
1777733352.2905967,-10.09,-0.22,-0.68,-0.029,-0.114,9.809,0.0,0.0,-0.01
1777733352.3005567,-10.09,-0.22,-0.68,-0.037,-0.109,9.809,0.0,0.0,-0.01
1777733352.332204,-10.1,-0.21,-0.68,-0.036,-0.107,9.809,-0.01,0.0,0.0
1777733352.3337011,-10.11,-0.21,-0.68,-0.044,-0.103,9.81,0.0,-0.01,0.0
1777733352.3352265,-10.11,-0.21,-0.68,-0.035,-0.078,9.81,-0.01,-0.01,0.0
1777733352.3407402,-10.11,-0.21,-0.68,-0.032,-0.083,9.81,-0.01,-0.01,0.0
1777733352.3506153,-10.1,-0.22,-0.68,-0.04,-0.092,9.809,0.0,-0.01,-0.01
1777733352.360655,-10.09,-0.22,-0.68,-0.032,-0.127,9.809,-0.01,0.0,-0.01
1777733352.370622,-10.09,-0.22,-0.68,-0.042,-0.139,9.809,-0.01,-0.01,-0.01
1777733352.3806193,-10.09,-0.22,-0.68,-0.041,-0.16,9.809,0.0,0.0,-0.01
1777733352.390587,-10.09,-0.22,-0.69,-0.056,-0.166,9.809,0.0,-0.01,0.0
1777733352.400703,-10.1,-0.22,-0.7,-0.048,-0.16,9.809,-0.01,-0.01,0.0
1777733352.4106698,-10.12,-0.22,-0.69,-0.05,-0.143,9.81,-0.01,-0.01,0.0
1777733352.4209394,-10.12,-0.22,-0.69,-0.037,-0.117,9.81,-0.01,-0.01,0.0
1777733352.4306247,-10.12,-0.21,-0.68,-0.034,-0.086,9.81,0.0,0.0,0.0
1777733352.4406366,-10.11,-0.21,-0.68,-0.028,-0.085,9.81,0.0,-0.01,-0.01
1777733352.4506495,-10.1,-0.21,-0.68,-0.024,-0.084,9.809,0.0,0.0,-0.01
1777733352.46059,-10.09,-0.22,-0.68,-0.035,-0.098,9.809,0.0,0.0,-0.01
1777733352.4705865,-10.09,-0.22,-0.68,-0.036,-0.115,9.809,0.0,0.0,-0.01
1777733352.4805617,-10.1,-0.22,-0.68,-0.041,-0.115,9.809,0.0,0.0,0.0
1777733352.4905717,-10.11,-0.22,-0.68,-0.035,-0.114,9.809,-0.01,-0.01,0.0
1777733352.500577,-10.11,-0.22,-0.68,-0.043,-0.115,9.81,-0.01,-0.01,0.0
1777733352.5105639,-10.11,-0.22,-0.68,-0.044,-0.123,9.81,0.0,-0.01,0.0
1777733352.5196784,-10.11,-0.22,-0.68,-0.047,-0.121,9.81,0.0,-0.01,0.0
1777733352.5305886,-10.11,-0.22,-0.68,-0.047,-0.129,9.81,-0.01,0.0,0.0
1777733352.53969,-10.11,-0.22,-0.68,-0.043,-0.117,9.81,-0.01,-0.01,-0.01
1777733352.5497015,-10.11,-0.22,-0.68,-0.038,-0.115,9.809,0.0,-0.01,-0.01
1777733352.5596976,-10.1,-0.22,-0.68,-0.038,-0.111,9.809,0.0,-0.01,-0.01
1777733352.569681,-10.1,-0.22,-0.68,-0.028,-0.116,9.809,-0.01,0.0,-0.01
1777733352.5796776,-10.1,-0.22,-0.68,-0.042,-0.122,9.809,0.0,0.0,-0.01
1777733352.5896819,-10.1,-0.22,-0.68,-0.047,-0.128,9.809,0.0,-0.01,-0.01
1777733352.6005943,-10.1,-0.22,-0.69,-0.057,-0.148,9.809,0.0,-0.01,0.0
1777733352.6110437,-10.11,-0.22,-0.69,-0.05,-0.139,9.81,-0.01,0.0,0.0
1777733352.6197212,-10.11,-0.22,-0.69,-0.044,-0.125,9.81,-0.01,-0.01,0.0
1777733352.6297054,-10.11,-0.22,-0.68,-0.046,-0.113,9.81,0.0,-0.01,0.0
1777733352.6397042,-10.11,-0.22,-0.68,-0.048,-0.128,9.81,0.0,0.0,-0.01
1777733352.6496968,-10.1,-0.22,-0.68,-0.038,-0.126,9.809,0.0,0.0,-0.01
1777733352.6597111,-10.1,-0.22,-0.68,-0.04,-0.117,9.809,-0.01,0.0,-0.01
1777733352.669723,-10.1,-0.22,-0.68,-0.046,-0.123,9.809,0.0,-0.01,-0.01
1777733352.6797295,-10.1,-0.22,-0.68,-0.037,-0.126,9.809,0.0,0.0,-0.01
1777733352.68971,-10.1,-0.22,-0.68,-0.038,-0.113,9.809,-0.01,0.0,0.0
1777733352.6997175,-10.1,-0.22,-0.68,-0.025,-0.108,9.809,-0.01,0.0,0.0
1777733352.709711,-10.1,-0.22,-0.68,-0.026,-0.101,9.809,-0.01,0.0,0.0
1777733352.7197194,-10.11,-0.22,-0.68,-0.026,-0.122,9.809,0.0,0.0,0.0
1777733352.7297194,-10.11,-0.22,-0.69,-0.028,-0.123,9.81,-0.01,-0.01,0.0
1777733352.739734,-10.11,-0.22,-0.69,-0.037,-0.132,9.81,0.0,-0.01,0.0
1777733352.749729,-10.11,-0.22,-0.69,-0.037,-0.125,9.81,-0.01,-0.01,0.0
1777733352.7597334,-10.11,-0.22,-0.68,-0.034,-0.115,9.81,0.0,-0.01,0.0
1777733352.769734,-10.11,-0.22,-0.68,-0.04,-0.119,9.81,0.0,-0.01,-0.01
1777733352.7797506,-10.1,-0.22,-0.68,-0.028,-0.116,9.809,0.0,-0.01,-0.01
1777733352.7897232,-10.09,-0.21,-0.68,-0.041,-0.12,9.809,0.0,0.0,-0.01
1777733352.7997272,-10.09,-0.22,-0.68,-0.042,-0.123,9.809,0.0,-0.01,-0.01
1777733352.8097303,-10.1,-0.22,-0.69,-0.044,-0.116,9.809,-0.01,-0.01,0.0
1777733352.819724,-10.11,-0.22,-0.68,-0.034,-0.116,9.81,-0.01,0.0,0.0
1777733352.8297117,-10.11,-0.21,-0.68,-0.04,-0.108,9.81,0.0,-0.01,0.0
1777733352.839759,-10.12,-0.21,-0.68,-0.037,-0.105,9.81,-0.01,0.0,0.0
1777733352.8497126,-10.11,-0.22,-0.68,-0.043,-0.086,9.81,-0.01,-0.01,-0.01
1777733352.8597183,-10.1,-0.22,-0.68,-0.03,-0.101,9.809,-0.01,0.0,-0.01
1777733352.8697479,-10.09,-0.22,-0.68,-0.037,-0.119,9.809,0.0,0.0,-0.01
1777733352.8797526,-10.09,-0.22,-0.69,-0.035,-0.137,9.809,-0.01,-0.01,-0.01
1777733352.8897786,-10.09,-0.22,-0.69,-0.049,-0.15,9.809,0.0,0.0,-0.01
1777733352.9000847,-10.11,-0.22,-0.69,-0.055,-0.164,9.81,0.0,-0.01,0.0
1777733352.9097433,-10.12,-0.22,-0.69,-0.044,-0.127,9.81,-0.01,-0.01,0.0
1777733352.919747,-10.12,-0.22,-0.69,-0.041,-0.096,9.81,-0.01,-0.01,0.0
1777733352.9298987,-10.12,-0.22,-0.68,-0.042,-0.083,9.81,0.0,-0.01,0.0
1777733352.9403734,-10.11,-0.22,-0.68,-0.04,-0.072,9.81,0.0,0.0,-0.01
1777733352.9498906,-10.09,-0.22,-0.68,-0.044,-0.08,9.809,-0.01,0.0,-0.01
1777733352.9597762,-10.09,-0.23,-0.67,-0.036,-0.098,9.809,-0.01,0.0,-0.01
1777733352.9697797,-10.09,-0.23,-0.68,-0.05,-0.133,9.809,0.0,0.0,-0.01
1777733352.9798958,-10.1,-0.23,-0.69,-0.051,-0.15,9.809,-0.01,0.0,0.0
1777733352.989784,-10.12,-0.22,-0.69,-0.053,-0.15,9.81,-0.01,-0.01,0.0
1777733352.9997737,-10.12,-0.22,-0.7,-0.051,-0.137,9.81,-0.01,-0.01,0.0
1777733353.0101535,-10.12,-0.22,-0.69,-0.038,-0.117,9.81,0.0,-0.01,0.0
1777733353.0197656,-10.12,-0.22,-0.69,-0.03,-0.099,9.81,-0.01,-0.01,0.0
1777733353.02977,-10.11,-0.22,-0.68,-0.029,-0.104,9.81,0.0,0.0,-0.01
1777733353.0398533,-10.1,-0.22,-0.68,-0.025,-0.12,9.809,0.0,0.0,-0.01
1777733353.0497885,-10.09,-0.22,-0.68,-0.032,-0.131,9.809,0.0,0.0,-0.01
1777733353.059781,-10.09,-0.22,-0.68,-0.043,-0.139,9.809,0.0,0.0,-0.01
1777733353.0697916,-10.1,-0.23,-0.69,-0.043,-0.116,9.809,0.0,0.0,0.0
1777733353.079876,-10.11,-0.23,-0.68,-0.05,-0.123,9.81,-0.01,-0.01,0.0
1777733353.0898106,-10.12,-0.23,-0.68,-0.043,-0.073,9.81,-0.01,-0.01,0.0
1777733353.0997934,-10.12,-0.22,-0.68,-0.044,-0.074,9.81,-0.01,0.0,0.0
1777733353.1103568,-10.11,-0.23,-0.67,-0.044,-0.077,9.81,-0.01,-0.01,-0.01
1777733353.1198075,-10.1,-0.22,-0.68,-0.028,-0.095,9.809,-0.01,0.0,-0.01
1777733353.1298745,-10.09,-0.22,-0.68,-0.038,-0.129,9.809,0.0,0.0,-0.01
1777733353.1398036,-10.09,-0.22,-0.69,-0.026,-0.157,9.809,0.0,-0.01,-0.01
1777733353.1497815,-10.1,-0.22,-0.69,-0.041,-0.165,9.809,-0.01,0.0,0.0
1777733353.1597815,-10.11,-0.22,-0.7,-0.041,-0.154,9.81,0.0,-0.01,0.0
1777733353.1697707,-10.11,-0.22,-0.69,-0.036,-0.138,9.81,-0.01,0.0,0.0
1777733353.179814,-10.11,-0.22,-0.69,-0.048,-0.117,9.81,0.0,-0.01,0.0
1777733353.1898031,-10.11,-0.23,-0.68,-0.038,-0.101,9.81,-0.01,0.0,-0.01
1777733353.1998227,-10.11,-0.23,-0.68,-0.05,-0.105,9.809,-0.01,0.0,-0.01
1777733353.209801,-10.11,-0.22,-0.68,-0.046,-0.116,9.809,0.0,-0.01,-0.01
1777733353.2197962,-10.11,-0.22,-0.69,-0.04,-0.12,9.81,0.0,-0.01,0.0
1777733353.2297857,-10.12,-0.22,-0.69,-0.041,-0.125,9.81,0.0,-0.01,0.0
1777733353.239789,-10.12,-0.22,-0.68,-0.028,-0.098,9.81,-0.01,-0.01,0.0
1777733353.2498205,-10.12,-0.22,-0.68,-0.025,-0.097,9.81,0.0,-0.01,0.0
1777733353.2598917,-10.11,-0.22,-0.68,-0.03,-0.104,9.81,0.0,0.0,-0.01
1777733353.269809,-10.1,-0.22,-0.68,-0.028,-0.113,9.809,-0.01,0.0,-0.01
1777733353.279817,-10.1,-0.22,-0.68,-0.038,-0.127,9.809,0.0,0.0,-0.01
1777733353.289808,-10.1,-0.22,-0.69,-0.046,-0.129,9.809,0.0,0.0,-0.01
1777733353.2991767,-10.11,-0.22,-0.69,-0.048,-0.122,9.81,-0.01,0.0,0.0
1777733353.3098273,-10.11,-0.23,-0.69,-0.042,-0.117,9.81,-0.01,-0.01,0.0
1777733353.3198228,-10.12,-0.22,-0.69,-0.048,-0.12,9.81,0.0,-0.01,0.0
1777733353.3293552,-10.12,-0.23,-0.69,-0.055,-0.122,9.81,0.0,-0.01,0.0
1777733353.3389864,-10.12,-0.23,-0.69,-0.038,-0.119,9.81,-0.01,0.0,0.0
1777733353.3489313,-10.12,-0.22,-0.68,-0.047,-0.11,9.81,0.0,-0.01,-0.01
1777733353.3592076,-10.11,-0.23,-0.68,-0.029,-0.103,9.81,0.0,-0.01,-0.01
1777733353.3690405,-10.1,-0.23,-0.68,-0.032,-0.115,9.809,-0.01,0.0,-0.01
1777733353.3789806,-10.1,-0.23,-0.68,-0.036,-0.116,9.809,0.0,0.0,-0.01
1777733353.3898485,-10.1,-0.23,-0.68,-0.038,-0.122,9.809,0.0,0.0,-0.01
1777733353.3998725,-10.11,-0.23,-0.68,-0.047,-0.127,9.81,-0.01,-0.01,0.0
1777733353.409865,-10.11,-0.23,-0.69,-0.042,-0.115,9.81,-0.01,-0.01,0.0
1777733353.4198585,-10.12,-0.23,-0.68,-0.042,-0.113,9.81,0.0,-0.01,0.0
1777733353.42899,-10.12,-0.22,-0.68,-0.041,-0.096,9.81,0.0,-0.01,0.0
1777733353.439016,-10.12,-0.22,-0.68,-0.03,-0.084,9.81,-0.01,0.0,0.0
1777733353.4492042,-10.11,-0.22,-0.68,-0.034,-0.102,9.81,0.0,-0.01,-0.01
1777733353.4590266,-10.11,-0.22,-0.68,-0.022,-0.111,9.81,-0.01,0.0,-0.01
1777733353.4689956,-10.1,-0.22,-0.68,-0.019,-0.125,9.809,-0.01,0.0,-0.01
1777733353.4790184,-10.11,-0.22,-0.68,-0.028,-0.12,9.81,0.0,0.0,-0.01
1777733353.4889746,-10.11,-0.22,-0.68,-0.026,-0.119,9.81,-0.01,0.0,0.0
1777733353.4991167,-10.11,-0.23,-0.69,-0.032,-0.108,9.81,-0.01,-0.01,0.0
1777733353.5090039,-10.11,-0.22,-0.68,-0.041,-0.119,9.81,-0.01,0.0,0.0
1777733353.5190282,-10.11,-0.23,-0.68,-0.041,-0.125,9.81,0.0,-0.01,-0.01
1777733353.5289762,-10.11,-0.23,-0.69,-0.044,-0.12,9.81,-0.01,0.0,-0.01
1777733353.539002,-10.11,-0.23,-0.69,-0.046,-0.121,9.81,0.0,-0.01,-0.01
1777733353.5489914,-10.11,-0.23,-0.69,-0.042,-0.122,9.81,0.0,-0.01,-0.01
1777733353.5590413,-10.11,-0.22,-0.68,-0.037,-0.105,9.81,0.0,-0.01,0.0
1777733353.5689979,-10.11,-0.22,-0.68,-0.019,-0.098,9.81,-0.01,-0.01,0.0
1777733353.578997,-10.11,-0.22,-0.68,-0.023,-0.103,9.81,0.0,-0.01,0.0
1777733353.5889938,-10.11,-0.22,-0.68,-0.029,-0.108,9.809,0.0,0.0,-0.01
1777733353.598991,-10.11,-0.22,-0.68,-0.031,-0.121,9.81,-0.01,-0.01,-0.01
1777733353.6090255,-10.11,-0.22,-0.68,-0.034,-0.122,9.81,0.0,0.0,0.0
1777733353.6190355,-10.11,-0.22,-0.68,-0.037,-0.122,9.81,-0.01,0.0,0.0
1777733353.6290028,-10.12,-0.22,-0.68,-0.042,-0.117,9.81,-0.01,0.0,0.0
1777733353.6390276,-10.11,-0.22,-0.68,-0.041,-0.104,9.81,0.0,-0.01,0.0
1777733353.6490092,-10.11,-0.22,-0.68,-0.047,-0.113,9.81,0.0,0.0,-0.01
1777733353.6593115,-10.11,-0.22,-0.68,-0.049,-0.105,9.81,-0.01,0.0,-0.01
1777733353.6690402,-10.11,-0.22,-0.68,-0.038,-0.111,9.809,-0.01,-0.01,-0.01
1777733353.6790662,-10.1,-0.22,-0.68,-0.038,-0.11,9.809,0.0,-0.01,-0.01
1777733353.691685,-10.11,-0.22,-0.68,-0.035,-0.126,9.809,-0.01,-0.01,-0.01
1777733353.6991007,-10.11,-0.22,-0.68,-0.037,-0.115,9.81,-0.01,-0.01,0.0
1777733353.7090068,-10.11,-0.22,-0.68,-0.037,-0.115,9.81,-0.01,-0.01,0.0
1777733353.719011,-10.11,-0.22,-0.68,-0.041,-0.108,9.81,-0.01,-0.01,0.0
1777733353.7290082,-10.11,-0.22,-0.68,-0.049,-0.123,9.81,-0.01,0.0,-0.01
1777733353.7390156,-10.11,-0.23,-0.68,-0.047,-0.129,9.81,-0.01,0.0,-0.01
1777733353.7489867,-10.11,-0.22,-0.68,-0.048,-0.122,9.81,0.0,0.0,-0.01
1777733353.759022,-10.11,-0.22,-0.68,-0.03,-0.117,9.81,-0.01,-0.01,-0.01
1777733353.7690282,-10.11,-0.22,-0.68,-0.038,-0.127,9.81,0.0,-0.01,-0.01
1777733353.7791247,-10.11,-0.22,-0.68,-0.038,-0.134,9.81,0.0,-0.01,0.0
1777733353.7890072,-10.11,-0.22,-0.68,-0.028,-0.119,9.81,0.0,-0.01,0.0
1777733353.7990625,-10.11,-0.22,-0.68,-0.041,-0.119,9.81,0.0,-0.01,0.0
1777733353.809004,-10.11,-0.22,-0.68,-0.036,-0.122,9.81,0.0,0.0,-0.01
1777733353.819016,-10.11,-0.22,-0.68,-0.037,-0.11,9.81,-0.01,0.0,-0.01
1777733353.8290102,-10.11,-0.22,-0.68,-0.049,-0.115,9.809,0.0,0.0,-0.01
1777733353.83903,-10.11,-0.22,-0.68,-0.04,-0.133,9.809,0.0,0.0,-0.01
1777733353.8490088,-10.11,-0.23,-0.68,-0.044,-0.14,9.81,-0.01,-0.01,0.0
1777733353.8590796,-10.11,-0.23,-0.69,-0.047,-0.128,9.81,0.0,-0.01,0.0
1777733353.870015,-10.12,-0.22,-0.69,-0.046,-0.115,9.81,-0.01,0.0,0.0
1777733353.8791084,-10.12,-0.23,-0.68,-0.048,-0.111,9.81,0.0,-0.01,0.0
1777733353.8890233,-10.11,-0.23,-0.68,-0.046,-0.087,9.81,-0.01,0.0,-0.01
1777733353.899005,-10.1,-0.23,-0.68,-0.036,-0.109,9.809,-0.01,-0.01,-0.01
1777733353.9090774,-10.1,-0.23,-0.68,-0.036,-0.105,9.809,0.0,0.0,-0.01
1777733353.919047,-10.1,-0.22,-0.68,-0.031,-0.152,9.809,-0.01,0.0,-0.01
1777733353.9290328,-10.11,-0.23,-0.69,-0.03,-0.141,9.81,0.0,-0.01,0.0
1777733353.9390304,-10.11,-0.22,-0.69,-0.03,-0.133,9.81,-0.01,0.0,0.0
1777733353.9490542,-10.12,-0.23,-0.69,-0.031,-0.122,9.81,0.0,-0.01,0.0
1777733353.959314,-10.12,-0.23,-0.68,-0.034,-0.121,9.81,0.0,0.0,0.0
1777733353.9690304,-10.11,-0.23,-0.69,-0.041,-0.108,9.81,0.0,0.0,-0.01
1777733353.9790692,-10.11,-0.23,-0.68,-0.044,-0.129,9.81,0.0,-0.01,-0.01
1777733353.9890294,-10.1,-0.23,-0.69,-0.053,-0.122,9.809,0.0,0.0,-0.01
1777733353.999035,-10.1,-0.23,-0.69,-0.049,-0.115,9.809,-0.01,0.0,-0.01
1777733354.009102,-10.1,-0.24,-0.69,-0.041,-0.117,9.809,0.0,-0.01,-0.01
1777733354.0190456,-10.1,-0.23,-0.69,-0.043,-0.129,9.809,0.0,0.0,-0.01
1777733354.0290277,-10.11,-0.23,-0.69,-0.038,-0.132,9.81,-0.01,-0.01,0.0
1777733354.0390322,-10.12,-0.23,-0.69,-0.037,-0.129,9.81,-0.01,-0.01,0.0
1777733354.0481381,-10.12,-0.22,-0.69,-0.046,-0.146,9.81,0.0,-0.01,0.0
1777733354.0590558,-10.12,-0.23,-0.7,-0.034,-0.132,9.81,0.0,-0.01,0.0
1777733354.0690577,-10.12,-0.23,-0.7,-0.03,-0.11,9.81,-0.01,0.0,0.0
1777733354.079045,-10.12,-0.23,-0.69,-0.032,-0.113,9.81,0.0,0.0,-0.01
1777733354.0890844,-10.12,-0.23,-0.69,-0.031,-0.12,9.81,0.0,0.0,-0.01
1777733354.0983517,-10.11,-0.23,-0.69,-0.043,-0.129,9.81,0.0,0.0,-0.01
1777733354.1090615,-10.1,-0.23,-0.69,-0.037,-0.129,9.809,0.0,0.0,-0.01
1777733354.119204,-10.11,-0.23,-0.69,-0.04,-0.131,9.81,0.0,0.0,-0.01
1777733354.1290705,-10.11,-0.23,-0.69,-0.047,-0.123,9.81,0.0,0.0,0.0
1777733354.1393683,-10.12,-0.23,-0.69,-0.035,-0.109,9.81,-0.01,-0.01,0.0
1777733354.1482882,-10.12,-0.23,-0.69,-0.046,-0.119,9.81,0.0,-0.01,0.0
1777733354.1589909,-10.12,-0.23,-0.69,-0.028,-0.107,9.81,-0.01,-0.01,0.0
1777733354.1682003,-10.12,-0.22,-0.69,-0.028,-0.099,9.81,-0.01,0.0,0.0
1777733354.1782074,-10.12,-0.22,-0.69,-0.032,-0.105,9.81,0.0,-0.01,-0.01
1777733354.188175,-10.11,-0.22,-0.69,-0.026,-0.12,9.81,-0.01,0.0,-0.01
1777733354.1987162,-10.11,-0.22,-0.69,-0.038,-0.137,9.81,0.0,-0.01,-0.01
1777733354.2082462,-10.11,-0.23,-0.7,-0.035,-0.15,9.81,0.0,0.0,-0.01
1777733354.2182093,-10.12,-0.22,-0.7,-0.048,-0.16,9.81,0.0,-0.01,0.0
1777733354.2282143,-10.12,-0.23,-0.7,-0.043,-0.139,9.81,-0.01,-0.01,0.0
1777733354.2381957,-10.12,-0.22,-0.7,-0.04,-0.121,9.81,0.0,0.0,0.0
1777733354.2481987,-10.12,-0.22,-0.69,-0.034,-0.116,9.81,0.0,-0.01,-0.01
1777733354.2581904,-10.11,-0.22,-0.69,-0.04,-0.123,9.81,0.0,0.0,-0.01
1777733354.2681975,-10.11,-0.22,-0.69,-0.042,-0.123,9.81,0.0,-0.01,-0.01
1777733354.2782433,-10.11,-0.22,-0.69,-0.04,-0.126,9.81,0.0,0.0,-0.01
1777733354.2882354,-10.11,-0.22,-0.69,-0.035,-0.12,9.81,-0.01,-0.01,0.0
1777733354.2984674,-10.12,-0.22,-0.7,-0.036,-0.103,9.81,-0.01,-0.01,0.0
1777733354.3083827,-10.12,-0.22,-0.69,-0.038,-0.108,9.81,-0.01,-0.01,0.0
1777733354.3182487,-10.12,-0.22,-0.69,-0.03,-0.109,9.81,-0.01,-0.01,0.0
1777733354.3282323,-10.12,-0.22,-0.69,-0.036,-0.109,9.81,-0.01,-0.01,0.0
1777733354.3382227,-10.11,-0.22,-0.69,-0.046,-0.11,9.81,-0.01,0.0,-0.01
1777733354.348255,-10.11,-0.22,-0.69,-0.038,-0.128,9.81,-0.01,-0.01,-0.01
1777733354.3582368,-10.1,-0.22,-0.69,-0.043,-0.144,9.809,0.0,-0.01,-0.01
1777733354.3682656,-10.1,-0.22,-0.7,-0.042,-0.157,9.809,0.0,0.0,-0.01
1777733354.3782446,-10.11,-0.22,-0.7,-0.044,-0.146,9.81,0.0,-0.01,0.0
1777733354.3882253,-10.12,-0.22,-0.7,-0.048,-0.138,9.81,0.0,-0.01,0.0
1777733354.398254,-10.12,-0.22,-0.7,-0.041,-0.107,9.81,0.0,0.0,0.0
1777733354.4082572,-10.12,-0.22,-0.69,-0.04,-0.084,9.81,-0.01,0.0,0.0
1777733354.4182453,-10.11,-0.22,-0.68,-0.028,-0.085,9.81,0.0,0.0,-0.01
1777733354.4282224,-10.11,-0.22,-0.68,-0.028,-0.099,9.81,0.0,-0.01,-0.01
1777733354.438244,-10.1,-0.22,-0.69,-0.029,-0.092,9.809,-0.01,0.0,-0.01
1777733354.448278,-10.1,-0.22,-0.69,-0.024,-0.126,9.809,-0.01,0.0,-0.01
1777733354.4582784,-10.11,-0.22,-0.69,-0.042,-0.137,9.809,-0.01,-0.01,-0.01
1777733354.4683518,-10.11,-0.22,-0.69,-0.046,-0.158,9.81,0.0,0.0,0.0
1777733354.478268,-10.12,-0.22,-0.69,-0.042,-0.143,9.81,0.0,-0.01,0.0
1777733354.488242,-10.12,-0.22,-0.69,-0.047,-0.128,9.81,0.0,0.0,0.0
1777733354.4982994,-10.11,-0.22,-0.69,-0.048,-0.116,9.81,0.0,0.0,0.0
1777733354.5082922,-10.11,-0.22,-0.69,-0.037,-0.103,9.809,0.0,-0.01,-0.01
1777733354.5182729,-10.1,-0.22,-0.69,-0.043,-0.119,9.809,0.0,0.0,-0.01
1777733354.5283113,-10.1,-0.22,-0.69,-0.036,-0.122,9.809,-0.01,-0.01,-0.01
1777733354.5382702,-10.1,-0.22,-0.69,-0.043,-0.133,9.809,0.0,-0.01,0.0
1777733354.5482848,-10.12,-0.22,-0.69,-0.048,-0.133,9.81,0.0,-0.01,0.0
1777733354.558277,-10.12,-0.22,-0.69,-0.036,-0.111,9.81,-0.01,-0.01,0.0
1777733354.5682921,-10.12,-0.22,-0.68,-0.035,-0.087,9.81,-0.01,-0.01,0.0
1777733354.5782912,-10.12,-0.22,-0.68,-0.026,-0.073,9.81,0.0,-0.01,-0.01
1777733354.5883138,-10.11,-0.22,-0.68,-0.035,-0.087,9.81,0.0,0.0,-0.01
1777733354.5982952,-10.09,-0.23,-0.68,-0.041,-0.098,9.809,-0.01,0.0,-0.01
1777733354.6082885,-10.09,-0.23,-0.68,-0.035,-0.129,9.809,-0.01,0.0,-0.01
1777733354.6183307,-10.09,-0.23,-0.69,-0.044,-0.148,9.809,0.0,-0.01,-0.01
1777733354.628308,-10.1,-0.22,-0.69,-0.042,-0.152,9.809,-0.01,0.0,0.0
1777733354.6383178,-10.12,-0.22,-0.7,-0.044,-0.153,9.81,0.0,-0.01,0.0
1777733354.6483014,-10.12,-0.22,-0.7,-0.036,-0.137,9.81,0.0,-0.01,0.0
1777733354.6582892,-10.13,-0.22,-0.69,-0.035,-0.104,9.81,-0.01,-0.01,0.0
1777733354.668271,-10.12,-0.22,-0.69,-0.029,-0.102,9.81,0.0,-0.01,0.0
1777733354.6782966,-10.12,-0.21,-0.68,-0.023,-0.08,9.81,0.0,-0.01,-0.01
1777733354.6882777,-10.11,-0.21,-0.68,-0.028,-0.099,9.81,0.0,0.0,-0.01
1777733354.6983306,-10.1,-0.22,-0.68,-0.025,-0.09,9.809,-0.01,0.0,-0.01
1777733354.7083352,-10.09,-0.22,-0.68,-0.029,-0.125,9.809,0.0,0.0,-0.01
1777733354.7183235,-10.1,-0.22,-0.68,-0.034,-0.122,9.809,-0.01,0.0,-0.01
1777733354.728297,-10.1,-0.22,-0.69,-0.037,-0.123,9.809,-0.01,0.0,0.0
1777733354.7383094,-10.11,-0.22,-0.69,-0.042,-0.114,9.81,-0.01,-0.01,0.0
1777733354.7483134,-10.12,-0.22,-0.69,-0.048,-0.122,9.81,-0.01,-0.01,0.0
1777733354.7583094,-10.12,-0.22,-0.69,-0.049,-0.133,9.81,0.0,-0.01,0.0
1777733354.7683036,-10.12,-0.22,-0.69,-0.043,-0.127,9.81,-0.01,-0.01,-0.01
1777733354.7782853,-10.12,-0.22,-0.69,-0.044,-0.122,9.81,-0.01,0.0,0.0
1777733354.7882895,-10.11,-0.22,-0.69,-0.043,-0.119,9.81,0.0,-0.01,-0.01
1777733354.7982953,-10.11,-0.22,-0.69,-0.035,-0.116,9.81,0.0,-0.01,-0.01
1777733354.8083158,-10.11,-0.22,-0.69,-0.042,-0.117,9.81,0.0,-0.01,-0.01
1777733354.8183594,-10.11,-0.22,-0.69,-0.04,-0.108,9.81,-0.01,-0.01,-0.01
1777733354.828326,-10.11,-0.22,-0.68,-0.04,-0.113,9.81,0.0,0.0,-0.01
1777733354.8375058,-10.11,-0.22,-0.69,-0.044,-0.116,9.81,0.0,0.0,0.0
1777733354.8483298,-10.11,-0.22,-0.68,-0.042,-0.119,9.81,-0.01,0.0,0.0
1777733354.8583121,-10.11,-0.22,-0.68,-0.053,-0.109,9.81,0.0,-0.01,0.0
1777733354.8675056,-10.11,-0.22,-0.69,-0.056,-0.108,9.81,-0.01,0.0,0.0
1777733354.877511,-10.11,-0.23,-0.69,-0.054,-0.107,9.81,-0.01,0.0,-0.01
1777733354.88749,-10.11,-0.22,-0.68,-0.048,-0.123,9.81,-0.01,0.0,-0.01
1777733354.8974934,-10.11,-0.22,-0.69,-0.05,-0.135,9.81,0.0,-0.01,-0.01
1777733354.908329,-10.12,-0.22,-0.69,-0.044,-0.141,9.81,0.0,-0.01,0.0
1777733354.917517,-10.12,-0.22,-0.69,-0.034,-0.121,9.81,-0.01,0.0,0.0
1777733354.9274962,-10.12,-0.22,-0.69,-0.031,-0.117,9.81,0.0,-0.01,0.0
1777733354.9375021,-10.11,-0.22,-0.68,-0.029,-0.113,9.81,0.0,0.0,-0.01
1777733354.9483418,-10.1,-0.22,-0.68,-0.036,-0.117,9.809,0.0,0.0,-0.01
1777733354.957503,-10.1,-0.23,-0.69,-0.036,-0.12,9.809,0.0,0.0,-0.01
1777733354.967535,-10.1,-0.23,-0.68,-0.03,-0.132,9.809,-0.01,0.0,-0.01
1777733354.9775422,-10.11,-0.23,-0.69,-0.05,-0.133,9.81,0.0,-0.01,0.0
1777733354.987503,-10.12,-0.23,-0.69,-0.05,-0.143,9.81,-0.01,-0.01,0.0
1777733354.9975114,-10.12,-0.22,-0.69,-0.054,-0.117,9.81,0.0,-0.01,0.0
1777733355.00751,-10.12,-0.22,-0.69,-0.042,-0.109,9.81,-0.01,-0.01,0.0
1777733355.0174725,-10.12,-0.22,-0.68,-0.043,-0.099,9.81,0.0,-0.01,-0.01
1777733355.02751,-10.11,-0.22,-0.68,-0.04,-0.11,9.81,0.0,-0.01,-0.01
1777733355.0375109,-10.1,-0.22,-0.69,-0.036,-0.125,9.809,-0.01,0.0,-0.01
1777733355.0474873,-10.1,-0.22,-0.69,-0.036,-0.129,9.809,-0.01,0.0,-0.01
1777733355.0575612,-10.11,-0.23,-0.69,-0.035,-0.129,9.81,-0.01,0.0,0.0
1777733355.0675552,-10.12,-0.22,-0.69,-0.042,-0.123,9.81,0.0,-0.01,0.0
1777733355.0775278,-10.12,-0.22,-0.69,-0.038,-0.108,9.81,0.0,-0.01,0.0
1777733355.0875113,-10.12,-0.22,-0.69,-0.035,-0.092,9.81,-0.01,-0.01,0.0
1777733355.0974967,-10.12,-0.22,-0.68,-0.042,-0.095,9.81,-0.01,0.0,0.0
1777733355.107506,-10.12,-0.23,-0.68,-0.04,-0.095,9.81,0.0,0.0,-0.01
1777733355.1174784,-10.11,-0.22,-0.68,-0.042,-0.103,9.81,0.0,0.0,-0.01
1777733355.1275427,-10.1,-0.23,-0.68,-0.034,-0.125,9.809,-0.01,0.0,-0.01
1777733355.1375265,-10.1,-0.22,-0.69,-0.04,-0.153,9.809,0.0,-0.01,-0.01
1777733355.1475005,-10.11,-0.22,-0.69,-0.043,-0.146,9.81,-0.01,-0.01,0.0
1777733355.157534,-10.12,-0.22,-0.7,-0.036,-0.128,9.81,0.0,-0.01,0.0
1777733355.1675346,-10.12,-0.22,-0.69,-0.031,-0.115,9.81,-0.01,-0.01,0.0
1777733355.1774943,-10.12,-0.22,-0.69,-0.026,-0.092,9.81,0.0,0.0,0.0
1777733355.1875184,-10.12,-0.22,-0.68,-0.023,-0.09,9.81,-0.01,0.0,-0.01
1777733355.1974835,-10.11,-0.22,-0.68,-0.031,-0.111,9.81,0.0,0.0,-0.01
1777733355.207537,-10.1,-0.23,-0.68,-0.037,-0.127,9.809,0.0,0.0,-0.01
1777733355.2175221,-10.11,-0.23,-0.69,-0.047,-0.135,9.809,-0.01,0.0,-0.01
1777733355.2275546,-10.11,-0.23,-0.69,-0.049,-0.141,9.81,-0.01,-0.01,0.0
1777733355.2375305,-10.12,-0.23,-0.7,-0.053,-0.129,9.81,0.0,-0.01,0.0
1777733355.2475405,-10.12,-0.22,-0.69,-0.042,-0.103,9.81,-0.01,-0.01,0.0
1777733355.2575142,-10.12,-0.22,-0.69,-0.043,-0.096,9.81,-0.01,-0.01,0.0
1777733355.267548,-10.12,-0.22,-0.68,-0.025,-0.092,9.81,-0.01,-0.01,-0.01
1777733355.277508,-10.11,-0.22,-0.68,-0.032,-0.107,9.81,0.0,0.0,-0.01
1777733355.2875109,-10.1,-0.22,-0.69,-0.028,-0.129,9.809,-0.01,-0.01,-0.01
1777733355.2975054,-10.1,-0.22,-0.69,-0.031,-0.164,9.809,0.0,0.0,-0.01
1777733355.3075197,-10.11,-0.22,-0.7,-0.044,-0.157,9.81,0.0,-0.01,0.0
1777733355.3175511,-10.12,-0.22,-0.7,-0.041,-0.154,9.81,-0.01,0.0,0.0
1777733355.3275588,-10.12,-0.22,-0.7,-0.048,-0.132,9.81,0.0,-0.01,0.0
1777733355.3375258,-10.12,-0.22,-0.69,-0.037,-0.101,9.81,0.0,0.0,0.0
1777733355.3475306,-10.12,-0.22,-0.68,-0.031,-0.084,9.81,0.0,0.0,-0.01
1777733355.357536,-10.11,-0.22,-0.68,-0.034,-0.075,9.81,0.0,0.0,-0.01
1777733355.3675187,-10.1,-0.22,-0.68,-0.036,-0.085,9.809,-0.01,0.0,-0.01
1777733355.3775368,-10.1,-0.22,-0.68,-0.034,-0.105,9.809,-0.01,-0.01,-0.01
1777733355.3875268,-10.11,-0.22,-0.68,-0.037,-0.109,9.809,0.0,-0.01,-0.01
1777733355.39751,-10.11,-0.22,-0.68,-0.029,-0.11,9.81,-0.01,0.0,0.0
1777733355.407516,-10.12,-0.22,-0.69,-0.031,-0.11,9.81,-0.01,-0.01,0.0
1777733355.4175751,-10.12,-0.22,-0.69,-0.038,-0.131,9.81,-0.01,-0.01,0.0
1777733355.4275026,-10.12,-0.22,-0.69,-0.041,-0.126,9.81,-0.01,-0.01,0.0
1777733355.4375536,-10.12,-0.22,-0.69,-0.043,-0.128,9.81,-0.01,0.0,-0.01
1777733355.4475634,-10.12,-0.22,-0.69,-0.044,-0.135,9.81,0.0,0.0,-0.01
1777733355.4575312,-10.11,-0.23,-0.69,-0.041,-0.134,9.81,0.0,0.0,-0.01
1777733355.4675171,-10.11,-0.23,-0.69,-0.059,-0.137,9.81,0.0,0.0,-0.01
1777733355.4775655,-10.11,-0.23,-0.69,-0.046,-0.114,9.81,0.0,-0.01,0.0
1777733355.487574,-10.11,-0.23,-0.68,-0.047,-0.105,9.81,0.0,-0.01,0.0
1777733355.4975595,-10.11,-0.23,-0.68,-0.047,-0.081,9.81,0.0,-0.01,0.0
1777733355.5075266,-10.11,-0.23,-0.68,-0.044,-0.095,9.81,0.0,0.0,-0.01
1777733355.5175536,-10.11,-0.23,-0.68,-0.044,-0.105,9.81,-0.01,-0.01,-0.01
1777733355.5275657,-10.11,-0.23,-0.68,-0.047,-0.129,9.81,0.0,0.0,-0.01
1777733355.5375495,-10.12,-0.23,-0.69,-0.046,-0.154,9.81,-0.01,-0.01,0.0
1777733355.5475464,-10.12,-0.22,-0.69,-0.038,-0.146,9.81,0.0,-0.01,0.0
1777733355.5575306,-10.13,-0.22,-0.69,-0.035,-0.12,9.81,-0.01,-0.01,0.0
1777733355.5675154,-10.13,-0.22,-0.68,-0.03,-0.099,9.81,0.0,0.0,0.0
1777733355.576731,-10.12,-0.22,-0.68,-0.029,-0.097,9.81,0.0,-0.01,-0.01
1777733355.5875728,-10.12,-0.22,-0.68,-0.029,-0.097,9.81,-0.01,0.0,-0.01
1777733355.597544,-10.11,-0.22,-0.68,-0.031,-0.115,9.81,0.0,0.0,-0.01
1777733355.6075585,-10.1,-0.23,-0.68,-0.038,-0.123,9.809,0.0,-0.01,-0.01
1777733355.6175356,-10.11,-0.23,-0.68,-0.04,-0.12,9.81,0.0,0.0,-0.01
1777733355.6267252,-10.11,-0.23,-0.68,-0.049,-0.119,9.81,-0.01,0.0,0.0
1777733355.636712,-10.12,-0.23,-0.68,-0.043,-0.121,9.81,0.0,-0.01,0.0
1777733355.6467085,-10.12,-0.22,-0.68,-0.046,-0.116,9.81,-0.01,-0.01,0.0
1777733355.6566966,-10.13,-0.22,-0.68,-0.028,-0.099,9.81,-0.01,-0.01,0.0
1777733355.6675715,-10.13,-0.22,-0.68,-0.028,-0.089,9.81,0.0,0.0,0.0
1777733355.6775682,-10.12,-0.22,-0.68,-0.024,-0.099,9.81,0.0,-0.01,-0.01
1777733355.686752,-10.12,-0.22,-0.68,-0.016,-0.103,9.81,-0.01,0.0,-0.01
1777733355.6967118,-10.11,-0.22,-0.68,-0.03,-0.119,9.81,0.0,0.0,-0.01
1777733355.7067149,-10.11,-0.22,-0.68,-0.031,-0.137,9.81,0.0,0.0,-0.01
1777733355.7175677,-10.11,-0.22,-0.68,-0.038,-0.134,9.81,0.0,0.0,-0.01
1777733355.7267492,-10.12,-0.22,-0.68,-0.038,-0.122,9.81,-0.01,0.0,0.0
1777733355.7367644,-10.12,-0.22,-0.68,-0.043,-0.122,9.81,0.0,-0.01,0.0
1777733355.7467372,-10.12,-0.22,-0.68,-0.04,-0.111,9.81,0.0,-0.01,0.0
1777733355.756771,-10.12,-0.22,-0.68,-0.04,-0.108,9.81,-0.01,-0.01,-0.01
1777733355.7667327,-10.11,-0.22,-0.68,-0.035,-0.122,9.81,0.0,-0.01,-0.01
1777733355.7767377,-10.11,-0.22,-0.68,-0.034,-0.131,9.81,0.0,0.0,-0.01
1777733355.7867444,-10.11,-0.22,-0.68,-0.029,-0.151,9.81,-0.01,-0.01,-0.01
1777733355.796724,-10.12,-0.22,-0.69,-0.025,-0.153,9.81,-0.01,0.0,0.0
1777733355.8067243,-10.12,-0.22,-0.69,-0.032,-0.15,9.81,0.0,-0.01,0.0
1777733355.8167312,-10.13,-0.22,-0.69,-0.032,-0.12,9.81,0.0,-0.01,0.0
1777733355.8267555,-10.12,-0.21,-0.68,-0.037,-0.102,9.81,-0.01,0.0,0.0
1777733355.8367422,-10.12,-0.22,-0.68,-0.037,-0.099,9.81,0.0,0.0,-0.01
1777733355.8467345,-10.12,-0.22,-0.68,-0.038,-0.108,9.81,0.0,0.0,-0.01
1777733355.8568563,-10.11,-0.22,-0.68,-0.042,-0.115,9.81,-0.01,0.0,-0.01
1777733355.8667345,-10.11,-0.22,-0.68,-0.041,-0.125,9.81,-0.01,0.0,-0.01
1777733355.8767438,-10.11,-0.22,-0.68,-0.046,-0.147,9.81,0.0,-0.01,0.0
1777733355.886709,-10.12,-0.22,-0.69,-0.05,-0.137,9.81,0.0,-0.01,0.0
1777733355.8967307,-10.13,-0.22,-0.69,-0.043,-0.123,9.81,-0.01,-0.01,0.0
1777733355.9067616,-10.13,-0.22,-0.68,-0.049,-0.105,9.81,0.0,-0.01,0.0
1777733355.9167616,-10.13,-0.22,-0.68,-0.038,-0.093,9.81,0.0,-0.01,0.0
1777733355.926733,-10.12,-0.22,-0.68,-0.037,-0.097,9.81,-0.01,0.0,-0.01
1777733355.9367406,-10.11,-0.22,-0.68,-0.038,-0.126,9.81,0.0,0.0,-0.01
1777733355.9467173,-10.11,-0.22,-0.68,-0.036,-0.139,9.81,0.0,0.0,-0.01
1777733355.956716,-10.11,-0.22,-0.69,-0.051,-0.152,9.81,0.0,0.0,-0.01
1777733355.9667225,-10.12,-0.22,-0.69,-0.043,-0.137,9.81,-0.01,-0.01,0.0
1777733355.9767659,-10.12,-0.22,-0.69,-0.061,-0.121,9.81,0.0,-0.01,0.0
1777733355.986777,-10.12,-0.22,-0.69,-0.051,-0.103,9.81,-0.01,-0.01,0.0
1777733355.996788,-10.12,-0.22,-0.69,-0.043,-0.105,9.81,-0.01,-0.01,0.0
1777733356.0067668,-10.12,-0.22,-0.69,-0.049,-0.117,9.81,0.0,-0.01,-0.01
1777733356.0167482,-10.12,-0.22,-0.69,-0.041,-0.125,9.81,0.0,0.0,-0.01
1777733356.0267522,-10.12,-0.22,-0.69,-0.043,-0.137,9.81,-0.01,0.0,-0.01
1777733356.0367417,-10.12,-0.22,-0.69,-0.037,-0.126,9.81,-0.01,0.0,0.0
1777733356.0467265,-10.12,-0.22,-0.69,-0.037,-0.134,9.81,0.0,-0.01,0.0
1777733356.056791,-10.12,-0.23,-0.69,-0.035,-0.121,9.81,-0.01,0.0,0.0
1777733356.0667634,-10.12,-0.22,-0.69,-0.048,-0.128,9.81,0.0,0.0,-0.01
1777733356.07679,-10.12,-0.23,-0.69,-0.046,-0.131,9.81,0.0,-0.01,0.0
1777733356.086749,-10.12,-0.23,-0.69,-0.047,-0.128,9.81,0.0,-0.01,0.0
1777733356.096741,-10.12,-0.23,-0.69,-0.051,-0.119,9.81,-0.01,-0.01,0.0
1777733356.1067436,-10.12,-0.23,-0.69,-0.042,-0.099,9.81,0.0,-0.01,0.0
1777733356.1167629,-10.12,-0.23,-0.68,-0.046,-0.08,9.81,0.0,-0.01,-0.01
1777733356.1267538,-10.12,-0.23,-0.68,-0.044,-0.105,9.81,0.0,0.0,-0.01
1777733356.136767,-10.12,-0.23,-0.68,-0.044,-0.113,9.81,-0.01,-0.01,-0.01
1777733356.1467645,-10.11,-0.23,-0.69,-0.044,-0.123,9.81,-0.01,0.0,-0.01
1777733356.1567712,-10.11,-0.23,-0.69,-0.036,-0.132,9.81,-0.01,0.0,-0.01
1777733356.1667836,-10.12,-0.23,-0.69,-0.031,-0.137,9.81,-0.01,0.0,0.0
1777733356.1767612,-10.12,-0.23,-0.7,-0.044,-0.133,9.81,0.0,-0.01,0.0
1777733356.1867394,-10.12,-0.23,-0.7,-0.041,-0.129,9.81,-0.01,0.0,0.0
1777733356.1967857,-10.12,-0.23,-0.69,-0.056,-0.128,9.81,0.0,-0.01,0.0
1777733356.2067862,-10.12,-0.23,-0.69,-0.053,-0.122,9.81,0.0,-0.01,-0.01
1777733356.2167835,-10.12,-0.23,-0.69,-0.048,-0.117,9.81,0.0,0.0,-0.01
1777733356.2271757,-10.12,-0.23,-0.69,-0.041,-0.11,9.81,0.0,-0.01,-0.01
1777733356.236803,-10.12,-0.23,-0.68,-0.029,-0.099,9.81,-0.01,-0.01,-0.01
1777733356.2468066,-10.12,-0.23,-0.68,-0.029,-0.109,9.81,0.0,-0.01,-0.01
1777733356.2568054,-10.12,-0.23,-0.68,-0.023,-0.093,9.81,-0.01,0.0,0.0
1777733356.2667902,-10.12,-0.22,-0.68,-0.024,-0.116,9.81,-0.01,0.0,0.0
1777733356.2767951,-10.12,-0.23,-0.69,-0.025,-0.109,9.81,-0.01,-0.01,0.0
1777733356.2867851,-10.12,-0.22,-0.69,-0.024,-0.127,9.81,-0.01,0.0,0.0
1777733356.2967904,-10.12,-0.22,-0.69,-0.036,-0.121,9.81,-0.01,-0.01,0.0
1777733356.306772,-10.12,-0.22,-0.69,-0.029,-0.132,9.81,0.0,0.0,0.0
1777733356.316772,-10.12,-0.22,-0.69,-0.037,-0.14,9.81,0.0,-0.01,-0.01
1777733356.3267727,-10.12,-0.23,-0.7,-0.032,-0.133,9.81,0.0,-0.01,-0.01
1777733356.3367665,-10.12,-0.22,-0.7,-0.041,-0.146,9.81,-0.01,0.0,0.0
1777733356.3467474,-10.12,-0.23,-0.7,-0.051,-0.14,9.81,0.0,-0.01,0.0
1777733356.3567872,-10.13,-0.23,-0.69,-0.055,-0.126,9.81,0.0,0.0,0.0
1777733356.3667676,-10.12,-0.23,-0.69,-0.051,-0.103,9.81,0.0,-0.01,0.0
1777733356.3767905,-10.12,-0.23,-0.69,-0.042,-0.087,9.81,-0.01,-0.01,-0.01
1777733356.386772,-10.12,-0.23,-0.68,-0.042,-0.099,9.81,0.0,0.0,-0.01
1777733356.3967984,-10.11,-0.23,-0.68,-0.035,-0.105,9.81,-0.01,-0.01,-0.01
1777733356.4067857,-10.11,-0.23,-0.69,-0.038,-0.129,9.81,0.0,0.0,-0.01
1777733356.4167857,-10.11,-0.23,-0.69,-0.04,-0.145,9.81,-0.01,0.0,-0.01
1777733356.4267745,-10.12,-0.23,-0.7,-0.042,-0.159,9.81,0.0,-0.01,0.0
1777733356.4359767,-10.12,-0.23,-0.7,-0.049,-0.156,9.81,0.0,-0.01,0.0
1777733356.4459643,-10.13,-0.23,-0.7,-0.04,-0.117,9.81,0.0,-0.01,0.0
1777733356.456814,-10.13,-0.23,-0.69,-0.046,-0.099,9.81,0.0,-0.01,0.0
1777733356.466823,-10.12,-0.23,-0.69,-0.041,-0.089,9.81,0.0,0.0,-0.01
