timestamp,yaw,pitch,roll,accel_x,accel_y,accel_z,gyro_x,gyro_y,gyro_z
1777317180.1427932,-6.87,0.27,0.16,0.043,0.036,9.779,0.0,0.0,0.0
1777317180.1527274,-6.87,0.27,0.16,0.042,0.032,9.774,-0.01,0.0,0.0
1777317180.1627605,-6.87,0.27,0.16,0.043,0.031,9.778,-0.01,0.0,0.0
1777317180.172801,-6.87,0.27,0.16,0.044,0.029,9.781,-0.01,-0.01,0.0
1777317180.1826937,-6.87,0.27,0.16,0.046,0.03,9.78,-0.01,-0.01,0.0
1777317180.1927326,-6.87,0.27,0.16,0.04,0.032,9.774,-0.01,-0.01,0.0
1777317180.202704,-6.87,0.27,0.16,0.038,0.025,9.767,-0.01,-0.01,0.0
1777317180.2127194,-6.87,0.26,0.16,-0.034,0.02,9.776,0.0,-0.01,0.0
1777317180.2227044,-6.87,0.23,0.15,-0.107,-0.017,9.684,-0.01,0.0,-0.01
1777317180.2327192,-6.87,0.18,0.12,-0.128,-0.046,9.584,-0.01,0.01,-0.01
1777317180.2427273,-6.88,0.16,0.09,-0.162,-0.037,9.635,-0.02,0.01,0.0
1777317180.2527285,-6.89,0.16,0.06,-0.159,0.004,9.681,-0.02,0.0,0.0
1777317180.262701,-6.92,0.17,0.05,-0.172,0.043,9.715,-0.02,-0.01,0.01
1777317180.2727222,-6.94,0.19,0.04,-0.147,0.069,9.671,-0.02,-0.02,0.01
1777317180.2828388,-6.96,0.23,0.04,-0.138,0.079,9.627,-0.01,-0.02,0.01
1777317180.2928455,-6.99,0.27,0.03,-0.092,0.089,9.616,-0.01,-0.02,0.01
1777317180.3027294,-7.01,0.31,0.02,-0.053,0.066,9.667,-0.01,-0.03,0.01
1777317180.3127058,-7.03,0.36,0.01,-0.006,0.057,9.705,-0.01,-0.03,0.01
1777317180.322817,-7.06,0.4,0.0,0.074,0.05,9.733,-0.01,-0.02,0.01
1777317180.332733,-7.08,0.46,0.01,0.141,0.031,9.753,-0.01,-0.02,0.01
1777317180.3428524,-7.11,0.5,0.0,0.202,0.05,9.761,-0.01,-0.02,0.02
1777317180.3528426,-7.13,0.53,0.0,0.25,0.078,9.769,-0.01,-0.02,0.01
1777317180.362716,-7.14,0.55,0.01,0.274,0.075,9.78,-0.01,-0.02,0.01
1777317180.3727,-7.15,0.55,0.01,0.299,0.101,9.788,-0.01,-0.01,0.0
1777317180.3827138,-7.15,0.56,0.03,0.29,0.129,9.794,0.0,0.0,0.0
1777317180.3926787,-7.13,0.54,0.05,0.254,0.138,9.784,0.0,0.0,-0.01
1777317180.402899,-7.12,0.52,0.06,0.193,0.147,9.77,0.0,0.01,-0.01
1777317180.4127302,-7.1,0.49,0.07,0.133,0.159,9.77,0.0,0.01,-0.02
1777317180.4228802,-7.09,0.45,0.09,0.065,0.154,9.78,0.0,0.01,-0.02
1777317180.432691,-7.08,0.41,0.09,0.008,0.14,9.772,0.0,0.01,-0.01
1777317180.4426758,-7.07,0.38,0.1,-0.048,0.113,9.767,0.0,0.01,-0.01
1777317180.4526694,-7.06,0.35,0.09,-0.084,0.087,9.726,-0.01,0.01,-0.01
1777317180.462706,-7.06,0.33,0.08,-0.114,0.093,9.701,-0.01,0.01,-0.01
1777317180.4726784,-7.07,0.31,0.09,-0.133,0.077,9.701,-0.01,0.0,0.0
1777317180.4826913,-7.08,0.31,0.08,-0.145,0.057,9.723,-0.01,0.0,0.0
1777317180.4926805,-7.09,0.31,0.07,-0.137,0.043,9.73,-0.01,-0.01,0.0
1777317180.5018234,-7.1,0.3,0.06,-0.116,0.036,9.721,-0.01,-0.01,0.0
1777317180.5126905,-7.11,0.31,0.05,-0.097,0.029,9.718,-0.01,-0.01,0.0
1777317180.5226767,-7.12,0.33,0.05,-0.069,0.016,9.739,-0.01,-0.01,0.0
1777317180.532664,-7.13,0.34,0.04,-0.035,0.008,9.757,-0.01,-0.02,0.0
1777317180.5427158,-7.13,0.35,0.04,-0.01,0.012,9.77,-0.01,-0.02,0.0
1777317180.5527008,-7.13,0.37,0.05,0.017,0.035,9.781,0.0,-0.02,0.0
1777317180.5618508,-7.13,0.38,0.06,0.056,0.051,9.782,0.0,-0.01,0.0
1777317180.5726967,-7.12,0.39,0.07,0.073,0.062,9.788,0.0,-0.01,-0.01
1777317180.5826824,-7.11,0.39,0.09,0.089,0.09,9.793,0.0,-0.01,-0.01
1777317180.5918338,-7.1,0.39,0.09,0.096,0.101,9.798,0.0,0.0,-0.01
1777317180.6018603,-7.09,0.39,0.11,0.083,0.102,9.8,0.0,0.0,-0.01
1777317180.6126976,-7.08,0.38,0.12,0.071,0.108,9.798,0.0,0.0,-0.01
1777317180.6218214,-7.08,0.37,0.12,0.067,0.092,9.781,0.0,0.0,-0.01
1777317180.6326735,-7.09,0.36,0.12,0.026,0.081,9.782,0.0,0.0,0.0
1777317180.6418173,-7.1,0.34,0.12,0.001,0.095,9.784,-0.01,0.0,0.0
1777317180.6527774,-7.11,0.33,0.12,-0.024,0.102,9.782,-0.01,0.0,0.0
1777317180.6618242,-7.12,0.32,0.12,-0.051,0.105,9.778,-0.01,0.0,0.0
1777317180.67274,-7.12,0.31,0.12,-0.065,0.104,9.759,-0.01,0.0,0.0
1777317180.6818233,-7.12,0.3,0.11,-0.066,0.091,9.756,-0.01,0.0,0.0
1777317180.6919577,-7.11,0.3,0.11,-0.069,0.085,9.766,-0.01,-0.01,-0.01
1777317180.7018156,-7.1,0.3,0.11,-0.05,0.05,9.767,-0.01,-0.01,-0.01
1777317180.711967,-7.1,0.3,0.1,-0.029,0.006,9.772,-0.01,-0.01,-0.01
1777317180.721816,-7.1,0.31,0.1,-0.002,-0.011,9.781,-0.01,-0.01,-0.01
1777317180.7319634,-7.1,0.31,0.1,0.031,-0.031,9.782,0.0,-0.01,0.0
1777317180.741819,-7.11,0.32,0.1,0.044,-0.025,9.79,0.0,-0.01,0.0
1777317180.7519348,-7.12,0.32,0.11,0.061,0.012,9.794,0.0,-0.01,0.0
1777317180.7618408,-7.13,0.33,0.11,0.062,0.054,9.798,0.0,0.0,0.0
1777317180.7719746,-7.13,0.32,0.12,0.06,0.073,9.8,0.0,0.0,0.0
1777317180.781842,-7.13,0.32,0.13,0.038,0.084,9.802,0.0,0.0,0.0
1777317180.7918348,-7.13,0.32,0.14,0.03,0.086,9.785,0.0,0.0,0.0
1777317180.8018417,-7.13,0.31,0.15,0.008,0.126,9.78,0.0,0.0,0.0
1777317180.8118362,-7.13,0.3,0.16,0.002,0.154,9.784,0.0,-0.01,-0.01
1777317180.8218396,-7.11,0.3,0.16,-0.002,0.152,9.788,0.0,0.0,-0.01
1777317180.8318374,-7.1,0.3,0.17,0.0,0.159,9.794,-0.01,-0.01,-0.01
1777317180.8417902,-7.09,0.29,0.17,0.0,0.126,9.78,-0.01,0.0,-0.01
1777317180.851787,-7.08,0.29,0.16,0.0,0.078,9.773,-0.01,0.0,-0.01
1777317180.8618007,-7.08,0.29,0.15,0.0,0.035,9.763,-0.01,0.0,-0.01
1777317180.871909,-7.09,0.29,0.14,0.004,-0.023,9.762,-0.01,0.0,0.0
1777317180.8817618,-7.1,0.28,0.12,0.0,-0.022,9.766,-0.01,-0.01,0.0
1777317180.8918145,-7.13,0.28,0.12,0.007,0.002,9.773,-0.01,-0.01,0.01
1777317180.9017773,-7.13,0.28,0.13,0.004,0.032,9.77,-0.01,-0.01,0.01
1777317180.9118137,-7.13,0.28,0.13,0.002,0.049,9.764,0.0,0.0,0.0
1777317180.9217696,-7.13,0.28,0.14,0.01,0.055,9.767,0.0,-0.01,-0.01
1777317180.931803,-7.11,0.28,0.14,0.011,0.053,9.775,0.0,0.0,-0.01
1777317180.9417856,-7.1,0.28,0.15,0.016,0.044,9.781,0.0,-0.01,-0.01
1777317180.9518158,-7.1,0.28,0.15,0.004,0.004,9.786,0.0,-0.01,-0.01
1777317180.9617636,-7.1,0.28,0.15,0.019,0.01,9.766,0.0,-0.01,-0.01
1777317180.971785,-7.1,0.28,0.15,0.007,0.031,9.768,0.0,-0.01,0.0
1777317180.98177,-7.11,0.28,0.17,0.016,0.086,9.77,0.0,-0.01,0.0
1777317180.9917696,-7.11,0.28,0.17,0.006,0.12,9.781,0.0,0.0,0.0
1777317181.0017455,-7.11,0.28,0.19,0.017,0.115,9.788,0.0,-0.01,-0.01
1777317181.0117726,-7.1,0.27,0.18,0.018,0.108,9.79,0.0,0.0,-0.01
1777317181.0218096,-7.09,0.27,0.17,0.03,0.09,9.781,-0.01,0.0,-0.01
1777317181.0317712,-7.09,0.27,0.17,0.017,0.032,9.786,-0.01,0.0,-0.01
1777317181.0417476,-7.1,0.27,0.16,0.029,0.004,9.768,-0.01,-0.01,0.0
1777317181.0517895,-7.12,0.28,0.16,0.023,0.012,9.773,-0.01,0.0,0.0
1777317181.0617456,-7.13,0.27,0.16,0.016,0.056,9.764,-0.01,-0.01,0.01
1777317181.0717735,-7.13,0.27,0.17,0.024,0.093,9.769,-0.01,0.0,0.0
1777317181.0817456,-7.13,0.26,0.17,0.011,0.079,9.78,-0.01,-0.01,-0.01
1777317181.0917919,-7.11,0.26,0.17,0.007,0.066,9.774,0.0,0.0,-0.01
1777317181.1017616,-7.1,0.26,0.17,-0.001,0.041,9.763,-0.01,0.0,-0.01
1777317181.1117916,-7.1,0.25,0.16,0.004,-0.018,9.733,-0.01,0.0,-0.01
1777317181.1218085,-7.1,0.26,0.16,0.002,-0.001,9.744,0.0,0.0,0.0
1777317181.131753,-7.12,0.26,0.17,0.002,0.025,9.762,0.0,-0.01,0.0
1777317181.1417587,-7.12,0.26,0.17,0.01,0.083,9.77,0.0,0.0,0.0
1777317181.1517847,-7.11,0.26,0.19,0.012,0.098,9.769,0.0,-0.01,0.0
1777317181.161758,-7.1,0.26,0.18,0.014,0.091,9.772,0.0,-0.01,-0.01
1777317181.1717892,-7.09,0.25,0.19,0.019,0.091,9.778,-0.01,0.0,-0.01
1777317181.1816986,-7.09,0.25,0.18,0.016,0.024,9.785,-0.01,0.0,-0.01
1777317181.1917946,-7.1,0.25,0.18,0.031,0.019,9.776,0.0,-0.01,0.0
1777317181.2017608,-7.12,0.26,0.18,0.053,0.031,9.741,0.0,-0.01,0.0
1777317181.2117894,-7.13,0.27,0.18,0.126,0.066,9.645,0.0,-0.01,0.01
1777317181.2217607,-7.13,0.3,0.18,0.163,0.078,9.629,-0.01,-0.01,0.0
1777317181.231759,-7.15,0.33,0.15,0.127,-0.053,9.677,-0.01,-0.02,0.0
1777317181.2417612,-7.18,0.23,0.01,0.09,-0.302,9.712,-0.02,0.0,0.01
1777317181.251757,-7.2,0.17,-0.09,0.317,-0.238,9.738,-0.06,0.05,0.02
1777317181.261763,-7.21,0.12,-0.11,0.025,0.214,9.626,-0.05,0.04,0.01
1777317181.271755,-7.2,0.06,-0.02,0.007,0.408,9.157,-0.02,0.02,0.0
1777317181.281762,-7.15,0.07,0.07,-0.031,0.225,8.993,0.02,0.02,-0.02
1777317181.291758,-7.13,0.06,0.03,-0.074,0.104,9.209,0.03,-0.01,-0.03
1777317181.301767,-7.11,0.05,-0.02,-0.26,0.023,9.368,-0.01,-0.01,-0.02
1777317181.3117235,-7.08,0.05,-0.05,-0.077,0.305,9.485,-0.04,0.0,-0.01
1777317181.3217266,-7.06,0.04,-0.01,-0.186,0.405,9.515,-0.03,-0.01,-0.02
1777317181.331724,-7.03,0.06,0.07,0.017,0.313,9.242,0.01,-0.01,-0.02
1777317181.3417647,-7.01,0.12,0.08,-0.098,0.132,9.284,0.03,-0.02,-0.02
1777317181.3517563,-6.99,0.12,0.05,-0.008,0.072,9.338,0.0,-0.03,-0.02
1777317181.3617623,-6.96,0.2,-0.0,0.087,0.03,9.424,-0.02,-0.01,-0.02
1777317181.3717399,-6.97,0.22,-0.03,-0.071,0.073,9.526,-0.03,-0.04,-0.01
1777317181.3817086,-6.98,0.21,-0.05,0.067,0.03,9.602,-0.02,-0.02,0.0
1777317181.391758,-6.99,0.25,-0.06,0.208,0.105,9.565,-0.02,0.01,0.0
1777317181.401745,-6.99,0.28,-0.05,0.133,0.169,9.541,-0.02,-0.02,0.0
1777317181.4117234,-6.98,0.28,-0.03,0.159,0.133,9.509,0.0,-0.02,-0.01
1777317181.4217606,-6.97,0.3,-0.03,0.216,0.097,9.56,0.0,0.0,-0.01
1777317181.431785,-6.96,0.31,-0.01,0.178,0.049,9.626,0.0,-0.01,-0.01
1777317181.4417374,-6.97,0.31,-0.0,0.159,0.017,9.675,0.0,-0.01,-0.01
1777317181.45173,-6.98,0.29,-0.0,0.128,0.023,9.711,0.0,0.0,0.0
1777317181.461736,-6.98,0.27,0.0,0.116,0.067,9.7,-0.01,0.01,0.0
1777317181.4724288,-6.99,0.25,0.01,0.126,0.098,9.639,-0.01,0.02,0.0
1777317181.4817002,-6.99,0.23,0.03,0.131,0.129,9.615,0.0,0.01,0.0
1777317181.4917085,-7.01,0.22,0.06,0.077,0.122,9.658,0.0,0.01,0.0
1777317181.5017288,-7.02,0.2,0.08,0.013,0.12,9.699,0.01,0.0,0.0
1777317181.511708,-7.04,0.18,0.09,-0.013,0.116,9.727,0.01,0.0,0.01
1777317181.5217257,-7.06,0.17,0.09,-0.04,0.109,9.742,0.0,0.0,0.01
1777317181.5317063,-7.08,0.15,0.1,-0.04,0.147,9.696,-0.01,0.0,0.01
1777317181.5416925,-7.1,0.15,0.1,-0.05,0.19,9.653,-0.01,0.0,0.01
1777317181.5517254,-7.1,0.14,0.11,-0.055,0.199,9.664,-0.01,-0.01,0.0
1777317181.5617077,-7.1,0.15,0.11,-0.048,0.207,9.7,-0.01,-0.01,0.0
1777317181.5717075,-7.1,0.15,0.12,-0.059,0.171,9.729,-0.01,-0.01,-0.01
1777317181.5817013,-7.09,0.15,0.12,-0.036,0.133,9.75,-0.01,-0.01,-0.01
1777317181.5916905,-7.08,0.16,0.12,-0.005,0.108,9.757,-0.01,-0.01,-0.01
1777317181.6016881,-7.06,0.17,0.11,0.023,0.095,9.733,-0.01,-0.01,-0.01
1777317181.6108854,-7.05,0.18,0.1,0.055,0.075,9.708,-0.01,-0.01,-0.02
1777317181.6208577,-7.03,0.2,0.1,0.069,0.083,9.731,-0.01,-0.01,-0.02
1777317181.6316915,-7.02,0.21,0.11,0.067,0.077,9.751,-0.01,-0.01,-0.02
1777317181.64087,-7.01,0.21,0.11,0.074,0.065,9.767,0.0,-0.01,-0.02
1777317181.651692,-7.0,0.22,0.11,0.08,0.05,9.778,0.0,-0.01,-0.01
1777317181.6608562,-7.0,0.22,0.12,0.09,0.055,9.773,0.0,0.0,-0.01
1777317181.6708512,-7.01,0.22,0.12,0.083,0.041,9.756,0.0,0.0,-0.01
1777317181.6816928,-7.01,0.22,0.12,0.086,0.055,9.753,0.0,0.0,0.0
1777317181.6908362,-7.03,0.22,0.13,0.075,0.085,9.767,-0.01,0.0,0.01
1777317181.7016952,-7.05,0.22,0.13,0.053,0.096,9.779,0.0,-0.01,0.01
1777317181.7108405,-7.07,0.21,0.14,0.044,0.103,9.786,0.0,0.0,0.01
1777317181.7208643,-7.08,0.21,0.16,0.048,0.126,9.787,0.0,0.0,0.01
1777317181.7308497,-7.09,0.21,0.16,0.05,0.131,9.762,0.0,0.0,0.0
1777317181.740874,-7.09,0.2,0.17,0.046,0.143,9.75,0.0,0.0,0.0
1777317181.7508543,-7.09,0.2,0.18,0.049,0.162,9.76,-0.01,0.0,0.0
1777317181.7608595,-7.08,0.2,0.18,0.017,0.147,9.773,-0.01,0.0,-0.01
1777317181.7708344,-7.06,0.19,0.18,0.007,0.152,9.782,-0.01,0.0,-0.01
1777317181.780834,-7.05,0.19,0.18,0.016,0.151,9.79,-0.01,0.0,-0.01
1777317181.7908554,-7.03,0.19,0.18,0.01,0.134,9.773,-0.01,0.0,-0.02
1777317181.8008296,-7.03,0.19,0.18,0.028,0.117,9.748,-0.01,0.0,-0.01
1777317181.81085,-7.02,0.19,0.18,0.034,0.099,9.755,0.0,-0.01,-0.01
1777317181.8207843,-7.01,0.2,0.18,0.035,0.065,9.767,-0.01,-0.01,-0.01
1777317181.8308117,-7.01,0.2,0.18,0.036,0.056,9.778,-0.01,-0.01,-0.01
1777317181.8408332,-7.01,0.21,0.18,0.041,0.041,9.786,-0.01,-0.01,-0.01
1777317181.8507872,-7.01,0.2,0.17,0.044,0.028,9.779,-0.01,-0.01,-0.01
1777317181.8608098,-7.02,0.21,0.16,0.057,0.037,9.779,-0.01,0.0,0.0
1777317181.8707812,-7.03,0.21,0.17,0.055,0.06,9.769,-0.01,-0.01,0.0
1777317181.880806,-7.04,0.21,0.18,0.056,0.055,9.773,0.0,0.0,0.0
1777317181.890812,-7.05,0.21,0.18,0.055,0.075,9.782,0.0,-0.01,0.0
1777317181.9008327,-7.06,0.21,0.19,0.054,0.079,9.79,0.0,-0.01,0.0
1777317181.9107924,-7.05,0.21,0.2,0.057,0.078,9.796,0.0,0.0,0.0
1777317181.9208019,-7.05,0.21,0.2,0.054,0.087,9.798,0.0,0.0,-0.01
1777317181.9308114,-7.04,0.21,0.2,0.054,0.107,9.784,0.0,0.0,-0.01
1777317181.9407868,-7.04,0.21,0.2,0.037,0.099,9.769,0.0,0.0,-0.01
1777317181.9508014,-7.03,0.2,0.21,0.042,0.104,9.774,0.0,0.0,-0.01
1777317181.9608364,-7.03,0.21,0.22,0.031,0.11,9.784,0.0,0.0,-0.01
1777317181.9708014,-7.04,0.2,0.23,0.011,0.091,9.791,0.0,-0.01,-0.01
1777317181.9807878,-7.04,0.2,0.23,0.024,0.104,9.793,0.0,0.0,0.0
1777317181.9907644,-7.04,0.2,0.23,0.026,0.115,9.797,-0.01,-0.01,0.0
1777317182.0007966,-7.04,0.2,0.23,0.037,0.098,9.78,-0.01,-0.01,0.0
1777317182.010762,-7.04,0.21,0.23,0.048,0.116,9.786,-0.01,-0.01,0.0
1777317182.0207574,-7.04,0.21,0.23,0.041,0.087,9.793,-0.01,-0.01,0.0
1777317182.0307696,-7.05,0.21,0.23,0.049,0.075,9.797,-0.01,-0.01,0.0
1777317182.0407584,-7.06,0.22,0.22,0.049,0.081,9.8,-0.01,0.0,0.0
1777317182.0507996,-7.06,0.22,0.23,0.051,0.069,9.794,-0.01,-0.01,0.0
1777317182.0608003,-7.06,0.22,0.23,0.057,0.077,9.788,0.0,0.0,0.0
1777317182.0707712,-7.06,0.22,0.23,0.059,0.071,9.794,0.0,-0.01,0.0
1777317182.080769,-7.06,0.22,0.24,0.055,0.061,9.799,0.0,0.0,-0.01
1777317182.0907419,-7.05,0.22,0.24,0.053,0.061,9.802,0.0,0.0,-0.01
1777317182.1007707,-7.05,0.21,0.24,0.049,0.084,9.804,-0.01,0.0,-0.01
1777317182.1108,-7.05,0.21,0.25,0.034,0.075,9.788,0.0,0.0,-0.01
1777317182.1207547,-7.05,0.21,0.25,0.03,0.078,9.778,0.0,0.0,-0.01
1777317182.1307821,-7.05,0.21,0.25,0.03,0.085,9.786,0.0,0.0,0.0
1777317182.1408195,-7.05,0.21,0.26,0.019,0.084,9.792,0.0,-0.01,0.0
1777317182.1507444,-7.06,0.21,0.26,0.031,0.084,9.796,0.0,-0.01,0.0
1777317182.1607745,-7.06,0.21,0.26,0.024,0.12,9.799,-0.01,-0.01,0.0
1777317182.1707425,-7.06,0.21,0.27,0.036,0.098,9.787,-0.01,-0.01,0.0
1777317182.1808023,-7.06,0.22,0.26,0.044,0.126,9.788,-0.01,-0.01,-0.01
1777317182.190718,-7.05,0.22,0.27,0.051,0.12,9.792,-0.01,-0.01,-0.01
1777317182.200768,-7.04,0.22,0.26,0.05,0.108,9.787,-0.01,-0.01,-0.01
1777317182.2107456,-7.04,0.23,0.26,0.051,0.103,9.79,-0.01,-0.01,-0.01
1777317182.22074,-7.04,0.23,0.27,0.046,0.092,9.794,-0.01,-0.01,-0.01
1777317182.2307541,-7.04,0.23,0.27,0.049,0.077,9.788,0.0,0.0,-0.01
1777317182.2407596,-7.04,0.23,0.27,0.049,0.074,9.793,0.0,0.0,0.0
1777317182.2507563,-7.04,0.23,0.27,0.044,0.061,9.797,-0.01,0.0,-0.01
1777317182.2607694,-7.03,0.22,0.26,0.054,0.047,9.792,-0.01,0.0,-0.01
1777317182.2707574,-7.03,0.22,0.26,0.044,0.056,9.796,-0.01,0.0,-0.01
1777317182.2807722,-7.03,0.22,0.26,0.035,0.044,9.793,-0.01,0.0,-0.01
1777317182.2907677,-7.03,0.21,0.26,0.032,0.047,9.788,0.0,0.0,-0.01
1777317182.3007567,-7.03,0.21,0.27,0.03,0.051,9.776,0.0,0.0,0.0
1777317182.3107553,-7.03,0.21,0.27,0.023,0.043,9.774,0.0,-0.01,0.0
1777317182.3207245,-7.04,0.21,0.27,0.026,0.05,9.781,0.0,0.0,0.0
1777317182.3307574,-7.05,0.21,0.27,0.034,0.072,9.788,0.0,-0.01,0.0
1777317182.3407593,-7.05,0.22,0.28,0.029,0.083,9.794,0.0,-0.01,0.0
1777317182.3507302,-7.05,0.22,0.28,0.036,0.08,9.791,0.0,-0.01,0.0
1777317182.360742,-7.05,0.22,0.29,0.038,0.083,9.797,0.0,-0.01,0.0
1777317182.3707068,-7.05,0.22,0.28,0.032,0.081,9.798,-0.01,-0.01,-0.01
1777317182.3807583,-7.06,0.23,0.28,0.047,0.089,9.799,-0.01,-0.01,0.0
1777317182.3907404,-7.06,0.23,0.29,0.04,0.096,9.803,-0.01,-0.01,0.0
1777317182.400759,-7.06,0.23,0.29,0.057,0.089,9.792,0.0,-0.01,0.0
1777317182.4107587,-7.06,0.24,0.29,0.062,0.087,9.794,0.0,0.0,0.0
1777317182.420726,-7.06,0.24,0.29,0.066,0.077,9.799,0.0,-0.01,-0.01
1777317182.430693,-7.06,0.24,0.29,0.063,0.08,9.8,-0.01,0.0,-0.01
1777317182.4407237,-7.05,0.24,0.29,0.061,0.085,9.803,-0.01,0.0,-0.01
1777317182.4507232,-7.05,0.24,0.29,0.054,0.077,9.802,-0.01,0.0,-0.01
1777317182.4607537,-7.04,0.23,0.29,0.049,0.089,9.804,-0.01,0.0,-0.01
1777317182.470712,-7.04,0.23,0.29,0.044,0.089,9.796,-0.01,0.0,-0.01
1777317182.480741,-7.04,0.23,0.29,0.036,0.087,9.797,-0.01,0.0,-0.01
1777317182.4906907,-7.04,0.22,0.3,0.032,0.075,9.787,0.0,0.0,-0.01
1777317182.5007057,-7.04,0.22,0.3,0.025,0.066,9.781,0.0,-0.01,0.0
1777317182.5107071,-7.04,0.22,0.3,0.025,0.063,9.774,0.0,0.0,0.0
1777317182.5206947,-7.05,0.22,0.29,0.022,0.055,9.784,-0.01,-0.01,0.0
1777317182.5307083,-7.05,0.22,0.29,0.026,0.057,9.791,-0.01,-0.01,0.0
1777317182.5407398,-7.05,0.22,0.29,0.031,0.054,9.787,-0.01,0.0,0.0
1777317182.550706,-7.06,0.22,0.29,0.032,0.06,9.786,-0.01,-0.01,0.0
1777317182.5607197,-7.06,0.23,0.29,0.041,0.061,9.775,0.0,-0.01,0.0
1777317182.5706902,-7.06,0.23,0.3,0.043,0.062,9.772,0.0,-0.01,0.0
1777317182.580708,-7.06,0.23,0.3,0.048,0.077,9.781,0.0,-0.01,0.0
1777317182.5907238,-7.06,0.23,0.3,0.053,0.055,9.788,0.0,-0.01,0.0
1777317182.600706,-7.05,0.23,0.31,0.042,0.077,9.794,-0.01,-0.01,-0.01
1777317182.610674,-7.05,0.24,0.3,0.048,0.073,9.792,-0.01,0.0,-0.01
1777317182.6198688,-7.04,0.23,0.31,0.044,0.095,9.791,-0.01,-0.01,-0.01
1777317182.6306934,-7.04,0.23,0.31,0.047,0.075,9.785,0.0,0.0,-0.01
1777317182.640673,-7.04,0.23,0.32,0.034,0.089,9.791,-0.01,-0.01,-0.01
1777317182.6506894,-7.03,0.23,0.32,0.04,0.073,9.788,0.0,0.0,-0.01
1777317182.6606774,-7.03,0.23,0.32,0.036,0.074,9.794,-0.01,-0.01,-0.01
1777317182.6707168,-7.03,0.23,0.32,0.04,0.073,9.798,-0.01,0.0,-0.01
1777317182.6798728,-7.03,0.23,0.32,0.042,0.074,9.791,-0.01,0.0,0.0
1777317182.6909285,-7.04,0.23,0.32,0.044,0.06,9.787,-0.01,0.0,0.0
1777317182.6998541,-7.04,0.23,0.31,0.043,0.069,9.787,-0.01,-0.01,0.0
1777317182.7107694,-7.05,0.23,0.31,0.042,0.066,9.792,-0.01,-0.01,0.0
1777317182.719936,-7.05,0.23,0.32,0.048,0.067,9.796,-0.01,-0.01,0.0
1777317182.730794,-7.05,0.23,0.32,0.044,0.063,9.799,0.0,0.0,0.0
1777317182.7398694,-7.05,0.23,0.32,0.046,0.066,9.802,0.0,0.0,-0.01
1777317182.7506807,-7.05,0.23,0.32,0.054,0.054,9.799,-0.01,-0.01,-0.01
1777317182.7598581,-7.04,0.24,0.31,0.047,0.068,9.797,-0.01,0.0,-0.01
1777317182.7698405,-7.04,0.23,0.32,0.047,0.054,9.797,-0.01,-0.01,-0.01
1777317182.7798548,-7.04,0.23,0.32,0.038,0.084,9.797,0.0,0.0,-0.01
1777317182.79069,-7.04,0.23,0.32,0.036,0.062,9.794,0.0,-0.01,-0.01
1777317182.7998526,-7.04,0.23,0.32,0.029,0.071,9.793,0.0,-0.01,0.0
1777317182.8098817,-7.04,0.23,0.32,0.035,0.066,9.794,0.0,-0.01,0.0
1777317182.8198323,-7.05,0.23,0.32,0.035,0.073,9.798,-0.01,-0.01,0.0
1777317182.8298743,-7.05,0.23,0.32,0.036,0.072,9.797,-0.01,-0.01,0.0
1777317182.8398566,-7.06,0.23,0.32,0.035,0.09,9.797,-0.01,-0.01,0.0
1777317182.8498578,-7.06,0.23,0.33,0.042,0.079,9.792,-0.01,-0.01,0.0
1777317182.8598654,-7.05,0.24,0.33,0.038,0.109,9.797,0.0,-0.01,-0.01
1777317182.8698633,-7.05,0.24,0.33,0.048,0.084,9.8,-0.01,-0.01,-0.01
1777317182.879817,-7.04,0.24,0.33,0.041,0.091,9.8,-0.01,0.0,-0.01
1777317182.8898582,-7.04,0.24,0.33,0.048,0.073,9.797,-0.01,0.0,-0.01
1777317182.8998222,-7.04,0.24,0.33,0.044,0.069,9.792,-0.01,0.0,-0.01
1777317182.9098356,-7.03,0.24,0.33,0.041,0.049,9.787,0.0,0.0,-0.01
1777317182.919867,-7.03,0.23,0.32,0.037,0.06,9.788,-0.01,-0.01,-0.01
1777317182.9298403,-7.03,0.24,0.32,0.042,0.044,9.791,-0.01,0.0,-0.01
1777317182.9398527,-7.03,0.23,0.32,0.034,0.056,9.796,-0.01,-0.01,0.0
1777317182.9497907,-7.04,0.23,0.32,0.036,0.059,9.79,-0.01,0.0,0.0
1777317182.959823,-7.05,0.23,0.32,0.036,0.06,9.782,-0.01,0.0,0.0
1777317182.9698365,-7.06,0.23,0.33,0.041,0.068,9.785,0.0,-0.01,0.0
1777317182.9798024,-7.06,0.24,0.33,0.044,0.065,9.79,0.0,-0.01,0.0
1777317182.9897935,-7.06,0.24,0.33,0.047,0.074,9.794,0.0,-0.01,0.0
1777317182.9999516,-7.06,0.24,0.33,0.048,0.067,9.796,-0.01,-0.01,-0.01
1777317183.009833,-7.05,0.24,0.33,0.043,0.074,9.796,-0.01,0.0,-0.01
1777317183.0197892,-7.04,0.24,0.33,0.048,0.075,9.793,-0.01,0.0,-0.01
1777317183.0298657,-7.04,0.24,0.33,0.042,0.069,9.786,0.0,0.0,-0.01
1777317183.0400422,-7.03,0.24,0.34,0.036,0.068,9.781,0.0,-0.01,-0.01
1777317183.0497873,-7.03,0.24,0.33,0.035,0.055,9.788,0.0,0.0,-0.01
1777317183.0599113,-7.03,0.24,0.33,0.029,0.062,9.793,-0.01,-0.01,-0.01
1777317183.0697594,-7.02,0.24,0.33,0.035,0.059,9.79,-0.01,0.0,-0.01
1777317183.079932,-7.02,0.24,0.33,0.036,0.066,9.791,-0.01,-0.01,-0.01
1777317183.0897875,-7.03,0.24,0.33,0.036,0.066,9.784,0.0,0.0,0.0
1777317183.0999095,-7.03,0.24,0.33,0.04,0.057,9.787,-0.01,-0.01,0.0
1777317183.1097891,-7.03,0.24,0.33,0.043,0.068,9.786,-0.01,0.0,0.0
1777317183.119874,-7.03,0.24,0.33,0.046,0.056,9.787,0.0,0.0,0.0
1777317183.1297832,-7.04,0.24,0.33,0.042,0.062,9.784,-0.01,-0.01,0.0
1777317183.1397963,-7.04,0.24,0.33,0.043,0.065,9.78,0.0,0.0,0.0
1777317183.149781,-7.04,0.24,0.33,0.046,0.059,9.784,0.0,-0.01,0.0
1777317183.1599205,-7.03,0.24,0.33,0.042,0.061,9.785,0.0,0.0,-0.01
1777317183.1697457,-7.03,0.24,0.34,0.041,0.059,9.786,0.0,0.0,-0.01
1777317183.1797748,-7.03,0.24,0.33,0.038,0.057,9.79,0.0,0.0,-0.01
1777317183.1897635,-7.03,0.24,0.33,0.038,0.063,9.794,-0.01,-0.01,-0.01
1777317183.199753,-7.04,0.23,0.33,0.035,0.071,9.79,0.0,0.0,0.0
1777317183.2097945,-7.04,0.23,0.34,0.03,0.062,9.781,-0.01,0.0,0.0
1777317183.21993,-7.04,0.23,0.34,0.031,0.066,9.764,0.0,0.0,0.0
1777317183.229769,-7.05,0.23,0.34,0.032,0.068,9.766,0.0,-0.01,0.0
1777317183.2397592,-7.05,0.23,0.34,0.03,0.065,9.778,0.0,-0.01,0.0
1777317183.2503083,-7.05,0.23,0.34,0.029,0.071,9.786,0.0,-0.01,0.0
1777317183.259763,-7.05,0.23,0.34,0.034,0.075,9.79,-0.01,-0.01,0.0
1777317183.2697997,-7.05,0.23,0.34,0.041,0.071,9.79,0.0,0.0,-0.01
1777317183.279764,-7.05,0.23,0.34,0.041,0.065,9.781,0.0,0.0,-0.01
1777317183.2897816,-7.05,0.23,0.34,0.038,0.068,9.778,-0.01,-0.01,-0.01
1777317183.2997627,-7.05,0.23,0.34,0.035,0.073,9.786,0.0,-0.01,-0.01
1777317183.3097763,-7.05,0.23,0.34,0.032,0.077,9.791,0.0,0.0,0.0
1777317183.3197756,-7.05,0.23,0.34,0.029,0.072,9.79,0.0,-0.01,0.0
1777317183.3297818,-7.05,0.23,0.34,0.028,0.068,9.78,0.0,0.0,0.0
1777317183.3397632,-7.05,0.23,0.34,0.031,0.08,9.785,-0.01,0.0,0.0
1777317183.3497667,-7.05,0.23,0.34,0.04,0.081,9.779,-0.01,-0.01,0.0
1777317183.3597653,-7.05,0.23,0.34,0.035,0.087,9.779,-0.01,-0.01,-0.01
1777317183.3697524,-7.04,0.23,0.34,0.034,0.104,9.787,-0.01,-0.01,-0.01
1777317183.379761,-7.04,0.23,0.34,0.04,0.085,9.79,-0.01,0.0,-0.01
1777317183.3897676,-7.03,0.23,0.34,0.037,0.087,9.791,-0.01,-0.01,-0.01
1777317183.3997653,-7.02,0.23,0.34,0.042,0.073,9.786,0.0,0.0,-0.01
1777317183.4097664,-7.02,0.23,0.34,0.041,0.061,9.787,-0.01,0.0,-0.01
1777317183.4197617,-7.02,0.23,0.34,0.038,0.051,9.791,-0.01,0.0,-0.01
1777317183.4297838,-7.02,0.23,0.34,0.035,0.044,9.796,-0.01,-0.01,-0.01
1777317183.4397876,-7.02,0.23,0.34,0.034,0.038,9.798,-0.01,-0.01,0.0
1777317183.4498134,-7.03,0.23,0.33,0.04,0.036,9.793,-0.01,-0.01,0.0
1777317183.4597397,-7.04,0.23,0.33,0.038,0.049,9.79,-0.01,-0.01,0.0
1777317183.469816,-7.05,0.23,0.33,0.04,0.061,9.78,0.0,0.0,0.0
1777317183.4799356,-7.06,0.23,0.34,0.041,0.055,9.78,0.0,-0.01,0.0
1777317183.4897857,-7.06,0.23,0.34,0.046,0.062,9.785,0.0,-0.01,0.0
1777317183.4999442,-7.06,0.23,0.34,0.037,0.062,9.791,0.0,0.0,0.0
1777317183.5097373,-7.06,0.23,0.34,0.032,0.067,9.797,0.0,0.0,-0.01
1777317183.5199084,-7.05,0.23,0.34,0.03,0.072,9.79,0.0,0.0,-0.01
1777317183.5297544,-7.04,0.22,0.34,0.028,0.077,9.785,0.0,0.0,-0.01
1777317183.539714,-7.04,0.22,0.35,0.029,0.079,9.778,0.0,-0.01,-0.01
1777317183.5497813,-7.04,0.23,0.35,0.026,0.077,9.778,0.0,-0.01,-0.01
1777317183.5597143,-7.04,0.23,0.36,0.026,0.068,9.785,0.0,-0.01,-0.01
1777317183.569753,-7.04,0.23,0.36,0.028,0.065,9.786,0.0,-0.01,0.0
1777317183.5797107,-7.04,0.23,0.35,0.032,0.075,9.792,-0.01,-0.01,0.0
1777317183.5897021,-7.05,0.23,0.35,0.041,0.068,9.786,-0.01,-0.01,0.0
1777317183.5997307,-7.05,0.23,0.35,0.042,0.083,9.782,-0.01,-0.01,0.0
1777317183.6097157,-7.06,0.24,0.35,0.048,0.073,9.781,-0.01,-0.01,0.0
1777317183.6188889,-7.06,0.24,0.35,0.042,0.092,9.79,-0.01,-0.01,0.0
1777317183.6297238,-7.06,0.24,0.35,0.053,0.073,9.794,-0.01,-0.01,0.0
1777317183.6396809,-7.06,0.24,0.35,0.047,0.085,9.793,-0.01,0.0,0.0
1777317183.649697,-7.06,0.24,0.36,0.048,0.075,9.788,0.0,0.0,-0.01
1777317183.6597226,-7.05,0.24,0.36,0.05,0.068,9.785,0.0,0.0,-0.01
1777317183.6697028,-7.05,0.24,0.35,0.038,0.061,9.785,-0.01,0.0,-0.01
1777317183.6788623,-7.05,0.23,0.35,0.032,0.053,9.784,-0.01,0.0,-0.01
1777317183.6897001,-7.05,0.23,0.35,0.026,0.056,9.786,-0.01,0.0,-0.01
1777317183.6997273,-7.05,0.23,0.35,0.026,0.048,9.792,-0.01,0.0,0.0
1777317183.708863,-7.05,0.23,0.35,0.029,0.05,9.794,0.0,0.0,0.0
1777317183.7188509,-7.05,0.23,0.35,0.03,0.04,9.784,0.0,0.0,0.0
1777317183.7297034,-7.06,0.23,0.34,0.022,0.057,9.791,-0.01,-0.01,0.0
1777317183.738897,-7.06,0.23,0.35,0.026,0.057,9.794,-0.01,-0.01,0.0
1777317183.7497146,-7.06,0.23,0.35,0.024,0.065,9.798,-0.01,-0.01,0.0
1777317183.7588565,-7.05,0.23,0.35,0.029,0.066,9.796,0.0,-0.01,-0.01
1777317183.7688422,-7.05,0.23,0.35,0.036,0.051,9.791,0.0,-0.01,-0.01
1777317183.7796795,-7.04,0.23,0.35,0.032,0.074,9.791,0.0,-0.01,-0.01
1777317183.788842,-7.04,0.23,0.35,0.038,0.055,9.786,-0.01,-0.01,-0.01
1777317183.798844,-7.04,0.23,0.35,0.034,0.066,9.792,-0.01,-0.01,-0.01
1777317183.8097003,-7.04,0.23,0.35,0.035,0.066,9.792,-0.01,-0.01,-0.01
1777317183.8188543,-7.04,0.23,0.35,0.036,0.06,9.782,-0.01,-0.01,0.0
1777317183.8297043,-7.05,0.23,0.35,0.037,0.072,9.779,-0.01,0.0,0.0
1777317183.8388407,-7.05,0.23,0.35,0.044,0.073,9.781,0.0,0.0,0.0
1777317183.848838,-7.05,0.23,0.35,0.042,0.066,9.782,-0.01,-0.01,0.0
1777317183.8596828,-7.05,0.23,0.35,0.036,0.08,9.787,0.0,0.0,0.0
1777317183.8688364,-7.05,0.23,0.35,0.038,0.062,9.788,-0.01,-0.01,-0.01
1777317183.8788388,-7.05,0.23,0.35,0.034,0.084,9.788,-0.01,0.0,-0.01
1777317183.8888338,-7.04,0.23,0.35,0.034,0.065,9.785,-0.01,0.0,-0.01
1777317183.8988419,-7.04,0.23,0.36,0.025,0.074,9.778,-0.01,0.0,-0.01
1777317183.9088368,-7.04,0.23,0.36,0.031,0.061,9.77,0.0,0.0,-0.01
1777317183.9188423,-7.04,0.23,0.35,0.032,0.053,9.773,-0.01,-0.01,-0.01
1777317183.9288237,-7.04,0.23,0.35,0.03,0.059,9.782,-0.01,-0.01,0.0
1777317183.9388185,-7.04,0.23,0.34,0.03,0.056,9.781,-0.01,0.0,0.0
1777317183.9487956,-7.05,0.23,0.35,0.029,0.065,9.784,-0.01,-0.01,0.0
1777317183.9588304,-7.06,0.23,0.35,0.036,0.068,9.782,0.0,0.0,0.0
1777317183.9688385,-7.06,0.23,0.35,0.037,0.057,9.778,0.0,-0.01,0.0
1777317183.9787927,-7.06,0.23,0.35,0.04,0.06,9.786,0.0,-0.01,0.0
1777317183.9888241,-7.06,0.23,0.35,0.037,0.059,9.781,-0.01,-0.01,0.0
1777317183.9987981,-7.05,0.23,0.35,0.041,0.063,9.784,-0.01,-0.01,-0.01
1777317184.008821,-7.05,0.23,0.35,0.041,0.065,9.785,-0.01,0.0,-0.01
1777317184.0187833,-7.04,0.23,0.35,0.032,0.072,9.786,0.0,0.0,-0.01
1777317184.0288146,-7.04,0.23,0.36,0.035,0.081,9.778,0.0,0.0,-0.01
1777317184.038766,-7.03,0.23,0.36,0.034,0.072,9.78,0.0,0.0,-0.01
1777317184.048823,-7.03,0.23,0.36,0.026,0.085,9.787,-0.01,-0.01,-0.01
1777317184.0587842,-7.03,0.23,0.36,0.028,0.08,9.793,-0.01,0.0,-0.01
1777317184.0687828,-7.03,0.23,0.36,0.026,0.086,9.797,-0.01,-0.01,-0.01
1777317184.0788085,-7.03,0.23,0.36,0.026,0.069,9.79,0.0,0.0,-0.01
1777317184.088779,-7.03,0.23,0.36,0.03,0.074,9.782,-0.01,-0.01,0.0
1777317184.0987787,-7.03,0.23,0.35,0.034,0.067,9.782,0.0,0.0,0.0
1777317184.1087656,-7.03,0.23,0.35,0.035,0.055,9.786,-0.01,-0.01,0.0
1777317184.1187832,-7.03,0.23,0.35,0.032,0.05,9.792,-0.01,-0.01,0.0
1777317184.1287804,-7.04,0.23,0.34,0.035,0.05,9.791,-0.01,0.0,0.0
1777317184.1387827,-7.04,0.23,0.34,0.037,0.044,9.782,-0.01,-0.01,0.0
1777317184.1487896,-7.04,0.23,0.34,0.042,0.047,9.775,-0.01,0.0,0.0
1777317184.1587422,-7.04,0.23,0.34,0.038,0.046,9.773,0.0,0.0,0.0
1777317184.1687515,-7.04,0.22,0.34,0.041,0.034,9.778,0.0,0.0,0.0
1777317184.1787724,-7.04,0.22,0.34,0.035,0.04,9.784,0.0,0.0,0.0
1777317184.18915,-7.04,0.22,0.34,0.029,0.035,9.788,-0.01,-0.01,0.0
1777317184.1991491,-7.04,0.22,0.34,0.026,0.054,9.784,0.0,0.0,0.0
1777317184.2087457,-7.05,0.22,0.35,0.025,0.053,9.779,0.0,0.0,0.0
1777317184.2187464,-7.05,0.22,0.35,0.029,0.059,9.778,0.0,0.0,0.0
1777317184.228741,-7.05,0.22,0.35,0.032,0.06,9.781,0.0,0.0,0.0
1777317184.2387795,-7.06,0.22,0.35,0.032,0.072,9.788,0.0,-0.01,0.0
1777317184.2487395,-7.06,0.22,0.35,0.036,0.067,9.794,-0.01,-0.01,0.0
1777317184.2587852,-7.06,0.23,0.36,0.037,0.085,9.796,-0.01,-0.01,-0.01
1777317184.2687538,-7.05,0.22,0.35,0.048,0.086,9.786,-0.01,0.0,-0.01
1777317184.2787478,-7.05,0.23,0.35,0.049,0.077,9.78,-0.01,-0.01,-0.01
1777317184.2887812,-7.04,0.23,0.35,0.047,0.101,9.78,-0.01,-0.01,-0.01
1777317184.298792,-7.04,0.23,0.35,0.056,0.081,9.787,-0.01,0.0,-0.01
1777317184.3087535,-7.03,0.23,0.35,0.047,0.091,9.79,-0.01,-0.01,-0.01
1777317184.3187845,-7.03,0.23,0.35,0.051,0.077,9.782,0.0,0.0,-0.01
1777317184.3287528,-7.03,0.23,0.35,0.048,0.068,9.785,-0.01,0.0,-0.01
1777317184.3387828,-7.03,0.23,0.34,0.046,0.054,9.779,-0.01,0.0,0.0
1777317184.34875,-7.04,0.22,0.34,0.041,0.047,9.788,-0.01,0.0,0.0
1777317184.3587625,-7.04,0.22,0.34,0.035,0.051,9.794,-0.01,-0.01,0.0
1777317184.3687515,-7.04,0.22,0.34,0.038,0.04,9.787,-0.01,0.0,0.0
1777317184.3787637,-7.05,0.22,0.34,0.031,0.053,9.793,0.0,0.0,0.0
1777317184.3887653,-7.05,0.22,0.34,0.036,0.04,9.779,0.0,0.0,0.0
1777317184.3987627,-7.05,0.22,0.34,0.028,0.06,9.785,0.0,0.0,0.0
1777317184.4087772,-7.04,0.22,0.34,0.034,0.053,9.781,-0.01,-0.01,-0.01
1777317184.4187639,-7.04,0.22,0.34,0.03,0.062,9.787,0.0,0.0,-0.01
1777317184.4287472,-7.04,0.22,0.35,0.029,0.067,9.788,0.0,-0.01,-0.01
1777317184.4387646,-7.04,0.22,0.35,0.037,0.067,9.784,0.0,-0.01,-0.01
1777317184.4487607,-7.04,0.22,0.35,0.036,0.068,9.782,0.0,-0.01,-0.01
1777317184.4587636,-7.04,0.22,0.35,0.038,0.059,9.782,0.0,-0.01,0.0
1777317184.468765,-7.05,0.23,0.35,0.042,0.066,9.79,-0.01,-0.01,0.0
1777317184.4787352,-7.05,0.23,0.35,0.047,0.066,9.792,-0.01,-0.01,0.0
1777317184.4887645,-7.06,0.23,0.35,0.053,0.075,9.785,-0.01,-0.01,0.0
1777317184.4992082,-7.06,0.23,0.36,0.056,0.083,9.788,0.0,-0.01,0.0
1777317184.5087516,-7.06,0.24,0.36,0.062,0.089,9.788,0.0,0.0,0.0
1777317184.5187814,-7.06,0.24,0.36,0.057,0.089,9.791,-0.01,0.0,-0.01
1777317184.5287604,-7.05,0.24,0.36,0.055,0.091,9.796,-0.01,-0.01,-0.01
1777317184.5387268,-7.04,0.24,0.35,0.048,0.086,9.799,-0.01,0.0,-0.01
1777317184.5487719,-7.03,0.23,0.36,0.041,0.084,9.797,-0.01,0.0,-0.01
1777317184.55874,-7.03,0.23,0.35,0.042,0.066,9.785,-0.01,0.0,-0.01
1777317184.5687227,-7.02,0.23,0.35,0.034,0.057,9.781,-0.01,0.0,-0.01
1777317184.5787551,-7.02,0.22,0.35,0.032,0.047,9.781,0.0,0.0,-0.01
1777317184.5887065,-7.03,0.22,0.34,0.026,0.035,9.788,-0.01,-0.01,0.0
1777317184.598728,-7.03,0.22,0.34,0.026,0.036,9.791,-0.01,-0.01,0.0
1777317184.6087594,-7.04,0.22,0.34,0.026,0.031,9.786,-0.01,0.0,0.0
1777317184.6187212,-7.04,0.22,0.34,0.029,0.035,9.785,-0.01,-0.01,0.0
1777317184.6287515,-7.05,0.22,0.34,0.035,0.044,9.778,-0.01,0.0,0.0
1777317184.6387105,-7.05,0.22,0.34,0.031,0.054,9.785,0.0,-0.01,0.0
1777317184.6487222,-7.06,0.22,0.34,0.037,0.049,9.781,0.0,0.0,0.0
1777317184.6587405,-7.05,0.23,0.34,0.032,0.056,9.788,0.0,-0.01,0.0
1777317184.6687055,-7.05,0.22,0.35,0.032,0.057,9.794,0.0,-0.01,-0.01
1777317184.6787388,-7.05,0.22,0.35,0.028,0.065,9.794,0.0,-0.01,-0.01
1777317184.688704,-7.05,0.22,0.35,0.036,0.073,9.786,0.0,0.0,-0.01
1777317184.698757,-7.05,0.23,0.36,0.037,0.083,9.787,0.0,-0.01,-0.01
1777317184.708712,-7.04,0.23,0.36,0.037,0.089,9.79,0.0,-0.01,-0.01
1777317184.7187397,-7.05,0.23,0.36,0.042,0.084,9.794,0.0,-0.01,0.0
1777317184.728722,-7.05,0.23,0.36,0.041,0.09,9.799,0.0,0.0,0.0
1777317184.7387123,-7.05,0.23,0.36,0.049,0.072,9.794,-0.01,-0.01,0.0
1777317184.7487216,-7.05,0.23,0.36,0.037,0.105,9.796,-0.01,0.0,0.0
1777317184.758705,-7.05,0.23,0.36,0.051,0.083,9.791,-0.01,-0.01,0.0
1777317184.767847,-7.05,0.23,0.36,0.047,0.101,9.796,-0.01,0.0,-0.01
1777317184.7787015,-7.04,0.23,0.36,0.051,0.078,9.798,-0.01,0.0,-0.01
1777317184.7878876,-7.04,0.23,0.36,0.048,0.054,9.8,-0.01,0.0,-0.01
1777317184.7987218,-7.04,0.23,0.35,0.038,0.061,9.803,-0.01,0.0,-0.01
1777317184.8086884,-7.03,0.23,0.34,0.04,0.036,9.796,-0.01,0.0,-0.01
1777317184.8178492,-7.03,0.23,0.34,0.032,0.051,9.796,-0.01,0.0,-0.01
1777317184.8278449,-7.03,0.22,0.34,0.035,0.035,9.798,0.0,0.0,-0.01
1777317184.8387341,-7.04,0.22,0.34,0.031,0.035,9.798,0.0,-0.01,0.0
1777317184.848743,-7.04,0.22,0.34,0.034,0.034,9.796,0.0,0.0,0.0
1777317184.8578656,-7.04,0.22,0.34,0.032,0.031,9.794,0.0,-0.01,0.0
1777317184.868689,-7.04,0.22,0.34,0.026,0.047,9.798,-0.01,-0.01,0.0
1777317184.8787448,-7.04,0.22,0.34,0.034,0.05,9.799,0.0,0.0,0.0
1777317184.887851,-7.04,0.22,0.34,0.034,0.059,9.798,0.0,-0.01,0.0
1777317184.8978982,-7.05,0.22,0.35,0.035,0.055,9.796,0.0,-0.01,0.0
1777317184.9078507,-7.05,0.22,0.35,0.031,0.057,9.788,0.0,-0.01,0.0
1777317184.9178958,-7.05,0.22,0.35,0.034,0.071,9.791,0.0,-0.01,0.0
1777317184.927845,-7.06,0.23,0.35,0.04,0.083,9.796,0.0,-0.01,0.0
1777317184.9378324,-7.06,0.23,0.36,0.042,0.087,9.794,-0.01,-0.01,0.0
1777317184.9486847,-7.06,0.23,0.36,0.044,0.103,9.787,-0.01,-0.01,0.0
1777317184.957835,-7.06,0.23,0.36,0.042,0.102,9.792,0.0,-0.01,-0.01
1777317184.9678295,-7.05,0.23,0.36,0.041,0.097,9.797,-0.01,-0.01,-0.01
1777317184.977834,-7.05,0.23,0.36,0.042,0.111,9.8,-0.01,0.0,-0.01
1777317184.9878464,-7.04,0.23,0.36,0.044,0.091,9.797,-0.01,0.0,-0.01
1777317184.9978373,-7.03,0.23,0.36,0.047,0.083,9.78,-0.01,0.0,-0.01
1777317185.0078294,-7.03,0.23,0.36,0.051,0.065,9.776,-0.01,0.0,-0.01
1777317185.017844,-7.03,0.23,0.35,0.048,0.05,9.774,-0.01,0.0,-0.01
1777317185.027803,-7.03,0.22,0.35,0.041,0.037,9.784,-0.01,0.0,-0.01
1777317185.0378332,-7.03,0.22,0.34,0.038,0.029,9.785,-0.01,0.0,0.0
1777317185.0478292,-7.04,0.22,0.34,0.037,0.025,9.781,-0.01,0.0,0.0
1777317185.0577936,-7.05,0.22,0.34,0.032,0.031,9.784,-0.01,-0.01,0.0
1777317185.0678012,-7.06,0.22,0.34,0.035,0.029,9.78,0.0,0.0,0.0
1777317185.0778232,-7.06,0.22,0.34,0.031,0.036,9.786,0.0,0.0,0.0
1777317185.0878134,-7.06,0.22,0.34,0.023,0.036,9.788,0.0,-0.01,0.0
1777317185.1056237,-7.06,0.22,0.34,0.022,0.047,9.794,0.0,-0.01,0.0
1777317185.1265695,-7.06,0.22,0.34,0.025,0.053,9.798,0.0,-0.01,-0.01
1777317185.133803,-7.05,0.22,0.35,0.025,0.074,9.799,0.0,-0.01,-0.01
1777317185.141522,-7.04,0.23,0.36,0.03,0.079,9.787,0.0,-0.01,-0.01
1777317185.1477177,-7.04,0.23,0.36,0.029,0.087,9.791,0.0,-0.01,-0.01
1777317185.1529844,-7.03,0.23,0.36,0.037,0.099,9.794,-0.01,-0.01,-0.01
1777317185.15955,-7.03,0.23,0.36,0.036,0.104,9.798,-0.01,-0.01,-0.01
1777317185.1689847,-7.03,0.23,0.36,0.035,0.093,9.798,-0.01,-0.01,-0.01
1777317185.178631,-7.02,0.23,0.36,0.042,0.083,9.787,-0.01,-0.01,-0.01
1777317185.188858,-7.03,0.23,0.36,0.046,0.067,9.785,-0.01,-0.01,0.0
1777317185.199224,-7.03,0.23,0.35,0.048,0.067,9.778,-0.01,-0.01,0.0
1777317185.2089784,-7.03,0.24,0.35,0.049,0.062,9.782,-0.01,-0.01,0.0
1777317185.2178233,-7.04,0.23,0.35,0.05,0.06,9.787,-0.01,-0.01,0.0
1777317185.2286036,-7.04,0.23,0.35,0.055,0.05,9.785,-0.01,0.0,0.0
1777317185.2379382,-7.04,0.23,0.34,0.049,0.041,9.784,0.0,0.0,0.0
1777317185.2486258,-7.04,0.23,0.34,0.05,0.03,9.774,-0.01,0.0,0.0
1777317185.259061,-7.04,0.23,0.34,0.042,0.037,9.769,-0.01,0.0,0.0
1777317185.2694674,-7.04,0.22,0.34,0.03,0.035,9.773,-0.01,0.0,-0.01
1777317185.2784486,-7.04,0.22,0.34,0.019,0.034,9.773,0.0,0.0,-0.01
1777317185.2886624,-7.04,0.22,0.34,0.016,0.041,9.782,0.0,0.0,-0.01
1777317185.2977984,-7.04,0.22,0.34,0.011,0.041,9.787,0.0,0.0,-0.01
1777317185.308415,-7.04,0.22,0.34,0.007,0.046,9.776,0.0,-0.01,0.0
1777317185.3201525,-7.04,0.22,0.34,0.01,0.051,9.772,0.0,-0.01,0.0
1777317185.3289938,-7.05,0.22,0.34,0.013,0.062,9.776,-0.01,-0.01,0.0
1777317185.3385782,-7.06,0.22,0.35,0.022,0.067,9.786,-0.01,-0.01,0.0
1777317185.3495204,-7.06,0.22,0.35,0.031,0.079,9.792,-0.01,-0.01,0.0
1777317185.3584757,-7.06,0.23,0.36,0.043,0.084,9.792,0.0,-0.01,0.0
1777317185.3679578,-7.07,0.23,0.36,0.05,0.077,9.786,0.0,-0.01,0.0
1777317185.378715,-7.06,0.23,0.36,0.049,0.09,9.785,0.0,-0.01,-0.01
1777317185.3877604,-7.06,0.23,0.36,0.054,0.086,9.782,-0.01,-0.01,-0.01
1777317185.3977664,-7.05,0.23,0.35,0.047,0.09,9.788,-0.01,-0.01,-0.01
1777317185.4085336,-7.04,0.23,0.36,0.046,0.093,9.792,-0.01,-0.01,-0.01
1777317185.4182415,-7.03,0.23,0.35,0.049,0.092,9.796,-0.01,0.0,-0.01
1777317185.4290075,-7.02,0.23,0.35,0.046,0.073,9.796,-0.01,0.0,-0.01
1777317185.4377785,-7.01,0.22,0.35,0.044,0.062,9.78,-0.01,0.0,-0.01
1777317185.4485502,-7.01,0.22,0.35,0.034,0.054,9.779,0.0,0.0,-0.01
1777317185.4585688,-7.02,0.22,0.34,0.031,0.041,9.786,-0.01,0.0,0.0
1777317185.4677458,-7.03,0.22,0.34,0.031,0.04,9.792,-0.01,0.0,0.0
1777317185.4777658,-7.03,0.22,0.34,0.023,0.042,9.793,-0.01,0.0,0.0
1777317185.4877589,-7.04,0.22,0.34,0.02,0.041,9.794,-0.01,0.0,0.0
1777317185.4977682,-7.05,0.22,0.34,0.026,0.044,9.793,-0.01,-0.01,0.0
1777317185.5079715,-7.05,0.22,0.34,0.03,0.05,9.791,0.0,0.0,0.0
1777317185.5177608,-7.05,0.22,0.34,0.031,0.053,9.793,0.0,-0.01,0.0
1777317185.5278585,-7.04,0.22,0.34,0.031,0.055,9.79,0.0,-0.01,-0.01
1777317185.5377777,-7.04,0.22,0.34,0.03,0.053,9.793,0.0,-0.01,-0.01
1777317185.5477304,-7.04,0.22,0.34,0.031,0.048,9.786,0.0,-0.01,-0.01
1777317185.557769,-7.03,0.22,0.34,0.029,0.054,9.785,0.0,-0.01,-0.01
1777317185.5677464,-7.04,0.22,0.35,0.035,0.065,9.78,-0.01,-0.01,-0.01
1777317185.57786,-7.04,0.22,0.35,0.037,0.072,9.778,0.0,-0.01,0.0
1777317185.5877106,-7.05,0.23,0.36,0.037,0.065,9.781,0.0,-0.01,0.0
1777317185.5977488,-7.06,0.23,0.36,0.031,0.074,9.788,0.0,-0.01,0.0
1777317185.607771,-7.06,0.23,0.36,0.035,0.072,9.792,0.0,-0.01,0.0
1777317185.6177506,-7.06,0.23,0.36,0.037,0.08,9.797,-0.01,-0.01,0.0
1777317185.6277158,-7.06,0.23,0.36,0.037,0.09,9.785,-0.01,-0.01,0.0
1777317185.6377692,-7.06,0.23,0.36,0.038,0.093,9.785,-0.01,0.0,-0.01
1777317185.6522937,-7.05,0.23,0.36,0.037,0.102,9.791,-0.01,-0.01,-0.01
1777317185.6612694,-7.04,0.23,0.36,0.047,0.092,9.796,-0.01,0.0,-0.01
1777317185.6786513,-7.03,0.22,0.35,0.037,0.093,9.798,-0.01,0.0,-0.01
1777317185.680724,-7.02,0.22,0.35,0.038,0.08,9.79,-0.01,0.0,-0.01
1777317185.6893592,-7.02,0.22,0.35,0.04,0.071,9.775,-0.01,0.0,-0.01
1777317185.7083507,-7.02,0.22,0.35,0.047,0.051,9.778,-0.01,0.0,-0.01
1777317185.709467,-7.02,0.22,0.34,0.043,0.044,9.776,0.0,0.0,0.0
1777317185.7177134,-7.03,0.22,0.34,0.036,0.024,9.785,-0.01,-0.01,0.0
1777317185.727675,-7.03,0.22,0.34,0.032,0.024,9.792,-0.01,0.0,0.0
1777317185.7381587,-7.04,0.22,0.34,0.031,0.025,9.787,-0.01,0.0,0.0
1777317185.7481709,-7.04,0.22,0.34,0.03,0.028,9.77,-0.01,0.0,0.0
1777317185.7577221,-7.04,0.22,0.34,0.031,0.025,9.772,0.0,0.0,0.0
1777317185.7668657,-7.04,0.22,0.34,0.031,0.041,9.775,0.0,-0.01,0.0
1777317185.7777004,-7.04,0.22,0.34,0.031,0.044,9.78,0.0,-0.01,0.0
1777317185.7877238,-7.04,0.22,0.34,0.03,0.051,9.785,0.0,-0.01,-0.01
1777317185.7976813,-7.04,0.22,0.34,0.032,0.055,9.785,0.0,-0.01,0.0
1777317185.807714,-7.04,0.22,0.34,0.031,0.062,9.775,0.0,-0.01,0.0
1777317185.816853,-7.05,0.22,0.34,0.037,0.077,9.779,0.0,-0.01,0.0
1777317185.8277175,-7.05,0.22,0.35,0.041,0.075,9.782,0.0,-0.01,0.0
1777317185.836849,-7.06,0.23,0.35,0.042,0.087,9.79,0.0,-0.01,0.0
1777317185.846864,-7.06,0.23,0.35,0.042,0.08,9.796,0.0,-0.01,0.0
1777317185.8577087,-7.06,0.23,0.36,0.046,0.077,9.797,0.0,-0.01,0.0
1777317185.8668854,-7.06,0.23,0.36,0.047,0.078,9.79,0.0,-0.01,-0.01
1777317185.877721,-7.05,0.23,0.36,0.043,0.071,9.791,-0.01,0.0,-0.01
1777317185.887694,-7.05,0.23,0.36,0.041,0.071,9.793,-0.01,-0.01,-0.01
1777317185.896861,-7.05,0.23,0.35,0.044,0.067,9.784,-0.01,0.0,-0.01
1777317185.9076943,-7.05,0.23,0.35,0.04,0.06,9.788,-0.01,0.0,-0.01
1777317185.91686,-7.05,0.23,0.35,0.042,0.055,9.793,-0.01,0.0,0.0
1777317185.9268465,-7.06,0.22,0.35,0.032,0.06,9.796,-0.01,0.0,0.0
1777317185.9376998,-7.06,0.22,0.35,0.031,0.073,9.79,-0.01,0.0,0.0
1777317185.9468563,-7.06,0.22,0.35,0.035,0.066,9.784,-0.01,0.0,0.0
1777317185.9568708,-7.06,0.23,0.36,0.031,0.065,9.786,0.0,0.0,0.0
1777317185.9676704,-7.06,0.22,0.35,0.028,0.068,9.791,0.0,-0.01,0.0
1777317185.9768648,-7.06,0.22,0.35,0.03,0.06,9.794,-0.01,-0.01,-0.01
1777317185.9868338,-7.06,0.22,0.35,0.03,0.074,9.791,-0.01,-0.01,-0.01
1777317185.9968555,-7.05,0.22,0.35,0.035,0.054,9.792,-0.01,0.0,-0.01
1777317186.0068607,-7.05,0.22,0.35,0.031,0.08,9.793,-0.01,-0.01,-0.01
1777317186.0176792,-7.04,0.22,0.35,0.035,0.065,9.791,0.0,0.0,-0.01
1777317186.026835,-7.04,0.23,0.36,0.031,0.071,9.796,-0.01,-0.01,-0.01
1777317186.0368237,-7.04,0.23,0.36,0.037,0.069,9.798,0.0,0.0,-0.01
1777317186.046858,-7.04,0.23,0.36,0.044,0.063,9.793,0.0,-0.01,0.0
1777317186.056843,-7.05,0.23,0.36,0.044,0.059,9.792,0.0,0.0,0.0
1777317186.0668027,-7.05,0.23,0.36,0.046,0.068,9.794,-0.01,-0.01,0.0
1777317186.0768404,-7.06,0.23,0.35,0.046,0.068,9.798,-0.01,0.0,0.0
1777317186.0868242,-7.06,0.23,0.36,0.041,0.081,9.802,-0.01,-0.01,0.0
1777317186.0968385,-7.06,0.23,0.35,0.049,0.084,9.802,-0.01,0.0,0.0
1777317186.106819,-7.06,0.23,0.36,0.042,0.074,9.8,-0.01,-0.01,0.0
1777317186.1168363,-7.05,0.23,0.36,0.046,0.079,9.793,0.0,0.0,-0.01
1777317186.1268187,-7.05,0.23,0.36,0.037,0.054,9.787,0.0,0.0,-0.01
1777317186.136837,-7.04,0.23,0.36,0.035,0.068,9.791,-0.01,-0.01,-0.01
1777317186.1467774,-7.04,0.22,0.35,0.034,0.059,9.792,-0.01,0.0,-0.01
1777317186.156819,-7.03,0.22,0.35,0.019,0.063,9.785,-0.01,-0.01,-0.01
1777317186.166792,-7.03,0.22,0.35,0.025,0.055,9.77,0.0,0.0,-0.01
1777317186.1768186,-7.04,0.22,0.35,0.018,0.049,9.769,0.0,-0.01,-0.01
1777317186.1867938,-7.04,0.22,0.35,0.023,0.035,9.772,0.0,-0.01,0.0
1777317186.1967633,-7.05,0.22,0.35,0.028,0.057,9.782,-0.01,-0.01,0.0
1777317186.2067983,-7.06,0.22,0.35,0.034,0.043,9.788,-0.01,-0.01,0.0
1777317186.216785,-7.06,0.22,0.35,0.034,0.067,9.786,-0.01,-0.01,0.0
1777317186.2267985,-7.06,0.23,0.35,0.038,0.074,9.78,0.0,0.0,0.0
1777317186.23709,-7.06,0.23,0.36,0.041,0.073,9.782,0.0,-0.01,0.0
1777317186.2467756,-7.06,0.23,0.36,0.044,0.071,9.781,0.0,0.0,-0.01
1777317186.2567718,-7.06,0.23,0.36,0.04,0.067,9.785,0.0,0.0,-0.01
1777317186.2667809,-7.05,0.23,0.36,0.036,0.066,9.791,0.0,-0.01,-0.01
1777317186.2768598,-7.05,0.23,0.36,0.038,0.074,9.794,0.0,0.0,-0.01
1777317186.2867858,-7.04,0.23,0.36,0.036,0.057,9.792,0.0,0.0,-0.01
1777317186.296918,-7.04,0.23,0.36,0.03,0.071,9.794,-0.01,-0.01,-0.01
1777317186.3067286,-7.04,0.23,0.36,0.037,0.068,9.793,-0.01,0.0,-0.01
1777317186.316774,-7.04,0.23,0.36,0.03,0.074,9.794,-0.01,-0.01,0.0
1777317186.3268068,-7.04,0.23,0.36,0.036,0.062,9.786,0.0,0.0,0.0
1777317186.336736,-7.04,0.23,0.36,0.032,0.062,9.786,0.0,0.0,0.0
1777317186.346785,-7.04,0.23,0.36,0.037,0.06,9.781,-0.01,-0.01,0.0
1777317186.3571126,-7.04,0.22,0.35,0.042,0.049,9.788,-0.01,0.0,0.0
1777317186.3668618,-7.04,0.22,0.35,0.037,0.063,9.794,-0.01,-0.01,-0.01
1777317186.376726,-7.04,0.22,0.35,0.041,0.038,9.798,-0.01,0.0,-0.01
1777317186.3867435,-7.04,0.22,0.35,0.031,0.057,9.799,-0.01,-0.01,-0.01
1777317186.396754,-7.04,0.22,0.34,0.044,0.04,9.797,-0.01,0.0,0.0
1777317186.4067347,-7.05,0.22,0.34,0.036,0.059,9.799,-0.01,-0.01,0.0
1777317186.4167006,-7.05,0.22,0.34,0.037,0.048,9.792,0.0,0.0,0.0
1777317186.4267275,-7.06,0.22,0.35,0.034,0.067,9.796,0.0,-0.01,0.0
1777317186.4367518,-7.06,0.22,0.35,0.044,0.063,9.793,0.0,0.0,0.0
1777317186.4467633,-7.06,0.23,0.35,0.041,0.066,9.79,0.0,0.0,0.0
1777317186.4567106,-7.06,0.23,0.35,0.037,0.062,9.791,-0.01,-0.01,0.0
1777317186.466748,-7.06,0.23,0.35,0.034,0.066,9.796,0.0,0.0,-0.01
1777317186.4767015,-7.05,0.22,0.35,0.035,0.062,9.786,-0.01,-0.01,-0.01
1777317186.486744,-7.05,0.23,0.35,0.034,0.085,9.784,0.0,0.0,-0.01
1777317186.4967377,-7.04,0.23,0.35,0.032,0.06,9.785,0.0,-0.01,-0.01
1777317186.5067265,-7.03,0.23,0.35,0.025,0.087,9.791,-0.01,-0.01,-0.01
1777317186.5167632,-7.03,0.23,0.35,0.032,0.069,9.791,-0.01,0.0,-0.01
1777317186.526745,-7.03,0.23,0.36,0.03,0.078,9.796,-0.01,-0.01,-0.01
1777317186.5367184,-7.02,0.23,0.35,0.038,0.061,9.785,0.0,0.0,-0.01
1777317186.546752,-7.02,0.23,0.35,0.041,0.056,9.774,-0.01,-0.01,-0.01
1777317186.5568027,-7.02,0.23,0.35,0.053,0.047,9.776,-0.01,-0.01,-0.01
1777317186.5667028,-7.03,0.23,0.35,0.059,0.035,9.782,-0.01,-0.01,0.0
1777317186.5767384,-7.03,0.23,0.34,0.053,0.049,9.79,-0.01,0.0,0.0
1777317186.586707,-7.03,0.23,0.34,0.055,0.038,9.794,-0.01,0.0,0.0
1777317186.5967035,-7.04,0.23,0.34,0.051,0.044,9.798,-0.01,0.0,0.0
1777317186.606694,-7.04,0.23,0.34,0.056,0.048,9.791,0.0,0.0,0.0
1777317186.616736,-7.04,0.23,0.34,0.049,0.055,9.796,0.0,0.0,0.0
1777317186.6266768,-7.04,0.23,0.35,0.046,0.057,9.794,-0.01,0.0,0.0
1777317186.6367085,-7.04,0.23,0.35,0.04,0.061,9.798,0.0,-0.01,0.0
1777317186.6467354,-7.04,0.23,0.35,0.04,0.065,9.784,0.0,0.0,-0.01
1777317186.656693,-7.04,0.23,0.35,0.037,0.063,9.781,0.0,0.0,-0.01
1777317186.666703,-7.04,0.23,0.35,0.038,0.066,9.782,0.0,-0.01,-0.01
1777317186.6767058,-7.04,0.23,0.35,0.036,0.065,9.787,0.0,0.0,-0.01
1777317186.6867347,-7.04,0.23,0.36,0.04,0.062,9.792,0.0,-0.01,0.0
1777317186.6966996,-7.05,0.23,0.35,0.035,0.059,9.797,0.0,-0.01,0.0
1777317186.706696,-7.05,0.23,0.35,0.037,0.063,9.8,-0.01,-0.01,0.0
1777317186.7166917,-7.06,0.24,0.35,0.038,0.073,9.798,-0.01,-0.01,0.0
1777317186.7267365,-7.06,0.24,0.36,0.042,0.085,9.787,-0.01,-0.01,0.0
1777317186.7366984,-7.06,0.24,0.36,0.04,0.083,9.782,0.0,-0.01,0.0
1777317186.7467036,-7.06,0.24,0.36,0.041,0.084,9.79,-0.01,-0.01,-0.01
1777317186.7567298,-7.05,0.24,0.36,0.04,0.078,9.796,-0.01,0.0,-0.01
1777317186.7667167,-7.04,0.23,0.36,0.042,0.071,9.794,-0.01,0.0,-0.01
1777317186.7772675,-7.04,0.23,0.36,0.047,0.062,9.787,-0.01,0.0,-0.01
1777317186.7866986,-7.03,0.23,0.36,0.047,0.06,9.781,0.0,0.0,-0.01
1777317186.7966762,-7.03,0.23,0.36,0.04,0.051,9.788,0.0,0.0,-0.01
1777317186.8067045,-7.03,0.23,0.36,0.037,0.049,9.792,-0.01,0.0,-0.01
1777317186.816693,-7.04,0.23,0.35,0.03,0.062,9.797,-0.01,0.0,0.0
1777317186.8267064,-7.04,0.23,0.35,0.034,0.049,9.799,-0.01,-0.01,0.0
1777317186.83667,-7.05,0.23,0.35,0.03,0.078,9.793,-0.01,0.0,0.0
1777317186.84672,-7.05,0.23,0.35,0.031,0.059,9.788,0.0,-0.01,0.0
1777317186.8557954,-7.06,0.23,0.36,0.032,0.062,9.788,0.0,0.0,0.0
1777317186.866698,-7.06,0.23,0.35,0.036,0.062,9.788,0.0,-0.01,0.0
1777317186.8766675,-7.05,0.23,0.35,0.041,0.051,9.794,-0.01,-0.01,-0.01
1777317186.8858407,-7.04,0.23,0.35,0.04,0.077,9.798,-0.01,-0.01,-0.01
1777317186.8957715,-7.04,0.24,0.35,0.037,0.069,9.802,-0.01,-0.01,-0.01
1777317186.9066803,-7.03,0.23,0.36,0.041,0.083,9.798,-0.01,-0.01,-0.01
1777317186.9158413,-7.03,0.24,0.35,0.046,0.08,9.792,0.0,0.0,-0.01
1777317186.9267058,-7.02,0.24,0.36,0.044,0.077,9.79,-0.01,-0.01,-0.01
1777317186.935826,-7.03,0.24,0.35,0.041,0.071,9.778,-0.01,0.0,-0.01
1777317186.9458013,-7.03,0.24,0.35,0.043,0.065,9.78,-0.01,-0.01,0.0
1777317186.9558055,-7.03,0.24,0.35,0.048,0.059,9.784,-0.01,-0.01,0.0
1777317186.9667144,-7.04,0.24,0.35,0.05,0.054,9.788,-0.01,-0.01,0.0
1777317186.975817,-7.04,0.24,0.35,0.047,0.056,9.793,-0.01,0.0,0.0
1777317186.9857826,-7.04,0.24,0.34,0.044,0.057,9.786,-0.01,0.0,0.0
1777317186.9966958,-7.04,0.24,0.35,0.046,0.059,9.793,-0.01,0.0,0.0
1777317187.0058105,-7.04,0.24,0.35,0.04,0.06,9.79,0.0,0.0,-0.01
1777317187.0158117,-7.04,0.24,0.35,0.03,0.06,9.792,0.0,0.0,-0.01
1777317187.02581,-7.04,0.23,0.35,0.028,0.049,9.792,-0.01,0.0,-0.01
1777317187.035852,-7.04,0.23,0.35,0.028,0.065,9.796,0.0,-0.01,-0.01
1777317187.0457602,-7.04,0.23,0.35,0.024,0.051,9.79,0.0,-0.01,0.0
1777317187.055807,-7.04,0.23,0.36,0.02,0.065,9.792,0.0,-0.01,0.0
1777317187.0666752,-7.04,0.23,0.36,0.022,0.072,9.796,0.0,-0.01,0.0
1777317187.075806,-7.05,0.23,0.36,0.028,0.068,9.798,0.0,-0.01,0.0
1777317187.0857913,-7.05,0.23,0.36,0.034,0.075,9.799,0.0,-0.01,0.0
1777317187.0957956,-7.05,0.24,0.36,0.036,0.074,9.796,-0.01,-0.01,0.0
1777317187.1058004,-7.05,0.24,0.36,0.046,0.073,9.791,-0.01,-0.01,0.0
1777317187.1158085,-7.05,0.24,0.36,0.044,0.069,9.791,0.0,-0.01,0.0
1777317187.1257744,-7.05,0.24,0.36,0.048,0.071,9.79,-0.01,-0.01,-0.01
1777317187.1357908,-7.05,0.24,0.36,0.05,0.083,9.794,-0.01,0.0,-0.01
1777317187.145793,-7.04,0.24,0.36,0.059,0.084,9.799,-0.01,-0.01,0.0
1777317187.1557825,-7.04,0.25,0.36,0.05,0.089,9.802,0.0,0.0,-0.01
1777317187.1657457,-7.04,0.24,0.36,0.054,0.093,9.8,-0.01,-0.01,-0.01
1777317187.1757615,-7.03,0.25,0.36,0.047,0.079,9.802,-0.01,0.0,-0.01
1777317187.1857884,-7.02,0.24,0.36,0.038,0.074,9.804,-0.01,0.0,-0.01
1777317187.195777,-7.02,0.24,0.35,0.042,0.06,9.805,-0.01,0.0,-0.01
1777317187.2057545,-7.02,0.23,0.35,0.042,0.035,9.793,0.0,0.0,-0.01
1777317187.2157872,-7.02,0.24,0.34,0.043,0.035,9.794,-0.01,0.0,-0.01
1777317187.2257557,-7.02,0.24,0.34,0.035,0.019,9.798,-0.01,0.0,0.0
1777317187.2357726,-7.02,0.24,0.34,0.037,0.024,9.794,-0.01,-0.01,0.0
1777317187.2457442,-7.03,0.24,0.34,0.036,0.032,9.794,-0.01,0.0,0.0
1777317187.2562735,-7.03,0.24,0.34,0.032,0.026,9.796,0.0,-0.01,0.0
1777317187.2657628,-7.03,0.24,0.34,0.032,0.051,9.796,0.0,0.0,0.0
1777317187.2757812,-7.04,0.24,0.34,0.034,0.047,9.791,0.0,-0.01,0.0
1777317187.285751,-7.04,0.24,0.34,0.038,0.061,9.792,-0.01,-0.01,0.0
1777317187.2957816,-7.04,0.24,0.34,0.036,0.08,9.797,0.0,0.0,0.0
1777317187.305771,-7.04,0.24,0.35,0.038,0.078,9.798,0.0,-0.01,0.0
1777317187.315733,-7.04,0.24,0.36,0.03,0.091,9.791,0.0,0.0,0.0
1777317187.3257709,-7.04,0.24,0.36,0.036,0.084,9.792,0.0,-0.01,-0.01
1777317187.3357604,-7.04,0.24,0.36,0.044,0.086,9.797,0.0,-0.01,-0.01
1777317187.3457634,-7.04,0.24,0.36,0.044,0.085,9.8,0.0,-0.01,-0.01
1777317187.3557758,-7.04,0.24,0.36,0.042,0.078,9.803,-0.01,0.0,-0.01
1777317187.3657656,-7.04,0.24,0.36,0.046,0.073,9.797,0.0,-0.01,0.0
1777317187.3757308,-7.04,0.24,0.36,0.048,0.074,9.797,-0.01,0.0,0.0
1777317187.3857493,-7.05,0.24,0.36,0.05,0.081,9.799,-0.01,-0.01,0.0
1777317187.3957205,-7.05,0.25,0.36,0.055,0.081,9.802,-0.01,0.0,0.0
1777317187.4057622,-7.06,0.25,0.36,0.05,0.079,9.803,-0.01,0.0,0.0
1777317187.41577,-7.06,0.24,0.36,0.049,0.081,9.804,0.0,-0.01,0.0
1777317187.4257095,-7.05,0.24,0.36,0.046,0.072,9.806,0.0,0.0,-0.01
1777317187.4357576,-7.05,0.24,0.36,0.04,0.068,9.808,-0.01,0.0,-0.01
1777317187.445739,-7.04,0.24,0.36,0.034,0.062,9.797,-0.01,0.0,-0.01
1777317187.4558074,-7.04,0.24,0.36,0.025,0.06,9.796,-0.01,0.0,-0.01
1777317187.465718,-7.04,0.23,0.36,0.023,0.054,9.798,0.0,0.0,-0.01
1777317187.4757655,-7.03,0.23,0.36,0.022,0.054,9.8,0.0,0.0,-0.01
1777317187.4857147,-7.03,0.23,0.36,0.019,0.04,9.791,0.0,-0.01,-0.01
1777317187.495736,-7.03,0.23,0.36,0.02,0.046,9.782,-0.01,-0.01,0.0
1777317187.5057554,-7.04,0.24,0.35,0.023,0.053,9.791,-0.01,-0.01,0.0
1777317187.5157611,-7.04,0.24,0.35,0.031,0.056,9.792,-0.01,-0.01,0.0
1777317187.5257275,-7.05,0.24,0.35,0.038,0.077,9.784,-0.01,-0.01,0.0
1777317187.5357273,-7.06,0.24,0.36,0.036,0.077,9.788,-0.01,-0.01,0.0
1777317187.545791,-7.06,0.24,0.36,0.036,0.074,9.785,0.0,0.0,0.0
1777317187.5557513,-7.06,0.24,0.36,0.038,0.06,9.786,0.0,-0.01,0.0
1777317187.5657015,-7.06,0.24,0.36,0.041,0.057,9.791,0.0,0.0,-0.01
1777317187.575842,-7.05,0.24,0.35,0.042,0.055,9.797,-0.01,0.0,-0.01
1777317187.5857558,-7.05,0.24,0.35,0.046,0.056,9.79,-0.01,0.0,-0.01
1777317187.595735,-7.04,0.24,0.35,0.037,0.067,9.791,-0.01,0.0,-0.01
1777317187.605705,-7.04,0.23,0.35,0.037,0.053,9.79,-0.01,0.0,-0.01
1777317187.615763,-7.04,0.23,0.36,0.031,0.057,9.796,0.0,0.0,-0.01
1777317187.62573,-7.03,0.23,0.35,0.025,0.05,9.798,0.0,-0.01,-0.01
1777317187.6357076,-7.03,0.23,0.36,0.024,0.046,9.799,0.0,-0.01,-0.01
1777317187.645727,-7.04,0.23,0.35,0.02,0.047,9.796,0.0,-0.01,0.0
1777317187.6557384,-7.04,0.23,0.35,0.023,0.066,9.799,-0.01,-0.01,0.0
1777317187.6657517,-7.04,0.23,0.36,0.024,0.065,9.792,-0.01,-0.01,0.0
1777317187.6757126,-7.04,0.23,0.36,0.018,0.084,9.797,-0.01,-0.01,0.0
1777317187.6857266,-7.04,0.23,0.36,0.032,0.074,9.799,-0.01,-0.01,0.0
1777317187.6957464,-7.04,0.24,0.36,0.032,0.085,9.802,0.0,-0.01,-0.01
1777317187.7056966,-7.04,0.24,0.36,0.041,0.068,9.802,0.0,-0.01,-0.01
1777317187.7157006,-7.04,0.24,0.36,0.044,0.068,9.797,-0.01,-0.01,-0.01
1777317187.7257485,-7.04,0.24,0.36,0.048,0.071,9.791,-0.01,-0.01,0.0
1777317187.735719,-7.04,0.24,0.35,0.048,0.068,9.793,-0.01,0.0,0.0
1777317187.7457058,-7.05,0.24,0.36,0.05,0.068,9.794,-0.01,0.0,0.0
1777317187.755705,-7.05,0.24,0.36,0.047,0.065,9.799,0.0,0.0,0.0
1777317187.7657592,-7.05,0.24,0.35,0.038,0.059,9.802,0.0,0.0,0.0
1777317187.775692,-7.04,0.23,0.35,0.038,0.061,9.802,-0.01,-0.01,-0.01
1777317187.7856941,-7.04,0.23,0.35,0.034,0.071,9.804,-0.01,0.0,-0.01
1777317187.795721,-7.03,0.23,0.35,0.028,0.071,9.799,-0.01,-0.01,-0.01
1777317187.805704,-7.03,0.23,0.35,0.022,0.068,9.793,0.0,0.0,-0.01
1777317187.8156922,-7.02,0.23,0.36,0.018,0.056,9.791,0.0,0.0,-0.01
1777317187.8256798,-7.02,0.23,0.36,0.02,0.054,9.788,0.0,0.0,-0.01
1777317187.8356905,-7.02,0.22,0.35,0.019,0.041,9.79,0.0,-0.01,0.0
1777317187.8456848,-7.03,0.22,0.35,0.026,0.05,9.794,-0.01,-0.01,0.0
1777317187.8556938,-7.03,0.23,0.35,0.03,0.06,9.797,-0.01,-0.01,0.0
1777317187.8656785,-7.04,0.23,0.35,0.042,0.056,9.798,-0.01,-0.01,0.0
1777317187.8756902,-7.05,0.23,0.36,0.055,0.063,9.792,0.0,-0.01,0.0
1777317187.8857312,-7.05,0.24,0.36,0.053,0.085,9.79,0.0,-0.01,0.0
1777317187.8957002,-7.05,0.24,0.36,0.051,0.068,9.792,0.0,-0.01,0.0
1777317187.9048247,-7.05,0.24,0.36,0.046,0.096,9.797,-0.01,-0.01,-0.01
1777317187.915717,-7.04,0.24,0.36,0.048,0.097,9.799,-0.01,0.0,-0.01
1777317187.9256804,-7.03,0.24,0.36,0.036,0.108,9.8,-0.01,-0.01,-0.01
1777317187.935735,-7.02,0.23,0.36,0.044,0.097,9.785,0.0,0.0,-0.01
1777317187.9447918,-7.01,0.23,0.36,0.037,0.09,9.788,0.0,0.0,-0.01
1777317187.955681,-7.01,0.23,0.36,0.038,0.074,9.781,0.0,0.0,-0.01
1777317187.9657018,-7.01,0.23,0.36,0.037,0.066,9.785,-0.01,0.0,-0.01
1777317187.9756825,-7.01,0.23,0.36,0.032,0.061,9.79,-0.01,-0.01,0.0
1777317187.9857316,-7.02,0.23,0.36,0.032,0.048,9.79,-0.01,0.0,0.0
1777317187.9948184,-7.03,0.23,0.36,0.029,0.044,9.786,-0.01,0.0,0.0
1777317188.0056753,-7.04,0.23,0.35,0.034,0.051,9.788,-0.01,0.0,0.0
1777317188.0148153,-7.06,0.23,0.35,0.034,0.05,9.786,-0.01,-0.01,0.0
1777317188.025693,-7.06,0.23,0.36,0.036,0.066,9.788,-0.01,-0.01,0.0
1777317188.0357018,-7.06,0.23,0.36,0.037,0.069,9.794,0.0,0.0,0.0
1777317188.044806,-7.06,0.23,0.36,0.037,0.062,9.798,0.0,0.0,0.0
1777317188.0548208,-7.06,0.23,0.36,0.031,0.068,9.797,0.0,0.0,-0.01
1777317188.064778,-7.05,0.23,0.36,0.032,0.065,9.79,-0.01,0.0,-0.01
1777317188.074845,-7.04,0.23,0.36,0.029,0.062,9.796,-0.01,0.0,-0.01
1777317188.084808,-7.03,0.23,0.36,0.03,0.063,9.794,0.0,0.0,-0.01
1777317188.094827,-7.03,0.23,0.36,0.028,0.062,9.792,0.0,0.0,-0.01
1777317188.1056712,-7.03,0.23,0.36,0.026,0.054,9.797,0.0,-0.01,-0.01
1777317188.1148045,-7.03,0.23,0.36,0.03,0.047,9.793,0.0,-0.01,0.0
1777317188.124803,-7.04,0.23,0.36,0.032,0.057,9.794,-0.01,-0.01,0.0
1777317188.1348062,-7.04,0.23,0.36,0.038,0.054,9.793,-0.01,-0.01,0.0
1777317188.1447513,-7.05,0.23,0.36,0.036,0.077,9.798,-0.01,-0.01,0.0
1777317188.154794,-7.05,0.23,0.36,0.042,0.074,9.8,-0.01,-0.01,0.0
1777317188.164792,-7.05,0.23,0.36,0.047,0.083,9.803,-0.01,-0.01,0.0
1777317188.174798,-7.05,0.23,0.36,0.055,0.079,9.805,0.0,0.0,0.0
1777317188.1847713,-7.05,0.23,0.36,0.053,0.078,9.806,-0.01,-0.01,-0.01
1777317188.1948936,-7.04,0.23,0.36,0.055,0.072,9.808,-0.01,0.0,-0.01
1777317188.2048683,-7.04,0.23,0.36,0.047,0.08,9.805,-0.01,0.0,-0.01
1777317188.2147887,-7.03,0.23,0.36,0.047,0.061,9.804,-0.01,0.0,-0.01
1777317188.2247455,-7.03,0.23,0.36,0.037,0.073,9.802,-0.01,0.0,-0.01
1777317188.234784,-7.03,0.23,0.36,0.036,0.061,9.799,0.0,0.0,-0.01
1777317188.2447991,-7.03,0.23,0.36,0.03,0.056,9.799,0.0,0.0,-0.01
1777317188.254794,-7.03,0.23,0.36,0.029,0.048,9.799,-0.01,-0.01,0.0
1777317188.2647643,-7.04,0.23,0.36,0.026,0.046,9.8,-0.01,0.0,0.0
1777317188.2748158,-7.04,0.23,0.36,0.025,0.053,9.793,-0.01,-0.01,0.0
1777317188.2850773,-7.04,0.23,0.36,0.034,0.072,9.796,-0.01,0.0,0.0
1777317188.2950504,-7.04,0.23,0.36,0.04,0.05,9.794,-0.01,-0.01,0.0
1777317188.3048468,-7.04,0.23,0.36,0.032,0.078,9.798,0.0,-0.01,0.0
1777317188.3147743,-7.04,0.23,0.36,0.034,0.059,9.798,0.0,-0.01,-0.01
1777317188.3247535,-7.04,0.23,0.36,0.03,0.069,9.802,0.0,-0.01,-0.01
1777317188.334773,-7.03,0.23,0.36,0.035,0.053,9.793,0.0,0.0,-0.01
1777317188.3447564,-7.03,0.23,0.36,0.036,0.053,9.788,-0.01,-0.01,-0.01
1777317188.3547966,-7.03,0.23,0.36,0.038,0.059,9.784,0.0,0.0,-0.01
1777317188.3647661,-7.03,0.23,0.36,0.036,0.062,9.787,0.0,-0.01,-0.01
1777317188.374785,-7.03,0.23,0.36,0.037,0.057,9.792,-0.01,-0.01,0.0
1777317188.3847597,-7.03,0.23,0.36,0.041,0.051,9.791,-0.01,0.0,0.0
1777317188.394784,-7.03,0.23,0.36,0.034,0.067,9.792,-0.01,0.0,0.0
1777317188.404747,-7.04,0.23,0.36,0.038,0.065,9.793,-0.01,-0.01,0.0
1777317188.414764,-7.04,0.23,0.36,0.032,0.077,9.794,-0.01,0.0,0.0
1777317188.4247565,-7.04,0.23,0.36,0.032,0.075,9.792,-0.01,0.0,0.0
1777317188.434753,-7.04,0.23,0.36,0.029,0.071,9.796,0.0,0.0,0.0
1777317188.4447534,-7.04,0.23,0.36,0.036,0.059,9.799,0.0,-0.01,-0.01
1777317188.4547517,-7.04,0.23,0.36,0.041,0.055,9.799,-0.01,0.0,-0.01
1777317188.4647813,-7.03,0.22,0.35,0.038,0.051,9.8,-0.01,0.0,-0.01
1777317188.474752,-7.03,0.23,0.36,0.037,0.043,9.8,-0.01,0.0,-0.01
1777317188.4847589,-7.03,0.23,0.36,0.038,0.048,9.792,0.0,0.0,-0.01
1777317188.4947479,-7.03,0.22,0.35,0.032,0.038,9.797,0.0,-0.01,-0.01
1777317188.5047479,-7.03,0.22,0.35,0.035,0.042,9.799,-0.01,-0.01,-0.01
1777317188.5147398,-7.03,0.22,0.35,0.028,0.05,9.802,-0.01,-0.01,0.0
1777317188.5247672,-7.03,0.22,0.35,0.031,0.059,9.79,-0.01,-0.01,0.0
1777317188.534838,-7.03,0.22,0.35,0.032,0.072,9.794,0.0,0.0,0.0
1777317188.5447423,-7.04,0.23,0.36,0.036,0.051,9.799,0.0,-0.01,0.0
1777317188.5547292,-7.04,0.22,0.35,0.037,0.066,9.802,-0.01,-0.01,0.0
1777317188.56474,-7.04,0.23,0.35,0.035,0.067,9.804,0.0,-0.01,0.0
1777317188.5747771,-7.04,0.23,0.36,0.042,0.071,9.805,-0.01,-0.01,0.0
1777317188.5848694,-7.03,0.23,0.35,0.037,0.079,9.802,-0.01,0.0,-0.01
1777317188.5947423,-7.03,0.23,0.36,0.038,0.077,9.79,-0.01,-0.01,-0.01
1777317188.6048372,-7.03,0.22,0.35,0.038,0.086,9.785,-0.01,0.0,-0.01
1777317188.6147943,-7.03,0.23,0.36,0.043,0.069,9.791,-0.01,-0.01,-0.01
1777317188.624713,-7.02,0.23,0.36,0.046,0.065,9.791,0.0,0.0,-0.01
1777317188.6347349,-7.02,0.22,0.35,0.046,0.054,9.79,0.0,0.0,-0.01
1777317188.6447756,-7.02,0.22,0.35,0.049,0.047,9.78,-0.01,0.0,-0.01
1777317188.6547236,-7.02,0.23,0.35,0.051,0.043,9.773,-0.01,0.0,0.0
1777317188.6647255,-7.03,0.23,0.34,0.054,0.04,9.778,-0.01,0.0,0.0
1777317188.674715,-7.03,0.23,0.34,0.044,0.051,9.785,-0.01,-0.01,0.0
1777317188.684736,-7.03,0.23,0.34,0.041,0.05,9.786,0.0,-0.01,0.0
1777317188.694745,-7.04,0.23,0.35,0.043,0.046,9.787,0.0,-0.01,0.0
1777317188.7047057,-7.04,0.23,0.35,0.041,0.047,9.791,0.0,-0.01,0.0
1777317188.7147834,-7.04,0.23,0.34,0.043,0.047,9.792,0.0,0.0,0.0
1777317188.724701,-7.04,0.23,0.35,0.044,0.051,9.797,-0.01,0.0,0.0
1777317188.734697,-7.04,0.23,0.35,0.04,0.055,9.8,0.0,-0.01,-0.01
1777317188.7446978,-7.04,0.23,0.35,0.04,0.061,9.8,-0.01,0.0,-0.01
1777317188.7547522,-7.03,0.23,0.35,0.038,0.06,9.798,0.0,-0.01,-0.01
1777317188.764723,-7.03,0.23,0.35,0.044,0.061,9.794,0.0,0.0,-0.01
1777317188.7746994,-7.03,0.23,0.36,0.043,0.062,9.796,0.0,-0.01,0.0
1777317188.7847378,-7.04,0.23,0.35,0.043,0.066,9.794,0.0,-0.01,0.0
1777317188.794751,-7.04,0.23,0.35,0.042,0.075,9.798,-0.01,-0.01,0.0
1777317188.804734,-7.05,0.24,0.35,0.05,0.079,9.802,-0.01,-0.01,0.0
1777317188.8147197,-7.06,0.24,0.36,0.05,0.091,9.803,-0.01,-0.01,0.0
1777317188.824749,-7.06,0.24,0.36,0.049,0.09,9.8,0.0,-0.01,0.0
1777317188.8347409,-7.05,0.24,0.36,0.043,0.092,9.8,0.0,-0.01,-0.01
1777317188.844698,-7.04,0.24,0.36,0.044,0.079,9.803,-0.01,-0.01,-0.01
1777317188.8547456,-7.04,0.24,0.36,0.038,0.086,9.804,-0.01,0.0,-0.01
1777317188.864756,-7.03,0.23,0.36,0.046,0.065,9.794,-0.01,0.0,-0.01
1777317188.8746994,-7.03,0.23,0.36,0.042,0.068,9.785,0.0,0.0,-0.01
1777317188.8846886,-7.02,0.23,0.36,0.034,0.051,9.778,0.0,0.0,-0.01
1777317188.8947115,-7.02,0.23,0.36,0.031,0.043,9.778,0.0,0.0,-0.01
1777317188.9047508,-7.02,0.23,0.35,0.031,0.055,9.781,-0.01,-0.01,0.0
1777317188.9146805,-7.03,0.23,0.34,0.036,0.043,9.788,-0.01,-0.01,0.0
1777317188.923846,-7.03,0.23,0.34,0.03,0.071,9.793,-0.01,-0.01,0.0
1777317188.9346888,-7.03,0.23,0.34,0.037,0.071,9.791,-0.01,0.0,0.0
1777317188.9447246,-7.04,0.23,0.35,0.035,0.086,9.796,-0.01,-0.01,0.0
1777317188.953832,-7.03,0.23,0.35,0.04,0.072,9.792,0.0,0.0,0.0
1777317188.9646823,-7.03,0.23,0.36,0.034,0.061,9.797,0.0,-0.01,-0.01
1777317188.9747398,-7.03,0.23,0.35,0.043,0.053,9.794,0.0,0.0,-0.01
1777317188.98469,-7.02,0.24,0.35,0.042,0.059,9.797,-0.01,0.0,-0.01
1777317188.9937828,-7.02,0.23,0.35,0.036,0.051,9.794,-0.01,-0.01,-0.01
1777317189.0046852,-7.02,0.23,0.35,0.04,0.059,9.784,-0.01,0.0,-0.01
1777317189.0147173,-7.02,0.23,0.35,0.038,0.054,9.775,0.0,0.0,0.0
1777317189.0247,-7.03,0.23,0.35,0.04,0.042,9.772,0.0,0.0,0.0
1777317189.0337915,-7.03,0.23,0.35,0.034,0.046,9.778,0.0,0.0,0.0
1777317189.0438528,-7.03,0.23,0.35,0.036,0.05,9.775,0.0,-0.01,0.0
1777317189.0546935,-7.04,0.23,0.35,0.038,0.056,9.782,-0.01,0.0,0.0
1777317189.0646975,-7.04,0.23,0.35,0.036,0.055,9.788,0.0,0.0,0.0
1777317189.0739875,-7.04,0.23,0.36,0.036,0.074,9.787,0.0,-0.01,0.0
1777317189.0838559,-7.04,0.23,0.36,0.04,0.057,9.786,0.0,-0.01,-0.01
1777317189.0938344,-7.04,0.23,0.36,0.03,0.067,9.791,0.0,-0.01,0.0
1777317189.1046863,-7.04,0.23,0.35,0.028,0.077,9.796,-0.01,0.0,-0.01
1777317189.1142044,-7.04,0.23,0.36,0.029,0.075,9.798,-0.01,-0.01,0.0
1777317189.124733,-7.04,0.23,0.36,0.034,0.084,9.794,-0.01,0.0,0.0
1777317189.1338217,-7.04,0.23,0.36,0.037,0.074,9.79,0.0,0.0,0.0
1777317189.1438148,-7.04,0.23,0.36,0.036,0.067,9.792,0.0,0.0,0.0
1777317189.1538408,-7.04,0.23,0.36,0.037,0.072,9.797,0.0,0.0,-0.01
1777317189.1637802,-7.03,0.23,0.36,0.035,0.053,9.799,-0.01,-0.01,-0.01
1777317189.174676,-7.03,0.23,0.35,0.032,0.074,9.802,-0.01,0.0,-0.01
1777317189.1838832,-7.03,0.22,0.35,0.038,0.055,9.798,-0.01,0.0,-0.01
1777317189.193957,-7.02,0.23,0.36,0.038,0.067,9.79,0.0,0.0,-0.01
1777317189.2037628,-7.02,0.23,0.35,0.037,0.056,9.793,0.0,0.0,-0.01
1777317189.2138114,-7.01,0.23,0.36,0.029,0.049,9.796,0.0,-0.01,-0.01
1777317189.2237737,-7.02,0.22,0.35,0.022,0.055,9.799,0.0,0.0,-0.01
1777317189.233794,-7.02,0.23,0.36,0.026,0.046,9.802,-0.01,-0.01,0.0
1777317189.2437708,-7.03,0.22,0.35,0.029,0.054,9.793,0.0,-0.01,0.0
1777317189.2538037,-7.03,0.22,0.35,0.03,0.054,9.781,-0.01,-0.01,0.0
1777317189.2637725,-7.04,0.23,0.36,0.036,0.062,9.786,-0.01,-0.01,0.0
1777317189.2737927,-7.05,0.23,0.36,0.072,0.085,9.792,0.0,0.0,0.0
1777317189.283765,-7.06,0.24,0.36,0.111,0.086,9.797,0.0,-0.01,0.0
1777317189.2937949,-7.06,0.25,0.37,0.143,0.108,9.8,0.0,-0.01,0.0
1777317189.3041747,-7.05,0.25,0.38,0.157,0.113,9.803,0.0,0.0,-0.01
1777317189.3140447,-7.04,0.23,0.4,0.154,0.108,9.779,0.0,0.0,-0.01
1777317189.3237667,-7.02,0.21,0.41,0.141,0.107,9.727,0.0,0.01,-0.01
1777317189.3337774,-7.01,0.19,0.42,0.117,0.072,9.703,0.0,0.01,-0.02
1777317189.3437748,-7.0,0.17,0.41,0.063,0.055,9.73,0.0,0.01,-0.01
1777317189.3537545,-6.99,0.15,0.4,0.005,0.047,9.751,-0.01,0.01,-0.01
1777317189.36375,-6.99,0.13,0.39,-0.048,0.063,9.766,-0.01,0.0,-0.01
1777317189.3738012,-7.0,0.12,0.39,-0.072,0.054,9.741,-0.01,0.0,0.0
1777317189.3837454,-7.01,0.11,0.39,-0.085,0.065,9.679,-0.01,0.0,0.0
1777317189.3937874,-7.02,0.11,0.39,-0.092,0.059,9.645,-0.01,-0.01,0.0
1777317189.4037402,-7.03,0.11,0.38,-0.085,0.043,9.679,-0.01,-0.01,0.0
1777317189.4137597,-7.03,0.13,0.37,-0.069,0.032,9.714,-0.01,-0.02,0.0
1777317189.4237335,-7.03,0.14,0.36,-0.038,0.018,9.739,-0.01,-0.02,0.0
1777317189.4337652,-7.03,0.16,0.35,0.0,0.017,9.757,-0.01,-0.02,0.0
1777317189.4437616,-7.03,0.18,0.34,0.05,0.02,9.743,-0.01,-0.02,0.0
1777317189.453767,-7.02,0.2,0.33,0.096,0.036,9.73,-0.01,-0.01,-0.01
1777317189.4637663,-7.01,0.22,0.34,0.129,0.04,9.75,-0.01,-0.02,-0.01
1777317189.4737477,-7.0,0.25,0.34,0.146,0.032,9.763,0.0,-0.01,-0.01
1777317189.4837356,-6.99,0.25,0.35,0.146,0.024,9.775,0.0,-0.01,-0.01
1777317189.4937816,-6.98,0.26,0.36,0.15,0.019,9.785,0.0,-0.01,-0.01
1777317189.5037763,-6.98,0.26,0.36,0.148,0.02,9.785,0.0,0.0,-0.01
1777317189.5137622,-6.98,0.26,0.36,0.141,0.044,9.774,0.0,0.0,-0.01
1777317189.5238006,-6.99,0.26,0.37,0.123,0.067,9.753,0.0,0.0,0.0
1777317189.5337365,-6.99,0.25,0.38,0.105,0.086,9.767,0.0,0.0,0.0
1777317189.54373,-7.0,0.25,0.38,0.081,0.097,9.778,0.0,0.0,0.0
1777317189.553762,-7.01,0.23,0.39,0.054,0.102,9.786,0.0,0.0,0.0
1777317189.5637727,-7.03,0.23,0.4,0.037,0.103,9.787,0.0,0.0,0.0
1777317189.5737433,-7.04,0.21,0.4,0.026,0.11,9.775,0.0,0.0,0.01
1777317189.5837374,-7.06,0.21,0.39,0.01,0.123,9.763,-0.01,0.0,0.0
1777317189.5937743,-7.06,0.21,0.39,0.004,0.137,9.761,-0.01,0.0,0.0
1777317189.6037326,-7.06,0.2,0.39,0.0,0.138,9.773,-0.01,0.0,0.0
1777317189.613718,-7.06,0.2,0.39,0.0,0.128,9.782,-0.01,-0.01,0.0
1777317189.6237361,-7.05,0.2,0.39,0.005,0.104,9.79,-0.01,-0.01,-0.01
1777317189.6338072,-7.04,0.2,0.38,0.017,0.085,9.788,-0.01,0.0,-0.01
1777317189.6437356,-7.02,0.2,0.37,0.03,0.048,9.773,-0.01,-0.01,-0.01
1777317189.6537168,-7.01,0.2,0.36,0.036,0.035,9.762,-0.01,-0.01,-0.02
1777317189.6637442,-6.99,0.21,0.35,0.042,0.006,9.764,-0.01,-0.01,-0.02
1777317189.6737602,-6.99,0.22,0.34,0.053,0.0,9.776,-0.01,-0.01,-0.01
1777317189.683738,-6.98,0.22,0.34,0.06,-0.012,9.78,-0.01,-0.01,-0.01
1777317189.693699,-6.98,0.22,0.34,0.065,-0.02,9.787,0.0,-0.01,-0.01
1777317189.7037423,-6.99,0.22,0.34,0.065,-0.023,9.786,0.0,-0.01,0.0
1777317189.7137477,-6.99,0.22,0.34,0.068,-0.016,9.773,0.0,0.0,0.0
1777317189.723746,-7.0,0.22,0.34,0.066,0.0,9.766,0.0,0.0,0.0
1777317189.7337153,-7.01,0.22,0.35,0.06,0.02,9.772,0.0,-0.01,0.0
1777317189.7437427,-7.02,0.23,0.36,0.054,0.04,9.781,0.0,0.0,0.0
1777317189.7537382,-7.03,0.23,0.36,0.049,0.062,9.788,0.0,0.0,0.0
1777317189.7637396,-7.03,0.23,0.37,0.043,0.079,9.781,0.0,0.0,0.0
1777317189.7737255,-7.03,0.23,0.37,0.037,0.092,9.766,0.0,0.0,0.0
1777317189.7837045,-7.03,0.23,0.38,0.036,0.107,9.766,0.0,0.0,0.0
1777317189.793725,-7.03,0.23,0.39,0.038,0.109,9.774,0.0,-0.01,-0.01
1777317189.8037152,-7.03,0.23,0.38,0.03,0.11,9.782,-0.01,-0.01,-0.01
1777317189.8137689,-7.03,0.23,0.38,0.031,0.127,9.79,-0.01,-0.01,-0.01
1777317189.8237307,-7.02,0.23,0.38,0.037,0.121,9.785,-0.01,0.0,-0.01
1777317189.8337183,-7.01,0.23,0.38,0.037,0.113,9.787,-0.01,-0.01,-0.01
1777317189.8437052,-7.01,0.23,0.38,0.047,0.095,9.784,-0.01,-0.01,-0.01
1777317189.8537803,-7.0,0.23,0.37,0.051,0.081,9.785,-0.01,0.0,-0.01
1777317189.8636928,-6.99,0.23,0.37,0.059,0.057,9.788,-0.01,-0.01,-0.01
1777317189.8737044,-6.99,0.23,0.36,0.065,0.042,9.794,-0.01,0.0,-0.01
1777317189.8837254,-6.99,0.23,0.36,0.063,0.026,9.788,-0.01,0.0,-0.01
1777317189.8937173,-6.98,0.23,0.36,0.065,0.012,9.786,-0.01,0.0,-0.01
1777317189.9037068,-6.98,0.23,0.35,0.057,0.005,9.788,-0.01,0.0,-0.01
1777317189.9137008,-6.99,0.23,0.35,0.056,-0.002,9.786,0.0,0.0,0.0
1777317189.9237053,-6.99,0.23,0.34,0.043,0.002,9.792,0.0,0.0,0.0
1777317189.9337127,-7.0,0.22,0.35,0.037,0.006,9.791,0.0,0.0,0.0
1777317189.9436882,-7.01,0.22,0.35,0.029,0.025,9.78,0.0,0.0,0.0
1777317189.9536986,-7.01,0.22,0.35,0.025,0.038,9.773,0.0,-0.01,0.0
1777317189.9637325,-7.01,0.23,0.36,0.024,0.056,9.779,0.0,-0.01,0.0
1777317189.9737236,-7.02,0.23,0.36,0.03,0.068,9.787,0.0,-0.01,0.0
1777317189.9836693,-7.02,0.23,0.36,0.035,0.077,9.793,0.0,-0.01,0.0
1777317189.993712,-7.02,0.23,0.36,0.035,0.093,9.797,0.0,-0.01,0.0
1777317190.0036993,-7.01,0.23,0.37,0.042,0.09,9.792,-0.01,-0.01,-0.01
1777317190.0136974,-7.01,0.23,0.37,0.046,0.102,9.788,-0.01,-0.01,-0.01
1777317190.0239668,-7.01,0.24,0.37,0.051,0.091,9.788,0.0,-0.01,-0.01
1777317190.0336916,-7.01,0.24,0.38,0.061,0.081,9.792,0.0,-0.01,-0.01
1777317190.042892,-7.01,0.24,0.37,0.063,0.077,9.794,0.0,-0.01,-0.01
1777317190.0536733,-7.01,0.25,0.37,0.062,0.066,9.797,-0.01,-0.01,-0.01
1777317190.062828,-7.01,0.25,0.37,0.063,0.059,9.797,-0.01,0.0,-0.01
1777317190.073746,-7.01,0.25,0.37,0.066,0.048,9.799,-0.01,0.0,-0.01
1777317190.082817,-7.01,0.25,0.37,0.062,0.046,9.79,-0.01,0.0,0.0
1777317190.0928092,-7.01,0.24,0.36,0.055,0.038,9.791,0.0,0.0,0.0
1777317190.1036994,-7.01,0.24,0.36,0.047,0.046,9.793,0.0,0.0,0.0
1777317190.1137085,-7.01,0.23,0.36,0.038,0.043,9.794,0.0,0.0,0.0
1777317190.1228166,-7.02,0.23,0.37,0.032,0.049,9.788,0.0,0.0,0.0
1777317190.1328146,-7.02,0.23,0.36,0.035,0.048,9.785,0.0,0.0,0.0
1777317190.1428626,-7.03,0.23,0.36,0.032,0.054,9.776,0.0,0.0,0.0
1777317190.1537235,-7.03,0.23,0.36,0.031,0.062,9.781,0.0,-0.01,0.0
1777317190.162814,-7.03,0.23,0.37,0.035,0.059,9.774,-0.01,-0.01,0.0
1777317190.1736863,-7.03,0.23,0.37,0.032,0.068,9.778,0.0,-0.01,-0.01
1777317190.1828473,-7.02,0.23,0.37,0.035,0.068,9.779,0.0,-0.01,-0.01
1777317190.1928985,-7.02,0.23,0.37,0.036,0.072,9.784,0.0,-0.01,-0.01
1777317190.202897,-7.02,0.24,0.37,0.038,0.072,9.786,-0.01,-0.01,-0.01
1777317190.212801,-7.02,0.24,0.37,0.042,0.073,9.784,0.0,-0.01,-0.01
1777317190.2228441,-7.02,0.24,0.37,0.048,0.068,9.787,-0.01,-0.01,-0.01
1777317190.2328107,-7.02,0.25,0.37,0.05,0.068,9.793,0.0,-0.01,-0.01
1777317190.2428029,-7.02,0.25,0.37,0.055,0.063,9.793,0.0,-0.01,-0.01
1777317190.2529829,-7.02,0.25,0.37,0.051,0.056,9.797,0.0,-0.01,0.0
1777317190.262804,-7.02,0.25,0.37,0.056,0.067,9.8,-0.01,0.0,0.0
1777317190.2729611,-7.03,0.25,0.37,0.054,0.067,9.8,-0.01,0.0,0.0
1777317190.2827933,-7.03,0.25,0.37,0.053,0.072,9.799,-0.01,0.0,0.0
1777317190.292845,-7.03,0.25,0.37,0.049,0.066,9.802,0.0,0.0,0.0
1777317190.302816,-7.03,0.24,0.37,0.043,0.074,9.794,0.0,0.0,0.0
1777317190.3129392,-7.02,0.24,0.37,0.043,0.055,9.79,0.0,0.0,-0.01
1777317190.3228288,-7.02,0.24,0.37,0.032,0.071,9.794,-0.01,-0.01,-0.01
1777317190.333306,-7.01,0.24,0.37,0.028,0.067,9.786,-0.01,0.0,-0.01
1777317190.3428116,-7.01,0.24,0.37,0.022,0.073,9.788,-0.01,0.0,-0.01
1777317190.352806,-7.01,0.23,0.37,0.023,0.059,9.787,-0.01,-0.01,-0.01
1777317190.3628242,-7.0,0.23,0.37,0.023,0.057,9.786,0.0,0.0,-0.01
1777317190.3727744,-7.0,0.23,0.37,0.037,0.055,9.787,0.0,-0.01,-0.01
1777317190.382825,-7.0,0.24,0.37,0.044,0.034,9.785,0.0,-0.01,-0.01
1777317190.3927472,-7.0,0.24,0.36,0.042,0.05,9.791,-0.01,-0.01,-0.01
1777317190.4028132,-7.01,0.25,0.36,0.047,0.036,9.79,-0.01,0.0,0.0
1777317190.412774,-7.01,0.25,0.36,0.046,0.049,9.793,-0.01,-0.01,0.0
1777317190.422815,-7.01,0.25,0.36,0.061,0.055,9.786,-0.01,-0.01,0.0
1777317190.432966,-7.02,0.25,0.36,0.055,0.061,9.792,-0.01,-0.01,0.0
1777317190.5137649,-7.02,0.25,0.36,0.061,0.055,9.786,0.0,-0.01,0.0
1777317190.5150247,-7.03,0.25,0.36,0.056,0.059,9.79,0.0,0.0,0.0
1777317190.5161746,-7.03,0.25,0.36,0.053,0.055,9.793,0.0,-0.01,0.0
1777317190.5173833,-7.02,0.25,0.36,0.046,0.06,9.791,0.0,0.0,-0.01
1777317190.5185802,-7.02,0.25,0.36,0.042,0.055,9.791,0.0,0.0,-0.01
1777317190.520771,-7.01,0.25,0.36,0.038,0.067,9.787,0.0,0.0,-0.01
1777317190.522502,-7.01,0.25,0.36,0.04,0.066,9.786,0.0,0.0,-0.01
1777317190.5239396,-7.01,0.24,0.37,0.032,0.054,9.785,0.0,0.0,-0.01
1777317190.5259504,-7.0,0.24,0.37,0.031,0.046,9.781,0.0,0.0,-0.01
1777317190.5328228,-7.0,0.24,0.36,0.031,0.044,9.784,0.0,-0.01,-0.01
1777317190.5899875,-7.01,0.24,0.36,0.035,0.047,9.786,-0.01,-0.01,0.0
1777317190.6180737,-7.01,0.25,0.36,0.038,0.048,9.782,-0.01,-0.01,0.0
1777317190.6194594,-7.01,0.25,0.36,0.038,0.048,9.787,-0.01,-0.01,0.0
1777317190.6204967,-7.01,0.25,0.36,0.041,0.049,9.793,-0.01,-0.01,0.0
1777317190.6226923,-7.02,0.25,0.36,0.041,0.062,9.796,-0.01,-0.01,0.0
1777317190.6255834,-7.02,0.25,0.36,0.048,0.077,9.786,-0.01,-0.01,0.0
1777317190.6265764,-7.02,0.25,0.36,0.047,0.079,9.782,0.0,-0.01,0.0
1777317190.6275167,-7.01,0.25,0.36,0.047,0.081,9.785,-0.01,-0.01,-0.01
1777317190.6288564,-7.01,0.25,0.36,0.049,0.078,9.785,-0.01,0.0,-0.01
1777317190.6327596,-6.99,0.25,0.36,0.042,0.081,9.792,-0.01,0.0,-0.01
1777317190.643078,-6.99,0.25,0.36,0.049,0.067,9.79,-0.01,0.0,-0.01
1777317190.6527493,-6.98,0.25,0.36,0.043,0.059,9.776,0.0,0.0,-0.01
1777317190.6630673,-6.97,0.25,0.36,0.042,0.037,9.766,0.0,0.0,-0.01
1777317190.672749,-6.98,0.25,0.36,0.043,0.031,9.77,0.0,0.0,-0.01
1777317190.6830552,-6.98,0.25,0.36,0.04,0.025,9.775,-0.01,-0.01,0.0
1777317190.6927497,-6.99,0.25,0.35,0.029,0.031,9.785,-0.01,0.0,0.0
1777317190.7027202,-7.0,0.24,0.35,0.034,0.034,9.791,-0.01,-0.01,0.0
1777317190.7127695,-7.01,0.25,0.35,0.036,0.048,9.78,-0.01,0.0,0.0
1777317190.7227423,-7.01,0.25,0.35,0.034,0.051,9.776,0.0,-0.01,0.0
1777317190.7329438,-7.02,0.25,0.36,0.04,0.053,9.779,0.0,-0.01,0.0
1777317190.7427416,-7.01,0.25,0.36,0.041,0.056,9.787,0.0,-0.01,0.0
1777317190.7527525,-7.01,0.25,0.36,0.042,0.056,9.788,0.0,-0.01,-0.01
1777317190.7627726,-7.01,0.25,0.36,0.037,0.062,9.794,-0.01,-0.01,-0.01
1777317190.7727501,-7.01,0.25,0.36,0.036,0.068,9.785,0.0,0.0,-0.01
1777317190.7827225,-7.01,0.25,0.36,0.041,0.066,9.776,0.0,0.0,-0.01
1777317190.792738,-7.0,0.25,0.36,0.037,0.068,9.779,0.0,-0.01,-0.01
1777317190.8027484,-7.0,0.25,0.36,0.037,0.061,9.782,0.0,-0.01,-0.01
1777317190.8127513,-7.0,0.25,0.36,0.036,0.051,9.787,0.0,-0.01,0.0
1777317190.8227496,-7.01,0.25,0.36,0.044,0.049,9.787,0.0,-0.01,0.0
1777317190.8327162,-7.01,0.25,0.36,0.046,0.048,9.785,-0.01,0.0,0.0
1777317190.8427637,-7.01,0.25,0.36,0.043,0.053,9.775,-0.01,0.0,0.0
1777317190.8527567,-7.01,0.25,0.36,0.041,0.06,9.78,-0.01,0.0,0.0
1777317190.8627298,-7.02,0.25,0.36,0.041,0.066,9.788,0.0,0.0,0.0
1777317190.872899,-7.02,0.25,0.36,0.038,0.06,9.793,0.0,-0.01,0.0
1777317190.8827944,-7.02,0.25,0.36,0.038,0.062,9.79,0.0,0.0,0.0
1777317190.892734,-7.01,0.25,0.36,0.041,0.061,9.791,0.0,0.0,-0.01
1777317190.9027696,-7.01,0.25,0.36,0.04,0.056,9.793,-0.01,0.0,-0.01
1777317190.9127433,-7.01,0.25,0.36,0.038,0.061,9.786,0.0,0.0,-0.01
1777317190.9227684,-7.01,0.25,0.36,0.037,0.055,9.781,0.0,0.0,-0.01
1777317190.9327137,-7.01,0.25,0.36,0.038,0.059,9.784,0.0,-0.01,-0.01
1777317190.9427285,-7.01,0.25,0.36,0.038,0.056,9.788,0.0,0.0,0.0
1777317190.9527617,-7.01,0.25,0.36,0.044,0.044,9.787,-0.01,0.0,0.0
1777317190.9628377,-7.01,0.25,0.36,0.044,0.054,9.791,0.0,0.0,0.0
1777317190.972714,-7.02,0.25,0.36,0.046,0.05,9.785,0.0,-0.01,0.0
1777317190.982749,-7.02,0.25,0.36,0.042,0.055,9.787,-0.01,-0.01,0.0
1777317190.992726,-7.03,0.25,0.36,0.038,0.061,9.79,-0.01,-0.01,0.0
1777317191.002764,-7.03,0.25,0.36,0.044,0.075,9.786,-0.01,-0.01,0.0
1777317191.0126777,-7.02,0.25,0.36,0.041,0.062,9.78,0.0,0.0,0.0
1777317191.0227494,-7.02,0.25,0.36,0.037,0.071,9.779,0.0,-0.01,-0.01
1777317191.032737,-7.01,0.25,0.36,0.04,0.066,9.778,0.0,0.0,-0.01
1777317191.0427291,-7.01,0.25,0.36,0.038,0.059,9.78,-0.01,-0.01,-0.01
1777317191.052687,-7.01,0.25,0.36,0.035,0.057,9.778,0.0,0.0,-0.01
1777317191.0627031,-7.01,0.24,0.36,0.03,0.047,9.773,0.0,0.0,-0.01
1777317191.0727293,-7.01,0.24,0.36,0.032,0.046,9.776,0.0,0.0,-0.01
1777317191.0826995,-7.01,0.24,0.36,0.035,0.043,9.78,0.0,-0.01,-0.01
1777317191.0927317,-7.01,0.24,0.36,0.04,0.044,9.776,0.0,-0.01,0.0
1777317191.1027188,-7.01,0.24,0.36,0.037,0.054,9.785,0.0,0.0,0.0
1777317191.1118598,-7.01,0.24,0.36,0.041,0.057,9.785,0.0,-0.01,0.0
1777317191.122513,-7.01,0.24,0.36,0.038,0.061,9.778,0.0,-0.01,0.0
1777317191.1327024,-7.01,0.25,0.36,0.048,0.074,9.773,0.0,-0.01,0.0
1777317191.1418633,-7.01,0.25,0.36,0.049,0.062,9.775,0.0,-0.01,0.0
1777317191.1527028,-7.01,0.25,0.36,0.043,0.078,9.781,0.0,-0.01,-0.01
1777317191.1618695,-7.01,0.25,0.36,0.046,0.072,9.788,0.0,0.0,-0.01
1777317191.1727147,-7.01,0.25,0.36,0.038,0.072,9.793,0.0,-0.01,-0.01
1777317191.1818714,-7.01,0.25,0.36,0.046,0.067,9.786,0.0,0.0,-0.01
1777317191.1927075,-7.01,0.25,0.36,0.041,0.072,9.792,-0.01,-0.01,0.0
1777317191.2031202,-7.01,0.25,0.36,0.046,0.065,9.794,-0.01,-0.01,0.0
1777317191.212724,-7.02,0.25,0.36,0.042,0.075,9.798,-0.01,0.0,0.0
1777317191.2221153,-7.02,0.25,0.36,0.047,0.069,9.792,0.0,0.0,0.0
1777317191.2318594,-7.03,0.25,0.36,0.046,0.065,9.788,0.0,0.0,0.0
1777317191.2419279,-7.03,0.25,0.36,0.044,0.057,9.784,0.0,0.0,0.0
1777317191.25185,-7.02,0.25,0.36,0.046,0.054,9.78,0.0,0.0,-0.01
1777317191.261917,-7.01,0.25,0.36,0.042,0.055,9.78,-0.01,-0.01,-0.01
1777317191.271853,-7.01,0.25,0.36,0.044,0.053,9.782,0.0,0.0,-0.01
1777317191.2818637,-7.01,0.25,0.36,0.047,0.054,9.774,0.0,0.0,-0.01
1777317191.291844,-7.0,0.24,0.36,0.042,0.048,9.767,0.0,0.0,-0.01
1777317191.3018243,-7.0,0.24,0.36,0.037,0.038,9.767,0.0,0.0,-0.01
1777317191.311844,-7.0,0.24,0.36,0.043,0.042,9.766,0.0,-0.01,-0.01
1777317191.3218596,-7.01,0.25,0.36,0.048,0.047,9.767,0.0,-0.01,0.0
1777317191.3318532,-7.01,0.25,0.36,0.048,0.059,9.768,0.0,-0.01,0.0
1777317191.3418,-7.01,0.25,0.36,0.05,0.063,9.773,0.0,-0.01,0.0
1777317191.351858,-7.01,0.25,0.36,0.05,0.087,9.778,0.0,-0.01,0.0
1777317191.3618326,-7.02,0.25,0.36,0.056,0.067,9.786,-0.01,-0.01,0.0
1777317191.3718238,-7.02,0.25,0.36,0.054,0.093,9.792,-0.01,-0.01,0.0
1777317191.381842,-7.01,0.25,0.36,0.059,0.085,9.797,-0.01,0.0,-0.01
1777317191.3922296,-7.01,0.25,0.37,0.057,0.086,9.799,-0.01,-0.01,-0.01
1777317191.401824,-7.01,0.25,0.36,0.063,0.083,9.798,0.0,0.0,-0.01
1777317191.4118483,-7.0,0.25,0.36,0.057,0.06,9.796,0.0,0.0,-0.01
1777317191.4218352,-7.0,0.25,0.36,0.055,0.065,9.797,-0.01,0.0,-0.01
1777317191.4318736,-7.0,0.25,0.36,0.048,0.042,9.788,-0.01,0.0,-0.01
1777317191.441825,-7.01,0.25,0.36,0.04,0.049,9.791,-0.01,0.0,0.0
1777317191.451798,-7.01,0.25,0.36,0.04,0.054,9.788,0.0,0.0,0.0
1777317191.4618418,-7.01,0.25,0.36,0.04,0.038,9.788,0.0,0.0,0.0
1777317191.4718328,-7.01,0.25,0.36,0.038,0.046,9.786,0.0,0.0,0.0
1777317191.4818087,-7.01,0.25,0.36,0.037,0.049,9.785,0.0,0.0,0.0
1777317191.491786,-7.01,0.25,0.36,0.041,0.042,9.79,0.0,-0.01,0.0
1777317191.5018115,-7.01,0.25,0.36,0.036,0.065,9.79,0.0,-0.01,-0.01
1777317191.5117657,-7.0,0.25,0.36,0.041,0.043,9.785,0.0,-0.01,-0.01
1777317191.5217814,-7.0,0.25,0.36,0.034,0.081,9.788,0.0,-0.01,-0.01
1777317191.5317798,-7.0,0.25,0.36,0.041,0.055,9.784,0.0,-0.01,-0.01
1777317191.541779,-7.0,0.25,0.36,0.042,0.069,9.791,-0.01,-0.01,-0.01
1777317191.5517528,-7.0,0.25,0.36,0.053,0.062,9.79,0.0,-0.01,-0.01
1777317191.5618033,-7.0,0.25,0.36,0.059,0.055,9.786,0.0,-0.01,0.0
1777317191.5718222,-7.0,0.26,0.36,0.057,0.061,9.784,0.0,-0.01,0.0
1777317191.58179,-7.0,0.26,0.36,0.059,0.05,9.786,0.0,-0.01,0.0
1777317191.5917907,-7.0,0.26,0.36,0.05,0.063,9.791,-0.01,-0.01,0.0
1777317191.6018286,-7.0,0.26,0.36,0.049,0.059,9.792,0.0,0.0,0.0
1777317191.6117532,-7.01,0.26,0.36,0.047,0.053,9.793,0.0,0.0,0.0
1777317191.6217818,-7.01,0.26,0.36,0.05,0.04,9.794,0.0,0.0,0.0
1777317191.6317961,-7.01,0.26,0.36,0.034,0.062,9.796,-0.01,0.0,0.0
1777317191.6418002,-7.01,0.25,0.36,0.037,0.061,9.798,-0.01,0.0,0.0
1777317191.6517851,-7.01,0.25,0.36,0.029,0.074,9.794,-0.01,0.0,0.0
1777317191.6617808,-7.01,0.25,0.36,0.031,0.073,9.792,0.0,0.0,0.0
1777317191.6717951,-7.01,0.25,0.36,0.03,0.056,9.791,0.0,0.0,0.0
1777317191.6819558,-7.01,0.25,0.36,0.026,0.066,9.791,0.0,0.0,-0.01
1777317191.6917915,-7.01,0.25,0.36,0.029,0.057,9.796,-0.01,0.0,-0.01
1777317191.7017803,-7.01,0.25,0.36,0.031,0.053,9.784,-0.01,-0.01,-0.01
1777317191.7117882,-7.0,0.25,0.36,0.031,0.062,9.769,0.0,-0.01,-0.01
1777317191.7218125,-6.99,0.25,0.36,0.035,0.053,9.776,-0.01,-0.01,-0.01
1777317191.7317584,-6.99,0.25,0.36,0.032,0.06,9.785,0.0,-0.01,-0.01
1777317191.7417982,-6.99,0.25,0.36,0.037,0.04,9.788,0.0,-0.01,-0.01
1777317191.7517846,-6.99,0.25,0.36,0.029,0.061,9.788,0.0,-0.01,-0.01
1777317191.7618253,-6.99,0.25,0.36,0.029,0.032,9.788,0.0,-0.01,-0.01
1777317191.7717757,-6.99,0.25,0.36,0.029,0.054,9.788,-0.01,-0.01,0.0
1777317191.7818186,-6.99,0.25,0.35,0.036,0.05,9.784,0.0,0.0,-0.01
1777317191.7918198,-6.99,0.25,0.36,0.04,0.055,9.779,-0.01,-0.01,0.0
1777317191.8017647,-6.99,0.25,0.36,0.038,0.054,9.781,0.0,0.0,0.0
1777317191.811913,-6.99,0.25,0.36,0.041,0.054,9.784,0.0,0.0,0.0
1777317191.8217824,-7.0,0.25,0.35,0.038,0.062,9.782,-0.01,0.0,0.0
1777317191.8317623,-7.01,0.25,0.35,0.04,0.061,9.779,-0.01,0.0,0.0
1777317191.841797,-7.01,0.25,0.35,0.042,0.077,9.776,-0.01,0.0,0.0
1777317191.8517528,-7.01,0.25,0.35,0.042,0.071,9.779,0.0,0.0,0.0
1777317191.8617942,-7.01,0.25,0.36,0.038,0.062,9.782,0.0,0.0,0.0
1777317191.871777,-7.01,0.25,0.36,0.044,0.056,9.785,0.0,0.0,0.0
1777317191.8817964,-7.01,0.25,0.35,0.042,0.047,9.791,-0.01,0.0,-0.01
1777317191.89176,-7.01,0.25,0.35,0.044,0.048,9.796,-0.01,0.0,-0.01
1777317191.9017317,-7.0,0.25,0.35,0.047,0.05,9.791,0.0,0.0,-0.01
1777317191.9117627,-7.0,0.25,0.35,0.047,0.047,9.79,0.0,0.0,-0.01
1777317191.921741,-6.99,0.25,0.36,0.044,0.05,9.788,0.0,-0.01,-0.01
1777317191.9317782,-6.99,0.25,0.36,0.046,0.05,9.776,0.0,-0.01,-0.01
1777317191.9417553,-6.99,0.25,0.36,0.044,0.053,9.78,0.0,-0.01,-0.01
1777317191.9517741,-7.0,0.25,0.36,0.042,0.055,9.786,0.0,-0.01,0.0
1777317191.9617145,-7.0,0.25,0.36,0.042,0.06,9.781,-0.01,-0.01,0.0
1777317191.9717672,-7.0,0.25,0.36,0.051,0.071,9.784,-0.01,0.0,0.0
1777317191.9819713,-7.01,0.25,0.36,0.055,0.08,9.787,-0.01,-0.01,0.0
1777317191.9917874,-7.01,0.25,0.36,0.054,0.084,9.785,0.0,0.0,0.0
1777317192.001744,-7.01,0.25,0.36,0.05,0.073,9.781,0.0,-0.01,0.0
1777317192.0117884,-7.0,0.25,0.36,0.05,0.079,9.775,0.0,0.0,-0.01
1777317192.021719,-7.0,0.25,0.36,0.051,0.066,9.78,-0.01,0.0,-0.01
1777317192.0317624,-7.0,0.25,0.36,0.053,0.072,9.775,-0.01,0.0,-0.01
1777317192.0417132,-7.0,0.25,0.36,0.043,0.071,9.776,-0.01,0.0,0.0
1777317192.0517387,-7.0,0.25,0.36,0.048,0.057,9.773,-0.01,0.0,0.0
1777317192.0617516,-7.0,0.25,0.36,0.04,0.061,9.78,0.0,0.0,0.0
1777317192.0716941,-7.0,0.25,0.36,0.044,0.047,9.782,0.0,-0.01,0.0
1777317192.0817478,-7.0,0.25,0.36,0.036,0.055,9.787,0.0,0.0,-0.01
1777317192.0917225,-7.0,0.25,0.36,0.037,0.051,9.779,-0.01,-0.01,-0.01
1777317192.1017516,-7.0,0.25,0.36,0.032,0.054,9.778,-0.01,0.0,-0.01
1777317192.1117265,-6.99,0.25,0.36,0.036,0.049,9.774,0.0,-0.01,-0.01
1777317192.1217334,-6.99,0.25,0.36,0.034,0.06,9.776,0.0,0.0,-0.01
1777317192.1316767,-6.99,0.25,0.36,0.03,0.057,9.785,0.0,-0.01,0.0
1777317192.1417303,-7.0,0.25,0.36,0.038,0.054,9.79,0.0,-0.01,0.0
1777317192.1517074,-7.0,0.25,0.36,0.03,0.078,9.794,0.0,-0.01,0.0
1777317192.1617393,-7.0,0.25,0.36,0.043,0.056,9.791,0.0,-0.01,0.0
1777317192.171693,-7.0,0.25,0.36,0.035,0.084,9.796,0.0,-0.01,-0.01
1777317192.1817331,-7.0,0.25,0.36,0.044,0.065,9.785,0.0,-0.01,-0.01
1777317192.1908777,-7.0,0.25,0.36,0.043,0.068,9.785,0.0,-0.01,0.0
1777317192.2017171,-7.0,0.25,0.36,0.048,0.077,9.784,-0.01,-0.01,-0.01
1777317192.2114847,-7.0,0.25,0.36,0.046,0.069,9.784,0.0,0.0,0.0
1777317192.221718,-6.99,0.25,0.36,0.043,0.069,9.784,-0.01,-0.01,0.0
1777317192.2317336,-6.99,0.25,0.36,0.042,0.071,9.787,0.0,0.0,-0.01
1777317192.2417014,-6.99,0.25,0.36,0.04,0.069,9.788,-0.01,-0.01,-0.01
1777317192.2508762,-6.99,0.25,0.36,0.037,0.069,9.781,0.0,0.0,-0.01
1777317192.2608933,-6.99,0.25,0.36,0.034,0.057,9.786,0.0,-0.01,-0.01
1777317192.2708373,-6.99,0.25,0.36,0.03,0.05,9.78,-0.01,0.0,-0.01
1777317192.2808826,-6.99,0.25,0.36,0.026,0.042,9.781,0.0,-0.01,-0.01
1777317192.2917013,-6.99,0.25,0.35,0.025,0.042,9.781,0.0,0.0,0.0
1777317192.3008535,-7.0,0.25,0.35,0.031,0.035,9.774,-0.01,-0.01,0.0
1777317192.3117611,-7.0,0.25,0.35,0.036,0.048,9.78,-0.01,-0.01,0.0
1777317192.3208423,-7.01,0.25,0.35,0.038,0.059,9.785,0.0,0.0,0.0
1777317192.3308349,-7.01,0.25,0.36,0.043,0.057,9.78,0.0,-0.01,0.0
1777317192.3408527,-7.01,0.25,0.36,0.04,0.068,9.786,0.0,-0.01,0.0
1777317192.3508682,-7.01,0.25,0.36,0.047,0.066,9.778,0.0,-0.01,0.0
1777317192.3608966,-7.01,0.25,0.36,0.04,0.071,9.785,-0.01,-0.01,-0.01
1777317192.3708556,-7.0,0.25,0.36,0.048,0.078,9.785,-0.01,-0.01,-0.01
1777317192.3813114,-6.99,0.25,0.36,0.044,0.065,9.784,0.0,0.0,-0.01
1777317192.3908353,-6.99,0.25,0.36,0.04,0.074,9.78,0.0,-0.01,-0.01
1777317192.4008374,-6.98,0.25,0.36,0.046,0.063,9.778,0.0,0.0,-0.01
1777317192.4108608,-6.98,0.25,0.36,0.038,0.066,9.785,-0.01,-0.01,-0.01
1777317192.4208884,-6.97,0.25,0.36,0.048,0.051,9.781,0.0,0.0,-0.01
1777317192.4308631,-6.98,0.25,0.36,0.048,0.046,9.788,-0.01,0.0,-0.01
1777317192.4408703,-6.98,0.25,0.36,0.051,0.037,9.774,0.0,0.0,0.0
1777317192.4508817,-6.99,0.25,0.35,0.048,0.043,9.779,-0.01,0.0,0.0
1777317192.4608605,-6.99,0.25,0.35,0.047,0.049,9.785,-0.01,0.0,0.0
1777317192.470836,-7.0,0.25,0.35,0.047,0.051,9.79,-0.01,0.0,0.0
1777317192.4808552,-7.01,0.25,0.35,0.046,0.059,9.791,0.0,0.0,0.0
1777317192.490837,-7.01,0.25,0.35,0.04,0.048,9.786,0.0,-0.01,0.0
1777317192.5008574,-7.01,0.25,0.36,0.043,0.056,9.785,0.0,0.0,0.0
1777317192.5108044,-7.01,0.25,0.36,0.035,0.054,9.791,0.0,0.0,-0.01
1777317192.5208645,-7.01,0.25,0.36,0.041,0.056,9.792,-0.01,-0.01,-0.01
1777317192.5308065,-7.0,0.25,0.36,0.038,0.063,9.794,0.0,0.0,-0.01
1777317192.540859,-6.99,0.25,0.36,0.037,0.051,9.79,0.0,-0.01,-0.01
1777317192.5508258,-6.99,0.25,0.36,0.032,0.055,9.79,0.0,0.0,-0.01
1777317192.5608406,-6.99,0.25,0.36,0.031,0.05,9.779,0.0,0.0,-0.01
1777317192.5707898,-6.99,0.25,0.36,0.038,0.051,9.782,0.0,-0.01,-0.01
1777317192.5808036,-6.99,0.25,0.36,0.042,0.055,9.784,0.0,-0.01,0.0
1777317192.5912845,-7.0,0.25,0.36,0.042,0.042,9.782,0.0,-0.01,0.0
1777317192.600806,-7.01,0.25,0.36,0.043,0.056,9.786,-0.01,-0.01,0.0
1777317192.610838,-7.01,0.25,0.36,0.05,0.073,9.79,-0.01,-0.01,0.0
1777317192.6207988,-7.01,0.25,0.36,0.041,0.078,9.79,-0.01,0.0,0.0
1777317192.63084,-7.01,0.25,0.36,0.036,0.087,9.794,-0.01,-0.01,0.0
1777317192.6407988,-7.01,0.25,0.36,0.04,0.084,9.796,0.0,0.0,-0.01
1777317192.6508017,-7.0,0.25,0.36,0.042,0.081,9.799,-0.01,0.0,-0.01
1777317192.66086,-6.99,0.25,0.36,0.046,0.063,9.794,0.0,0.0,-0.01
1777317192.6708202,-6.99,0.25,0.36,0.041,0.06,9.796,-0.01,0.0,-0.01
1777317192.68079,-6.98,0.25,0.35,0.043,0.047,9.791,-0.01,0.0,-0.01
1777317192.6908526,-6.98,0.25,0.35,0.034,0.044,9.796,-0.01,0.0,-0.01
1777317192.7007987,-6.98,0.24,0.35,0.034,0.038,9.793,0.0,0.0,-0.01
1777317192.7108073,-6.98,0.24,0.35,0.032,0.025,9.794,0.0,0.0,0.0
1777317192.7208133,-6.98,0.24,0.34,0.028,0.036,9.798,0.0,-0.01,0.0
1777317192.7307773,-6.99,0.24,0.35,0.035,0.03,9.798,-0.01,-0.01,0.0
1777317192.7408152,-6.99,0.24,0.34,0.031,0.047,9.802,-0.01,0.0,0.0
1777317192.7507758,-6.99,0.25,0.34,0.035,0.044,9.796,-0.01,-0.01,0.0
1777317192.7611282,-7.0,0.25,0.34,0.031,0.063,9.797,-0.01,-0.01,0.0
1777317192.7707705,-7.0,0.25,0.34,0.042,0.073,9.785,0.0,-0.01,0.0
1777317192.7807596,-7.01,0.25,0.35,0.046,0.074,9.79,0.0,0.0,0.0
1777317192.7907765,-7.0,0.25,0.35,0.053,0.077,9.794,0.0,-0.01,0.0
1777317192.8008008,-7.0,0.25,0.35,0.055,0.073,9.794,0.0,0.0,-0.01
1777317192.8108118,-6.99,0.25,0.35,0.055,0.071,9.794,-0.01,-0.01,-0.01
1777317192.8207757,-6.99,0.25,0.35,0.056,0.066,9.792,-0.01,0.0,-0.01
1777317192.8307896,-6.99,0.25,0.35,0.051,0.062,9.794,0.0,0.0,-0.01
1777317192.840762,-6.99,0.25,0.36,0.05,0.059,9.791,0.0,0.0,-0.01
1777317192.8507905,-6.99,0.25,0.35,0.046,0.05,9.796,0.0,0.0,-0.01
1777317192.86078,-6.99,0.25,0.35,0.046,0.042,9.79,0.0,-0.01,0.0
1777317192.870793,-6.99,0.25,0.35,0.042,0.057,9.792,0.0,0.0,0.0
1777317192.880752,-6.99,0.25,0.35,0.042,0.055,9.79,0.0,0.0,0.0
1777317192.890777,-7.0,0.25,0.36,0.038,0.056,9.78,0.0,-0.01,0.0
1777317192.9007578,-7.01,0.25,0.36,0.042,0.061,9.769,0.0,0.0,0.0
1777317192.9107585,-7.01,0.25,0.36,0.041,0.056,9.768,0.0,-0.01,0.0
1777317192.920758,-7.01,0.25,0.36,0.046,0.067,9.779,0.0,-0.01,0.0
1777317192.9307601,-7.01,0.25,0.36,0.046,0.068,9.787,0.0,-0.01,-0.01
1777317192.9407592,-7.0,0.25,0.36,0.04,0.067,9.792,0.0,-0.01,-0.01
1777317192.9507625,-7.0,0.25,0.36,0.048,0.061,9.792,0.0,-0.01,-0.01
1777317192.9607935,-7.0,0.25,0.36,0.048,0.056,9.796,0.0,-0.01,-0.01
1777317192.970762,-7.0,0.25,0.36,0.051,0.055,9.794,0.0,-0.01,0.0
1777317192.9807386,-7.0,0.25,0.36,0.053,0.059,9.798,-0.01,-0.01,0.0
1777317192.9907634,-7.01,0.25,0.36,0.051,0.054,9.791,-0.01,-0.01,0.0
1777317193.0007281,-7.01,0.25,0.36,0.053,0.068,9.794,-0.01,-0.01,0.0
1777317193.0107603,-7.02,0.25,0.36,0.055,0.071,9.797,0.0,-0.01,0.0
1777317193.020758,-7.02,0.25,0.36,0.048,0.074,9.797,0.0,0.0,0.0
1777317193.030712,-7.02,0.25,0.36,0.046,0.075,9.793,0.0,0.0,0.0
1777317193.040763,-7.01,0.25,0.36,0.041,0.072,9.792,-0.01,0.0,-0.01
1777317193.0507343,-7.01,0.25,0.36,0.042,0.071,9.792,-0.01,0.0,-0.01
1777317193.0607753,-7.0,0.25,0.36,0.04,0.066,9.786,-0.01,0.0,-0.01
1777317193.0707092,-6.99,0.25,0.36,0.037,0.062,9.787,0.0,0.0,-0.01
1777317193.0807314,-6.99,0.25,0.36,0.035,0.051,9.785,0.0,0.0,-0.01
1777317193.0907166,-6.99,0.25,0.36,0.034,0.037,9.788,0.0,-0.01,-0.01
1777317193.1007788,-6.99,0.25,0.36,0.03,0.048,9.782,-0.01,-0.01,-0.01
1777317193.1107233,-7.0,0.25,0.36,0.035,0.048,9.782,0.0,-0.01,0.0
1777317193.1207318,-7.01,0.25,0.36,0.034,0.055,9.774,-0.01,-0.01,0.0
1777317193.1306984,-7.01,0.25,0.36,0.043,0.059,9.776,0.0,-0.01,0.0
1777317193.1407092,-7.01,0.25,0.36,0.041,0.063,9.78,0.0,-0.01,0.0
1777317193.1507251,-7.02,0.25,0.36,0.042,0.068,9.787,-0.01,-0.01,0.0
1777317193.1607125,-7.02,0.25,0.36,0.044,0.073,9.791,-0.01,-0.01,0.0
1777317193.1707482,-7.02,0.25,0.36,0.051,0.075,9.786,-0.01,-0.01,0.0
1777317193.180733,-7.01,0.25,0.36,0.051,0.079,9.788,0.0,0.0,-0.01
1777317193.1907103,-7.01,0.25,0.36,0.051,0.078,9.79,0.0,0.0,-0.01
1777317193.2007327,-7.01,0.25,0.36,0.053,0.077,9.79,0.0,0.0,-0.01
1777317193.2104754,-7.0,0.25,0.36,0.05,0.067,9.794,0.0,0.0,-0.01
1777317193.2207143,-6.99,0.25,0.36,0.053,0.065,9.796,-0.01,0.0,-0.01
1777317193.2298696,-6.99,0.25,0.36,0.047,0.059,9.792,0.0,0.0,-0.01
1777317193.2406938,-6.99,0.25,0.36,0.046,0.048,9.775,0.0,0.0,-0.01
1777317193.250724,-6.99,0.25,0.36,0.041,0.056,9.773,0.0,0.0,0.0
1777317193.2598755,-7.0,0.25,0.36,0.038,0.041,9.779,-0.01,-0.01,0.0
1777317193.270683,-7.0,0.25,0.36,0.043,0.057,9.785,-0.01,0.0,0.0
1777317193.2807283,-7.01,0.25,0.35,0.043,0.051,9.782,-0.01,-0.01,0.0
1777317193.2898946,-7.01,0.25,0.36,0.043,0.055,9.782,-0.01,-0.01,0.0
1777317193.3006964,-7.01,0.25,0.36,0.047,0.057,9.78,0.0,-0.01,0.0
1777317193.3106987,-7.01,0.25,0.36,0.051,0.05,9.78,0.0,-0.01,0.0
1777317193.3198779,-7.01,0.25,0.36,0.05,0.055,9.786,0.0,-0.01,-0.01
1777317193.3298995,-7.01,0.25,0.36,0.05,0.055,9.791,0.0,0.0,-0.01
1777317193.339844,-7.01,0.25,0.36,0.048,0.054,9.79,-0.01,-0.01,-0.01
1777317193.3498962,-7.01,0.25,0.36,0.044,0.063,9.792,0.0,0.0,-0.01
1777317193.3606904,-7.01,0.25,0.36,0.044,0.056,9.791,0.0,0.0,-0.01
1777317193.3698683,-7.01,0.25,0.36,0.043,0.062,9.79,0.0,-0.01,0.0
1777317193.380109,-7.01,0.26,0.36,0.043,0.057,9.788,0.0,-0.01,0.0
1777317193.3898728,-7.01,0.26,0.36,0.046,0.05,9.79,-0.01,-0.01,0.0
1777317193.3998976,-7.01,0.26,0.36,0.041,0.067,9.794,-0.01,-0.01,0.0
1777317193.4106874,-7.01,0.26,0.36,0.041,0.063,9.792,-0.01,0.0,0.0
1777317193.4198625,-7.01,0.26,0.36,0.041,0.062,9.788,-0.01,-0.01,0.0
1777317193.4298537,-7.01,0.26,0.36,0.046,0.055,9.786,0.0,0.0,-0.01
1777317193.4398658,-7.01,0.26,0.36,0.041,0.05,9.792,0.0,-0.01,0.0
1777317193.449842,-7.01,0.26,0.35,0.049,0.046,9.794,-0.01,-0.01,0.0
1777317193.4598691,-7.01,0.26,0.35,0.046,0.061,9.796,-0.01,-0.01,0.0
1777317193.46987,-7.01,0.26,0.35,0.044,0.067,9.782,0.0,0.0,0.0
1777317193.4798877,-7.01,0.26,0.36,0.044,0.069,9.775,0.0,0.0,0.0
1777317193.489836,-7.01,0.26,0.36,0.048,0.065,9.76,0.0,-0.01,0.0
1777317193.499869,-7.01,0.26,0.36,0.041,0.078,9.768,0.0,-0.01,0.0
1777317193.5098815,-7.01,0.26,0.36,0.043,0.063,9.774,-0.01,-0.01,-0.01
1777317193.5200074,-7.01,0.26,0.36,0.037,0.067,9.784,-0.01,0.0,-0.01
1777317193.5298388,-7.0,0.26,0.36,0.04,0.051,9.786,0.0,0.0,-0.01
1777317193.5400379,-7.0,0.26,0.36,0.037,0.061,9.79,0.0,0.0,-0.01
1777317193.5498173,-6.99,0.26,0.36,0.046,0.047,9.784,0.0,-0.01,-0.01
1777317193.5599759,-6.99,0.26,0.36,0.044,0.046,9.784,0.0,-0.01,-0.01
1777317193.569799,-6.99,0.26,0.36,0.041,0.044,9.791,0.0,-0.01,0.0
1777317193.5799963,-7.0,0.26,0.36,0.048,0.035,9.794,0.0,-0.01,0.0
1777317193.5898325,-7.0,0.27,0.35,0.048,0.043,9.793,0.0,-0.01,0.0
1777317193.5999243,-7.01,0.27,0.35,0.047,0.051,9.784,-0.01,-0.01,0.0
1777317193.6099284,-7.01,0.27,0.36,0.046,0.063,9.779,-0.01,-0.01,0.0
1777317193.6198058,-7.01,0.27,0.36,0.043,0.072,9.781,0.0,-0.01,0.0
1777317193.6298459,-7.01,0.27,0.36,0.047,0.062,9.782,0.0,-0.01,0.0
1777317193.6398091,-7.01,0.27,0.36,0.044,0.069,9.782,0.0,0.0,-0.01
1777317193.6498466,-7.0,0.26,0.36,0.047,0.054,9.776,0.0,0.0,-0.01
1777317193.6597748,-7.0,0.26,0.36,0.036,0.062,9.778,-0.01,0.0,-0.01
1777317193.670271,-7.0,0.26,0.36,0.042,0.059,9.784,-0.01,-0.01,-0.01
1777317193.6797793,-7.0,0.26,0.35,0.038,0.062,9.79,-0.01,0.0,-0.01
1777317193.6897912,-7.0,0.26,0.36,0.035,0.05,9.793,-0.01,-0.01,0.0
1777317193.6997378,-7.0,0.26,0.35,0.031,0.056,9.796,0.0,0.0,0.0
1777317193.7097259,-7.0,0.26,0.35,0.035,0.048,9.782,0.0,-0.01,0.0
1777317193.7198596,-7.01,0.26,0.35,0.042,0.04,9.776,0.0,0.0,0.0
1777317193.7297657,-7.01,0.26,0.34,0.037,0.057,9.778,-0.01,-0.01,0.0
1777317193.7397304,-7.01,0.26,0.35,0.046,0.059,9.778,-0.01,-0.01,0.0
1777317193.7497509,-7.01,0.26,0.35,0.034,0.071,9.786,0.0,0.0,-0.01
1777317193.7597792,-7.01,0.26,0.35,0.037,0.055,9.784,0.0,0.0,-0.01
1777317193.7697546,-7.0,0.26,0.35,0.032,0.062,9.78,0.0,0.0,-0.01
1777317193.779778,-7.0,0.26,0.35,0.037,0.046,9.785,0.0,-0.01,-0.01
1777317193.7897606,-7.0,0.26,0.35,0.038,0.05,9.791,-0.01,-0.01,-0.01
1777317193.799801,-7.0,0.26,0.35,0.04,0.067,9.792,0.0,-0.01,-0.01
1777317193.8097792,-7.0,0.26,0.35,0.035,0.061,9.791,-0.01,0.0,-0.01
1777317193.819781,-7.0,0.26,0.35,0.029,0.069,9.794,-0.01,-0.01,0.0
1777317193.8297505,-7.0,0.26,0.35,0.034,0.073,9.797,0.0,0.0,0.0
1777317193.8398604,-7.01,0.26,0.36,0.03,0.075,9.799,0.0,-0.01,0.0
1777317193.8504503,-7.01,0.26,0.36,0.032,0.068,9.797,0.0,0.0,0.0
1777317193.8597991,-7.01,0.25,0.36,0.036,0.062,9.8,0.0,-0.01,0.0
1777317193.869802,-7.0,0.25,0.36,0.043,0.063,9.803,0.0,0.0,-0.01
1777317193.8797615,-7.0,0.25,0.36,0.041,0.067,9.804,-0.01,-0.01,-0.01
1777317193.889785,-7.0,0.25,0.36,0.043,0.054,9.799,-0.01,0.0,-0.01
1777317193.8997648,-7.0,0.25,0.36,0.034,0.06,9.799,0.0,0.0,-0.01
1777317193.9098105,-6.99,0.25,0.35,0.036,0.047,9.792,0.0,0.0,-0.01
1777317193.9197655,-6.99,0.25,0.36,0.038,0.048,9.797,-0.01,-0.01,-0.01
1777317193.9297657,-7.0,0.25,0.35,0.044,0.068,9.788,0.0,0.0,0.0
1777317193.939774,-7.0,0.25,0.36,0.043,0.05,9.79,0.0,0.0,0.0
1777317193.9497712,-7.0,0.25,0.36,0.042,0.069,9.788,0.0,-0.01,0.0
1777317193.9598095,-7.0,0.26,0.36,0.043,0.06,9.791,-0.01,-0.01,0.0
1777317193.969783,-7.0,0.26,0.36,0.04,0.073,9.794,0.0,-0.01,0.0
1777317193.9797704,-7.0,0.26,0.35,0.041,0.062,9.786,0.0,0.0,-0.01
1777317193.9897857,-7.0,0.26,0.36,0.034,0.067,9.79,-0.01,-0.01,0.0
1777317194.000988,-7.0,0.26,0.35,0.042,0.071,9.779,-0.01,0.0,-0.01
1777317194.0119193,-6.99,0.26,0.36,0.047,0.066,9.787,-0.01,-0.01,-0.01
1777317194.0197608,-6.99,0.26,0.36,0.051,0.067,9.791,0.0,0.0,-0.01
1777317194.0298183,-6.99,0.26,0.36,0.047,0.056,9.792,0.0,0.0,-0.01
1777317194.0397832,-6.99,0.26,0.35,0.049,0.051,9.785,0.0,0.0,-0.01
1777317194.0497596,-6.99,0.26,0.35,0.047,0.05,9.791,-0.01,-0.01,0.0
1777317194.059799,-7.0,0.26,0.35,0.043,0.049,9.79,0.0,0.0,0.0
1777317194.0697794,-7.0,0.26,0.35,0.049,0.04,9.788,0.0,0.0,0.0
1777317194.0797696,-7.0,0.26,0.35,0.048,0.042,9.784,0.0,-0.01,0.0
1777317194.0897207,-7.01,0.26,0.35,0.05,0.051,9.785,0.0,0.0,0.0
1777317194.0997326,-7.01,0.26,0.36,0.047,0.054,9.786,0.0,-0.01,0.0
1777317194.1097698,-7.01,0.26,0.36,0.041,0.063,9.787,0.0,-0.01,0.0
1777317194.1197333,-7.01,0.26,0.36,0.037,0.063,9.785,0.0,-0.01,-0.01
1777317194.1298075,-7.01,0.26,0.36,0.037,0.069,9.781,0.0,-0.01,0.0
1777317194.1397297,-7.01,0.26,0.36,0.036,0.081,9.788,0.0,0.0,-0.01
1777317194.149775,-7.01,0.26,0.36,0.032,0.081,9.791,0.0,-0.01,0.0
1777317194.159909,-7.01,0.26,0.36,0.036,0.074,9.78,0.0,-0.01,0.0
1777317194.1697192,-7.01,0.26,0.36,0.029,0.081,9.787,0.0,-0.01,-0.01
1777317194.1798317,-7.0,0.26,0.36,0.041,0.071,9.784,-0.01,-0.01,-0.01
1777317194.1898122,-7.0,0.26,0.36,0.041,0.072,9.787,-0.01,0.0,-0.01
1777317194.1997304,-7.0,0.26,0.36,0.047,0.055,9.778,0.0,0.0,-0.01
1777317194.2097433,-7.0,0.26,0.36,0.047,0.065,9.781,-0.01,0.0,-0.01
1777317194.2197194,-6.99,0.26,0.36,0.06,0.05,9.779,-0.01,-0.01,-0.01
1777317194.2297506,-6.99,0.26,0.36,0.055,0.053,9.785,-0.01,0.0,-0.01
1777317194.2398877,-6.99,0.26,0.35,0.049,0.048,9.787,-0.01,0.0,-0.01
1777317194.249707,-6.99,0.26,0.36,0.041,0.041,9.787,0.0,0.0,0.0
1777317194.2596889,-7.0,0.26,0.35,0.032,0.043,9.788,0.0,0.0,0.0
1777317194.2697341,-7.0,0.26,0.35,0.037,0.04,9.793,-0.01,0.0,0.0
1777317194.2797232,-7.01,0.25,0.35,0.036,0.054,9.798,-0.01,-0.01,0.0
1777317194.2897105,-7.01,0.25,0.35,0.034,0.053,9.79,0.0,0.0,0.0
1777317194.2988374,-7.01,0.25,0.35,0.029,0.061,9.792,0.0,-0.01,0.0
1777317194.309738,-7.01,0.25,0.35,0.034,0.06,9.792,0.0,-0.01,0.0
1777317194.3188806,-7.01,0.25,0.36,0.03,0.06,9.788,0.0,-0.01,-0.01
1777317194.3288732,-7.0,0.25,0.36,0.04,0.066,9.776,0.0,-0.01,-0.01
1777317194.3388278,-7.0,0.26,0.36,0.046,0.071,9.782,-0.01,-0.01,-0.01
1777317194.3505569,-7.0,0.26,0.36,0.048,0.062,9.775,0.0,-0.01,-0.01
1777317194.3588474,-6.99,0.26,0.36,0.047,0.072,9.781,0.0,-0.01,-0.01
1777317194.369705,-6.99,0.26,0.36,0.054,0.06,9.784,0.0,-0.01,-0.01
1777317194.378882,-6.99,0.26,0.36,0.05,0.072,9.791,0.0,-0.01,-0.01
1777317194.389719,-6.99,0.26,0.36,0.053,0.061,9.785,0.0,0.0,-0.01
1777317194.3988562,-6.99,0.26,0.36,0.051,0.066,9.788,-0.01,0.0,0.0
1777317194.4089122,-7.0,0.27,0.36,0.055,0.068,9.781,0.0,0.0,0.0
1777317194.4196992,-7.0,0.27,0.36,0.055,0.074,9.787,-0.01,-0.01,0.0
1777317194.4288683,-7.0,0.26,0.36,0.055,0.068,9.793,-0.01,0.0,0.0
1777317194.4397094,-7.0,0.27,0.36,0.048,0.069,9.797,-0.01,0.0,0.0
1777317194.4489172,-7.0,0.26,0.36,0.049,0.065,9.792,0.0,0.0,0.0
1777317194.4590154,-7.0,0.26,0.36,0.042,0.06,9.785,0.0,0.0,-0.01
1777317194.46887,-7.0,0.26,0.36,0.046,0.055,9.779,0.0,-0.01,-0.01
1777317194.4789226,-7.0,0.26,0.35,0.037,0.061,9.785,0.0,0.0,-0.01
1777317194.4891284,-6.99,0.26,0.36,0.037,0.05,9.792,-0.01,-0.01,0.0
1777317194.4988844,-6.99,0.26,0.35,0.03,0.059,9.796,0.0,0.0,-0.01
1777317194.5094054,-6.99,0.25,0.36,0.028,0.05,9.799,0.0,-0.01,-0.01
1777317194.5190177,-6.99,0.26,0.36,0.029,0.055,9.797,0.0,0.0,0.0
1777317194.5288587,-6.99,0.26,0.35,0.037,0.034,9.796,0.0,-0.01,0.0
1777317194.538841,-7.0,0.26,0.35,0.036,0.055,9.792,-0.01,-0.01,0.0
1777317194.5488174,-7.0,0.26,0.35,0.032,0.057,9.794,-0.01,-0.01,0.0
1777317194.5587993,-7.0,0.26,0.35,0.034,0.06,9.798,-0.01,-0.01,0.0
1777317194.5690017,-7.0,0.26,0.35,0.034,0.06,9.799,0.0,0.0,0.0
1777317194.5788186,-7.0,0.26,0.36,0.038,0.051,9.793,0.0,0.0,0.0
1777317194.5888152,-7.0,0.26,0.36,0.04,0.048,9.797,0.0,-0.01,0.0
1777317194.598798,-7.0,0.26,0.35,0.04,0.05,9.8,0.0,-0.01,-0.01
1777317194.6088288,-7.0,0.26,0.35,0.044,0.054,9.8,-0.01,0.0,-0.01
1777317194.6193519,-7.0,0.26,0.35,0.049,0.054,9.802,0.0,0.0,0.0
1777317194.6287994,-7.01,0.26,0.35,0.047,0.063,9.799,-0.01,0.0,0.0
1777317194.6388075,-7.01,0.26,0.36,0.044,0.065,9.797,0.0,0.0,0.0
1777317194.6488109,-7.01,0.26,0.36,0.047,0.071,9.794,-0.01,-0.01,0.0
1777317194.6587648,-7.01,0.26,0.36,0.036,0.067,9.793,0.0,-0.01,0.0
1777317194.6688132,-7.01,0.26,0.36,0.035,0.071,9.798,0.0,-0.01,0.0
1777317194.6788573,-7.01,0.26,0.36,0.037,0.067,9.796,0.0,0.0,0.0
1777317194.6887844,-7.01,0.26,0.36,0.032,0.066,9.794,-0.01,-0.01,0.0
1777317194.698784,-7.01,0.25,0.36,0.043,0.086,9.787,-0.01,0.0,-0.01
1777317194.708773,-7.0,0.26,0.36,0.046,0.066,9.788,-0.01,0.0,-0.01
1777317194.7188964,-7.0,0.26,0.36,0.047,0.071,9.793,-0.01,-0.01,-0.01
1777317194.7287536,-6.99,0.26,0.35,0.05,0.069,9.798,0.0,0.0,-0.01
1777317194.7387867,-6.99,0.26,0.36,0.054,0.061,9.798,-0.01,-0.01,-0.01
1777317194.748822,-6.99,0.26,0.36,0.056,0.055,9.799,0.0,0.0,-0.01
1777317194.758753,-6.99,0.26,0.36,0.049,0.043,9.798,0.0,0.0,-0.01
1777317194.768761,-6.99,0.26,0.35,0.049,0.046,9.796,0.0,0.0,-0.01
1777317194.7788033,-6.99,0.26,0.35,0.044,0.036,9.793,0.0,-0.01,0.0
1777317194.7888002,-6.99,0.26,0.35,0.042,0.046,9.798,0.0,-0.01,0.0
1777317194.7988024,-7.0,0.26,0.35,0.035,0.044,9.8,0.0,0.0,0.0
1777317194.8088253,-7.01,0.26,0.35,0.037,0.047,9.796,0.0,-0.01,0.0
1777317194.818778,-7.01,0.26,0.35,0.038,0.068,9.797,0.0,0.0,0.0
1777317194.8288157,-7.01,0.26,0.36,0.038,0.061,9.791,0.0,-0.01,0.0
1777317194.838785,-7.01,0.26,0.36,0.036,0.072,9.796,0.0,-0.01,-0.01
1777317194.8487768,-7.01,0.26,0.36,0.04,0.067,9.799,0.0,-0.01,-0.01
1777317194.8587863,-7.01,0.26,0.36,0.032,0.095,9.802,-0.01,0.0,-0.01
1777317194.8688018,-7.0,0.26,0.36,0.04,0.083,9.792,-0.01,-0.01,-0.01
1777317194.8787456,-7.0,0.26,0.36,0.046,0.09,9.775,-0.01,0.0,-0.01
1777317194.8887897,-7.0,0.26,0.36,0.046,0.083,9.769,0.0,-0.01,-0.01
1777317194.8987668,-7.0,0.26,0.36,0.043,0.074,9.773,0.0,-0.01,-0.01
1777317194.9087465,-7.0,0.26,0.36,0.04,0.071,9.782,-0.01,-0.01,-0.01
1777317194.9187694,-7.0,0.26,0.36,0.047,0.061,9.79,-0.01,0.0,-0.01
1777317194.93382,-6.99,0.26,0.36,0.047,0.053,9.791,-0.01,0.0,-0.01
1777317194.9389772,-6.99,0.26,0.36,0.049,0.038,9.784,-0.01,0.0,-0.01
1777317194.9487844,-6.99,0.26,0.35,0.042,0.048,9.786,0.0,0.0,-0.01
1777317194.958869,-6.99,0.26,0.36,0.041,0.038,9.779,0.0,0.0,-0.01
1777317194.9688213,-6.99,0.26,0.35,0.036,0.036,9.786,0.0,0.0,-0.01
1777317194.978824,-6.99,0.26,0.35,0.036,0.032,9.792,0.0,-0.01,0.0
1777317194.9890022,-7.0,0.26,0.35,0.032,0.04,9.796,-0.01,-0.01,0.0
1777317194.9992921,-7.0,0.25,0.35,0.037,0.053,9.79,0.0,0.0,0.0
1777317195.00902,-7.01,0.26,0.35,0.041,0.063,9.781,-0.01,0.0,0.0
1777317195.018933,-7.01,0.26,0.35,0.04,0.069,9.78,0.0,-0.01,0.0
1777317195.028736,-7.01,0.26,0.36,0.041,0.079,9.788,-0.01,-0.01,0.0
1777317195.0387712,-7.01,0.26,0.36,0.034,0.089,9.793,0.0,-0.01,-0.01
1777317195.0487676,-7.0,0.26,0.36,0.036,0.074,9.796,-0.01,-0.01,-0.01
1777317195.058736,-7.0,0.26,0.36,0.034,0.077,9.793,-0.01,0.0,-0.01
1777317195.0688245,-6.99,0.26,0.35,0.043,0.067,9.798,-0.01,-0.01,-0.01
1777317195.0787756,-6.99,0.26,0.35,0.048,0.063,9.797,-0.01,-0.01,-0.01
1777317195.088758,-6.99,0.26,0.35,0.047,0.069,9.798,-0.01,-0.01,-0.01
1777317195.0987625,-6.99,0.26,0.35,0.051,0.048,9.793,-0.01,0.0,0.0
1777317195.1087558,-6.99,0.26,0.35,0.048,0.054,9.796,0.0,0.0,0.0
1777317195.1187077,-7.0,0.26,0.35,0.048,0.03,9.791,0.0,0.0,0.0
1777317195.1288893,-7.0,0.26,0.35,0.04,0.041,9.796,-0.01,0.0,0.0
1777317195.1389,-7.0,0.26,0.34,0.038,0.043,9.799,-0.01,0.0,0.0
1777317195.148853,-7.0,0.26,0.35,0.037,0.051,9.8,-0.01,-0.01,-0.01
1777317195.158888,-7.0,0.25,0.35,0.042,0.05,9.791,0.0,0.0,0.0
1777317195.168776,-7.0,0.25,0.35,0.035,0.055,9.782,0.0,0.0,0.0
1777317195.178854,-7.0,0.25,0.35,0.036,0.057,9.78,0.0,-0.01,0.0
1777317195.1887527,-7.0,0.25,0.35,0.034,0.053,9.781,0.0,-0.01,0.0
1777317195.1987185,-7.01,0.26,0.35,0.035,0.061,9.786,0.0,-0.01,0.0
1777317195.20872,-7.01,0.26,0.35,0.037,0.057,9.79,0.0,-0.01,0.0
1777317195.218752,-7.01,0.26,0.35,0.043,0.072,9.794,0.0,-0.01,0.0
1777317195.2287924,-7.01,0.26,0.35,0.057,0.055,9.787,0.0,-0.01,0.0
1777317195.2387602,-7.0,0.27,0.36,0.113,0.145,9.678,-0.01,-0.01,-0.01
1777317195.2487202,-6.99,0.31,0.39,0.188,0.274,9.321,0.0,-0.01,-0.01
1777317195.2587283,-6.97,0.38,0.47,0.492,0.344,9.053,0.01,-0.02,-0.01
1777317195.268709,-6.9,0.58,0.43,0.515,0.174,9.254,0.02,-0.04,-0.03
1777317195.2787201,-6.83,0.55,0.39,0.248,0.195,9.402,-0.03,-0.08,-0.04
1777317195.2886972,-6.75,0.44,0.35,1.15,0.126,9.509,-0.03,0.03,-0.05
1777317195.2989295,-6.69,0.47,0.22,1.855,-0.002,9.59,-0.03,0.1,-0.05
1777317195.308728,-6.65,0.28,0.04,0.116,0.008,9.647,-0.07,0.08,-0.03
1777317195.3190675,-6.69,-0.88,-0.25,1.593,0.487,7.955,-0.09,0.21,-0.03
1777317195.3290854,-6.71,-0.14,0.13,1.558,0.56,8.05,-0.13,0.41,0.05
1777317195.338708,-6.65,-0.06,0.2,1.395,1.312,8.517,0.05,-0.22,0.01
1777317195.3487065,-6.58,0.1,0.88,2.274,0.916,7.641,0.09,-0.18,-0.05
1777317195.3587048,-6.59,1.37,1.06,4.354,0.735,4.354,0.3,-0.08,-0.02
1777317195.368704,-6.36,3.16,1.09,1.061,-0.479,5.334,0.12,-0.56,-0.04
1777317195.3787096,-6.14,2.38,0.69,-3.052,-1.787,6.518,0.0,-0.85,-0.14
1777317195.3887043,-6.11,1.18,0.4,-1.435,-0.429,1.571,-0.13,0.15,-0.08
1777317195.3987007,-6.0,1.18,0.57,0.111,-0.461,0.78,-0.12,0.44,0.0
1777317195.408744,-6.04,1.09,0.4,-0.989,-0.43,2.823,0.02,0.12,-0.08
1777317195.4186962,-6.17,0.35,0.42,-1.255,-0.717,4.674,-0.02,0.08,0.05
1777317195.4286742,-6.22,-0.05,0.33,0.393,0.04,6.035,0.02,0.35,0.05
1777317195.4378653,-6.21,0.02,0.34,0.562,0.223,7.037,-0.05,0.24,0.02
1777317195.4486945,-6.13,0.3,0.49,0.228,-0.04,7.772,0.0,-0.02,-0.02
1777317195.458712,-5.97,0.14,0.48,-1.679,-0.392,8.312,0.05,-0.15,-0.05
1777317195.4687097,-5.84,-0.28,0.34,-1.631,-0.445,6.887,0.02,0.02,-0.09
1777317195.478725,-5.7,-0.28,0.29,-0.741,-0.012,4.489,-0.05,0.13,-0.07
1777317195.488713,-5.6,-0.1,0.3,-1.156,0.175,5.013,-0.06,-0.03,-0.08
1777317195.4987056,-5.58,-0.23,0.38,-1.853,-0.357,6.285,0.0,-0.12,-0.05
1777317195.5086923,-5.66,-0.18,0.3,-0.96,0.002,7.221,0.05,-0.04,-0.01
1777317195.5187168,-5.74,0.07,0.38,-0.399,-0.23,7.906,-0.02,-0.05,0.05
1777317195.5287035,-5.79,0.22,0.35,-0.946,-0.441,8.41,0.03,-0.12,0.04
1777317195.53868,-5.79,0.28,0.25,-0.329,-0.2,8.298,-0.01,-0.09,0.02
1777317195.5478518,-5.79,0.47,0.25,0.017,0.165,7.647,-0.05,-0.06,-0.01
1777317195.5578663,-5.77,0.6,0.31,0.022,0.389,7.396,-0.03,-0.08,0.0
1777317195.567856,-5.73,0.65,0.35,0.245,0.307,7.842,-0.01,-0.06,-0.02
1777317195.5778646,-5.66,0.81,0.35,0.402,0.571,8.318,0.02,-0.02,-0.02
1777317195.5878587,-5.58,0.97,0.35,0.471,-0.134,8.715,0.0,-0.05,-0.04
1777317195.597877,-5.59,0.99,0.39,-0.228,-0.079,9.005,0.0,-0.09,-0.04
1777317195.6078582,-5.62,0.9,0.36,0.325,-0.243,8.845,0.04,-0.01,0.0
1777317195.6178424,-5.61,0.99,0.29,0.69,-0.271,8.393,-0.01,0.04,0.02
1777317195.627839,-5.6,1.03,0.17,0.495,-0.126,8.565,-0.05,-0.02,-0.02
1777317195.637854,-5.64,1.0,0.18,0.758,0.138,8.639,-0.05,0.0,0.0
1777317195.6478412,-5.68,1.0,0.24,0.571,0.121,8.949,-0.01,0.03,0.02
1777317195.6578434,-5.73,0.87,0.33,0.344,0.02,9.179,0.02,0.02,0.02
1777317195.6678114,-5.77,0.77,0.37,0.32,-0.084,9.342,0.05,0.05,0.02
1777317195.6778584,-5.77,0.69,0.33,0.178,-0.213,9.466,0.02,0.05,0.01
1777317195.6878426,-5.77,0.59,0.28,0.244,-0.18,9.271,-0.02,0.04,0.0
1777317195.698185,-5.79,0.56,0.24,0.096,-0.042,9.186,-0.03,0.04,-0.01
1777317195.7078567,-5.82,0.47,0.24,-0.195,0.104,9.297,-0.02,0.02,0.01
1777317195.7178054,-5.88,0.35,0.31,-0.205,0.313,9.342,-0.01,0.03,0.02
1777317195.727799,-5.91,0.28,0.42,-0.226,0.35,9.409,0.02,0.05,0.02
1777317195.7378411,-5.88,0.25,0.51,-0.279,0.326,9.514,0.04,0.02,0.01
1777317195.7478487,-5.87,0.22,0.45,-0.554,0.166,9.593,0.02,-0.01,-0.03
1777317195.7578073,-5.93,0.12,0.38,-0.595,0.132,9.536,-0.03,0.0,0.0
1777317195.7678742,-5.98,0.14,0.32,-0.598,0.248,9.348,-0.03,0.01,0.04
1777317195.777835,-5.98,0.15,0.34,-0.592,0.321,9.444,-0.05,-0.02,0.02
1777317195.7878327,-5.94,0.16,0.3,-0.459,0.091,9.465,-0.01,-0.02,-0.02
1777317195.7978332,-5.89,0.21,0.26,-0.362,0.12,9.529,-0.02,-0.02,-0.03
1777317195.8078623,-5.83,0.27,0.26,-0.317,0.213,9.603,-0.02,-0.03,-0.03
1777317195.8178403,-5.73,0.32,0.32,-0.085,-0.022,9.576,0.01,-0.04,-0.04
1777317195.8278098,-5.62,0.42,0.39,-0.055,0.0,9.599,0.03,-0.04,-0.06
1777317195.837806,-5.47,0.43,0.37,-0.006,-0.259,9.654,0.03,-0.04,-0.08
1777317195.847783,-5.34,0.47,0.29,0.046,-0.243,9.671,0.0,-0.02,-0.08
1777317195.857793,-5.28,0.52,0.29,0.226,-0.091,9.646,-0.03,-0.02,-0.07
1777317195.8677883,-5.33,0.58,0.34,0.274,-0.087,9.657,0.0,-0.02,-0.02
1777317195.8777888,-5.44,0.62,0.38,0.241,-0.12,9.679,0.02,-0.02,0.03
1777317195.8877563,-5.58,0.63,0.38,0.322,0.029,9.679,0.02,-0.01,0.06
1777317195.89782,-5.73,0.65,0.39,0.311,0.005,9.714,0.0,-0.01,0.08
1777317195.9077723,-5.86,0.64,0.36,0.303,0.172,9.739,0.0,-0.01,0.08
1777317195.9178448,-5.95,0.63,0.35,0.303,0.322,9.759,-0.02,0.01,0.06
1777317195.927802,-5.99,0.61,0.37,0.265,0.473,9.772,-0.02,0.01,0.04
1777317195.9378135,-5.99,0.57,0.4,0.15,0.484,9.77,-0.01,0.02,0.02
1777317195.9477818,-5.95,0.51,0.41,0.097,0.454,9.691,0.0,0.02,-0.01
1777317195.9578066,-5.87,0.46,0.42,0.065,0.395,9.687,-0.01,0.02,-0.03
1777317195.9677896,-5.77,0.41,0.4,-0.056,0.242,9.719,-0.01,0.02,-0.05
1777317195.9777794,-5.67,0.36,0.39,-0.068,0.153,9.727,-0.02,0.02,-0.06
1777317195.9877794,-5.59,0.33,0.35,-0.156,-0.044,9.748,-0.01,0.02,-0.05
1777317195.9978175,-5.56,0.29,0.32,-0.23,-0.17,9.694,-0.01,0.0,-0.04
1777317196.0079005,-5.56,0.27,0.28,-0.216,-0.259,9.586,-0.01,0.01,-0.02
1777317196.017772,-5.6,0.26,0.26,-0.263,-0.273,9.596,-0.01,0.0,0.01
1777317196.0279238,-5.67,0.26,0.26,-0.248,-0.253,9.636,-0.01,-0.01,0.02
1777317196.037796,-5.75,0.27,0.27,-0.21,-0.216,9.682,0.01,-0.01,0.04
1777317196.047779,-5.82,0.29,0.28,-0.162,-0.122,9.717,0.01,-0.02,0.04
1777317196.0577672,-5.86,0.31,0.29,-0.127,-0.026,9.741,0.01,-0.02,0.03
1777317196.0677779,-5.88,0.32,0.31,-0.061,0.115,9.75,0.0,-0.02,0.02
1777317196.077808,-5.87,0.35,0.33,-0.017,0.241,9.749,-0.01,-0.02,0.0
1777317196.0877612,-5.83,0.36,0.37,0.008,0.323,9.756,0.0,-0.02,-0.02
1777317196.0977688,-5.78,0.37,0.42,0.031,0.346,9.77,0.01,-0.01,-0.02
1777317196.1077714,-5.71,0.38,0.44,0.035,0.322,9.78,0.01,-0.01,-0.04
1777317196.117734,-5.64,0.38,0.44,0.048,0.262,9.788,0.0,-0.01,-0.04
1777317196.127763,-5.59,0.38,0.41,0.06,0.235,9.793,-0.01,0.0,-0.04
1777317196.1377723,-5.57,0.38,0.39,0.086,0.147,9.786,-0.02,0.0,-0.02
1777317196.147749,-5.59,0.38,0.37,0.051,0.091,9.762,-0.02,-0.01,-0.02
1777317196.1577647,-5.62,0.37,0.35,0.081,0.007,9.697,-0.02,0.0,0.01
1777317196.1677282,-5.68,0.38,0.34,0.046,-0.038,9.712,-0.01,0.0,0.02
1777317196.1777492,-5.73,0.37,0.32,0.029,-0.083,9.737,-0.01,-0.01,0.03
1777317196.1877673,-5.77,0.37,0.3,0.012,-0.069,9.756,-0.01,0.0,0.02
1777317196.197735,-5.79,0.36,0.29,0.006,-0.04,9.77,-0.01,0.0,0.02
1777317196.207774,-5.78,0.35,0.28,-0.002,-0.002,9.774,-0.01,0.0,0.0
1777317196.2177396,-5.75,0.34,0.3,-0.011,0.023,9.741,0.0,0.0,-0.01
1777317196.2277668,-5.72,0.34,0.32,-0.026,0.026,9.711,0.0,0.0,-0.02
1777317196.2377632,-5.67,0.33,0.35,-0.044,0.051,9.697,0.01,-0.01,-0.03
1777317196.247736,-5.62,0.32,0.38,-0.012,-0.025,9.696,0.02,0.0,-0.03
1777317196.2577698,-5.59,0.32,0.39,-0.054,-0.067,9.726,0.02,0.0,-0.03
1777317196.2677412,-5.6,0.31,0.4,-0.099,-0.153,9.748,0.02,-0.01,-0.02
1777317196.2777185,-5.62,0.32,0.39,-0.103,-0.126,9.754,0.01,-0.01,0.0
1777317196.2877622,-5.66,0.33,0.38,-0.147,-0.128,9.769,0.0,-0.02,0.02
1777317196.297746,-5.7,0.33,0.37,-0.15,0.011,9.743,-0.01,-0.02,0.02
1777317196.307742,-5.75,0.34,0.4,-0.06,0.169,9.675,-0.01,-0.02,0.02
1777317196.317742,-5.78,0.38,0.45,-0.075,0.125,9.69,0.01,-0.01,0.02
1777317196.3277128,-5.81,0.36,0.44,0.066,0.097,9.531,0.02,-0.02,0.02
1777317196.3377008,-5.81,0.42,0.41,0.286,0.061,9.55,-0.01,0.01,0.01
1777317196.3477619,-5.82,0.48,0.55,0.105,0.026,9.447,-0.02,-0.02,-0.01
1777317196.3577313,-5.82,0.47,0.47,0.001,-0.014,9.153,0.05,-0.02,0.0
1777317196.3677115,-5.82,0.4,0.51,0.031,-0.09,9.238,-0.01,-0.01,0.0
1777317196.3776994,-5.87,0.34,0.51,0.054,-0.224,9.321,0.02,0.02,0.01
1777317196.3876936,-5.92,0.34,0.51,0.137,-0.342,9.429,0.01,0.02,0.02
1777317196.397761,-5.98,0.32,0.47,0.188,-0.405,9.53,0.01,0.02,0.03
1777317196.4077258,-6.01,0.33,0.46,0.19,-0.216,9.604,-0.01,0.01,0.02
1777317196.4177008,-6.03,0.33,0.5,0.078,-0.139,9.658,-0.01,0.0,0.02
1777317196.4277174,-6.02,0.29,0.52,0.001,-0.042,9.535,0.02,0.0,0.0
1777317196.4378312,-5.98,0.27,0.55,-0.017,0.193,9.442,0.01,0.01,-0.01
1777317196.4468713,-5.95,0.25,0.61,-0.108,0.292,9.541,0.0,0.0,-0.02
1777317196.4577367,-5.91,0.22,0.64,-0.075,0.251,9.612,0.02,0.0,-0.02
1777317196.4677293,-5.89,0.22,0.64,-0.092,0.21,9.664,0.01,0.0,-0.02
1777317196.476883,-5.89,0.21,0.63,-0.057,0.182,9.632,-0.01,-0.01,-0.02
1777317196.4877362,-5.92,0.23,0.63,-0.018,0.11,9.545,-0.01,-0.01,0.0
1777317196.4977245,-5.95,0.24,0.6,-0.035,0.069,9.614,-0.01,-0.01,0.01
1777317196.5077033,-5.96,0.24,0.6,-0.028,0.057,9.665,-0.01,-0.01,0.01
1777317196.5169103,-5.95,0.24,0.58,-0.022,-0.007,9.703,-0.01,-0.01,0.0
1777317196.52686,-5.92,0.23,0.57,0.007,-0.061,9.647,-0.01,-0.01,-0.02
1777317196.5377512,-5.91,0.24,0.56,0.044,-0.14,9.618,-0.01,0.0,-0.02
1777317196.5468981,-5.91,0.24,0.54,0.056,-0.208,9.66,0.0,-0.01,-0.02
1777317196.557714,-5.93,0.25,0.53,0.073,-0.194,9.701,0.0,-0.01,0.0
1777317196.5668998,-5.96,0.26,0.53,0.056,-0.092,9.73,0.0,-0.01,0.01
1777317196.576878,-5.97,0.25,0.54,0.044,0.037,9.7,0.0,-0.01,0.01
1777317196.5868554,-5.96,0.25,0.55,0.014,0.145,9.703,0.0,0.0,0.0
1777317196.596868,-5.93,0.23,0.57,-0.014,0.165,9.731,-0.01,0.0,-0.02
1777317196.6068535,-5.9,0.22,0.57,-0.03,0.102,9.751,-0.01,0.0,-0.02
1777317196.616911,-5.89,0.21,0.55,-0.025,-0.023,9.753,0.0,0.0,-0.02
1777317196.62683,-5.91,0.22,0.52,-0.01,-0.102,9.708,-0.01,0.0,-0.01
1777317196.6368644,-5.94,0.22,0.51,-0.002,-0.138,9.709,-0.01,-0.01,0.01
1777317196.6468725,-5.96,0.23,0.5,-0.004,-0.131,9.736,0.0,-0.01,0.02
1777317196.6568341,-5.96,0.23,0.5,0.007,-0.074,9.755,0.0,-0.01,0.01
1777317196.6668599,-5.94,0.23,0.51,0.018,-0.046,9.767,0.0,0.0,-0.01
1777317196.676848,-5.92,0.22,0.51,0.034,0.007,9.76,0.0,0.0,-0.02
1777317196.6868396,-5.91,0.22,0.51,0.035,0.036,9.764,0.0,0.0,-0.02
1777317196.6968312,-5.9,0.22,0.52,0.029,0.038,9.776,0.0,0.0,-0.02
1777317196.7069945,-5.91,0.22,0.51,0.018,0.038,9.785,0.0,0.0,-0.01
1777317196.7168376,-5.93,0.22,0.51,0.012,0.04,9.781,-0.01,-0.01,0.0
1777317196.7268608,-5.94,0.22,0.5,0.0,0.036,9.774,-0.01,-0.01,0.01
1777317196.7368345,-5.94,0.21,0.49,-0.007,0.008,9.772,-0.01,-0.01,0.0
1777317196.7468042,-5.92,0.21,0.48,0.024,-0.126,9.778,-0.01,-0.01,-0.01
1777317196.7568207,-5.86,0.21,0.48,-0.129,0.011,9.647,-0.01,-0.01,-0.02
1777317196.7668386,-5.74,0.23,0.6,-0.245,-0.638,9.511,0.02,-0.02,-0.05
1777317196.7767653,-5.63,0.2,0.56,-0.216,-1.601,9.351,0.09,-0.02,-0.07
1777317196.7868097,-5.57,0.21,0.55,0.521,-2.23,9.063,0.06,0.02,-0.05
1777317196.796816,-5.56,0.31,0.57,0.346,-3.232,9.248,0.09,-0.01,-0.03
1777317196.8067865,-5.61,0.25,0.46,0.736,-3.81,9.317,0.14,-0.01,-0.02
1777317196.8167748,-5.83,0.37,0.15,1.201,-4.558,9.428,0.08,0.05,0.05
1777317196.826785,-6.16,0.38,-0.04,1.293,-3.431,9.398,-0.02,0.0,0.14
1777317196.8367946,-6.54,0.31,0.05,1.403,-3.511,9.197,0.0,0.02,0.19
1777317196.846783,-6.96,0.49,-0.04,1.683,-3.252,9.032,0.07,0.05,0.21
1777317196.8568082,-7.31,0.67,0.03,1.431,-2.894,9.238,0.08,-0.05,0.22
1777317196.8668365,-7.61,0.69,-0.39,0.341,-2.794,9.39,0.0,-0.05,0.18
1777317196.8767586,-7.86,0.26,-0.51,0.639,-0.079,8.21,-0.15,0.03,0.15
1777317196.8867922,-8.02,0.17,0.05,0.808,1.653,6.985,-0.1,0.18,0.11
1777317196.896793,-7.99,0.19,0.78,0.635,3.194,6.403,0.17,0.08,0.07
1777317196.9068134,-7.83,0.23,1.06,-0.612,1.644,7.306,0.2,-0.05,-0.05
1777317196.9168096,-7.58,-0.08,0.97,-1.35,1.838,7.971,0.05,-0.06,-0.11
1777317196.9267535,-7.39,-0.33,1.0,-1.31,1.739,8.458,-0.06,0.05,-0.14
1777317196.9367511,-7.35,-0.58,0.84,-1.327,1.56,8.714,-0.07,0.12,-0.09
1777317196.9467545,-7.4,-0.57,0.91,-1.272,1.837,8.899,-0.08,0.05,-0.01
1777317196.9567754,-7.51,-0.57,1.1,-1.268,1.873,9.142,0.01,-0.04,0.04
1777317196.9667768,-7.62,-0.53,1.14,-0.986,1.837,9.167,0.04,-0.04,0.06
1777317196.976778,-7.69,-0.45,1.11,-0.721,2.144,9.239,-0.04,-0.05,0.05
1777317196.9867816,-7.69,-0.41,1.11,-0.237,2.117,9.012,-0.08,-0.04,0.02
1777317196.9967897,-7.68,-0.25,1.08,0.259,1.911,9.136,-0.07,-0.02,-0.01
1777317197.0067635,-7.67,-0.09,1.12,0.519,1.596,9.315,-0.05,-0.05,-0.01
1777317197.0167956,-7.62,0.03,1.12,0.796,0.899,9.447,0.01,-0.05,-0.02
1777317197.0267372,-7.57,0.13,0.97,0.88,0.253,9.543,-0.01,-0.03,-0.03
1777317197.0367377,-7.55,0.16,0.81,0.871,-0.134,9.614,-0.05,-0.02,-0.03
1777317197.0467794,-7.58,0.19,0.69,0.927,-0.691,9.518,-0.05,0.01,-0.01
1777317197.0567756,-7.62,0.18,0.56,0.727,-1.079,9.484,-0.02,0.01,0.01
1777317197.0667741,-7.69,0.14,0.47,0.606,-1.257,9.526,-0.01,0.01,0.02
1777317197.0767796,-7.74,0.12,0.43,0.465,-1.3,9.6,0.01,0.02,0.03
1777317197.0867767,-7.79,0.06,0.43,0.253,-1.236,9.656,0.02,0.02,0.03
1777317197.096747,-7.81,0.01,0.42,0.127,-0.97,9.688,0.02,0.02,0.02
1777317197.1067412,-7.81,-0.04,0.46,0.019,-0.503,9.641,0.01,0.02,0.01
1777317197.1167498,-7.79,-0.07,0.54,-0.054,-0.128,9.513,0.02,0.01,-0.01
1777317197.1267867,-7.75,-0.08,0.63,-0.178,0.156,9.527,0.02,0.0,-0.02
1777317197.1367977,-7.7,-0.11,0.7,-0.231,0.429,9.603,0.02,-0.01,-0.03
1777317197.1467822,-7.65,-0.1,0.74,-0.207,0.562,9.657,0.01,0.0,-0.03
1777317197.1567895,-7.61,-0.09,0.76,-0.204,0.56,9.699,-0.01,-0.02,-0.03
1777317197.1668,-7.61,-0.07,0.73,-0.069,0.45,9.642,-0.02,-0.02,-0.02
1777317197.1767635,-7.64,-0.02,0.69,0.036,0.307,9.629,-0.02,-0.02,0.0
1777317197.1867669,-7.67,0.02,0.63,0.151,0.138,9.677,-0.03,-0.02,0.01
1777317197.1967607,-7.71,0.06,0.57,0.266,-0.071,9.713,-0.02,-0.02,0.02
1777317197.2067657,-7.75,0.1,0.51,0.329,-0.236,9.738,-0.02,-0.01,0.02
1777317197.216723,-7.76,0.11,0.45,0.353,-0.435,9.756,-0.02,-0.01,0.02
1777317197.2267768,-7.74,0.13,0.4,0.382,-0.578,9.763,-0.01,0.0,0.0
1777317197.2367563,-7.71,0.13,0.36,0.337,-0.685,9.75,-0.01,0.0,-0.02
1777317197.246759,-7.7,0.12,0.34,0.296,-0.714,9.712,0.0,0.0,-0.02
1777317197.2567613,-7.71,0.11,0.35,0.279,-0.677,9.656,0.02,0.0,-0.01
1777317197.26675,-7.73,0.12,0.37,0.295,-0.589,9.478,0.02,0.01,0.0
1777317197.276751,-7.76,0.14,0.37,0.345,-0.806,9.495,0.02,0.0,0.01
1777317197.2867315,-7.78,0.07,0.07,0.31,-0.701,9.27,-0.01,0.0,0.01
1777317197.296765,-7.74,0.21,-0.13,0.505,-0.316,9.319,-0.13,0.02,0.0
1777317197.3067634,-7.73,-0.18,0.31,-1.163,0.995,9.432,-0.1,-0.08,-0.02
1777317197.316761,-7.77,-0.31,0.66,-0.11,-0.012,8.669,0.21,0.15,-0.02
1777317197.3267484,-7.88,-0.13,0.63,-0.085,-0.865,8.575,0.17,0.05,0.04
1777317197.3367636,-8.02,-0.13,0.4,-0.707,-0.232,8.488,0.01,-0.08,0.07
1777317197.346769,-8.13,-0.2,0.32,-0.184,0.483,8.307,-0.13,-0.03,0.08
1777317197.3567657,-8.23,-0.05,0.47,-0.032,1.065,8.591,-0.08,0.01,0.05
1777317197.3668127,-8.23,0.05,0.75,0.028,0.895,8.914,0.04,-0.06,0.04
1777317197.3767664,-8.14,0.05,0.81,0.375,0.602,9.153,0.1,-0.05,-0.02
1777317197.3867524,-8.02,0.15,0.66,0.778,0.228,9.272,0.02,0.01,-0.06
1777317197.3971825,-7.92,0.23,0.5,0.582,0.433,9.361,-0.08,-0.02,-0.07
1777317197.4067464,-7.85,0.24,0.47,0.559,0.301,9.331,-0.08,-0.02,-0.05
1777317197.416736,-7.83,0.22,0.5,0.611,-0.043,9.186,-0.02,0.01,-0.04
1777317197.4267278,-7.83,0.24,0.48,0.582,-0.354,9.3,0.03,0.02,-0.01
1777317197.436706,-7.83,0.2,0.43,0.314,-0.474,9.435,0.01,-0.01,0.0
1777317197.4466891,-7.83,0.19,0.37,0.369,-0.757,9.535,-0.01,0.02,-0.01
1777317197.4567554,-7.88,0.18,0.24,0.19,-0.871,9.606,-0.02,0.01,0.0
1777317197.4667306,-7.95,0.11,0.2,-0.042,-0.78,9.299,-0.02,0.0,0.03
1777317197.4767146,-7.99,0.07,0.19,0.002,-0.595,8.834,0.0,0.02,0.04
1777317197.4866817,-8.02,0.1,0.22,-0.194,-0.527,8.959,0.01,0.01,0.02
1777317197.4967356,-8.04,0.06,0.19,-0.323,-0.602,9.184,0.02,-0.02,0.0
1777317197.5067182,-8.06,0.05,0.19,-0.237,-0.168,9.349,0.0,0.0,0.02
1777317197.516681,-8.05,0.08,0.31,-0.217,0.093,9.471,0.0,-0.01,0.01
1777317197.5266855,-8.0,0.08,0.37,-0.059,0.055,9.384,0.04,-0.02,-0.02
1777317197.5367281,-7.94,0.12,0.32,0.154,0.036,9.083,0.02,0.0,-0.04
1777317197.546718,-7.9,0.17,0.25,0.139,0.216,9.172,-0.04,-0.02,-0.04
1777317197.556717,-7.9,0.19,0.27,0.24,0.299,9.341,-0.05,-0.02,-0.02
1777317197.5666902,-7.93,0.22,0.33,0.314,0.326,9.464,0.0,-0.01,0.0
1777317197.5758812,-7.97,0.24,0.38,0.358,0.217,9.555,0.02,-0.01,0.02
1777317197.5867026,-7.99,0.25,0.38,0.393,0.101,9.623,0.02,0.0,0.02
1777317197.596677,-7.99,0.24,0.33,0.426,-0.03,9.582,-0.01,0.01,0.01
1777317197.6059113,-7.97,0.25,0.24,0.404,-0.099,9.451,-0.03,0.02,-0.01
1777317197.615881,-7.94,0.24,0.19,0.238,-0.123,9.479,-0.04,0.0,-0.02
