timestamp,yaw,pitch,roll,accel_x,accel_y,accel_z,gyro_x,gyro_y,gyro_z
1777318994.1794033,-22.47,0.03,0.8,0.0,0.135,9.793,0.0,0.0,0.0
1777318994.1893594,-22.47,0.03,0.8,0.007,0.135,9.782,-0.01,0.0,0.0
1777318994.199268,-22.48,0.03,0.8,0.006,0.144,9.782,-0.01,-0.01,0.0
1777318994.209794,-22.48,0.03,0.8,0.014,0.147,9.787,0.0,0.0,0.0
1777318994.2192898,-22.48,0.03,0.8,0.014,0.14,9.793,-0.01,-0.01,-0.01
1777318994.229288,-22.47,0.03,0.8,0.017,0.128,9.797,0.0,0.0,-0.01
1777318994.2392642,-22.47,0.04,0.8,0.018,0.135,9.796,-0.01,0.0,-0.01
1777318994.2492683,-22.47,0.03,0.8,0.013,0.139,9.794,0.0,0.0,-0.01
1777318994.2593203,-22.47,0.03,0.8,0.018,0.144,9.79,0.0,0.0,0.0
1777318994.2692966,-22.47,0.03,0.8,0.004,0.151,9.794,-0.01,0.0,-0.01
1777318994.2792883,-22.47,0.03,0.8,0.002,0.147,9.793,0.0,0.0,-0.01
1777318994.2894435,-22.47,0.03,0.8,-0.001,0.14,9.79,0.0,0.0,-0.01
1777318994.2993178,-22.47,0.03,0.8,-0.001,0.132,9.782,-0.01,-0.01,-0.01
1777318994.3092647,-22.47,0.03,0.8,-0.004,0.121,9.782,0.0,0.0,0.0
1777318994.319287,-22.47,0.03,0.8,0.0,0.127,9.78,0.0,-0.01,0.0
1777318994.3294187,-22.47,0.04,0.8,0.004,0.135,9.78,-0.01,-0.01,0.0
1777318994.3392878,-22.47,0.04,0.8,0.001,0.14,9.787,0.0,-0.01,0.0
1777318994.34941,-22.47,0.04,0.8,0.004,0.15,9.791,0.0,0.0,-0.01
1777318994.3592396,-22.47,0.04,0.81,0.002,0.143,9.796,-0.01,-0.01,-0.01
1777318994.3693194,-22.47,0.04,0.8,0.006,0.126,9.797,0.0,0.0,-0.01
1777318994.3792877,-22.48,0.04,0.8,0.004,0.125,9.784,-0.01,0.0,0.0
1777318994.3894389,-22.48,0.03,0.8,0.002,0.132,9.782,0.0,0.0,0.0
1777318994.399293,-22.48,0.03,0.8,-0.001,0.143,9.786,-0.01,0.0,0.0
1777318994.409251,-22.48,0.03,0.8,-0.008,0.152,9.786,-0.01,0.0,-0.01
1777318994.4192805,-22.47,0.03,0.8,-0.001,0.143,9.787,-0.01,0.0,-0.01
1777318994.429439,-22.47,0.03,0.8,0.0,0.145,9.793,0.0,-0.01,-0.01
1777318994.4393144,-22.47,0.03,0.8,0.006,0.129,9.781,-0.01,0.0,-0.01
1777318994.4492729,-22.47,0.03,0.8,0.012,0.144,9.787,-0.01,-0.01,0.0
1777318994.4593122,-22.47,0.04,0.8,0.01,0.139,9.779,0.0,0.0,0.0
1777318994.4694397,-22.47,0.04,0.8,0.017,0.137,9.779,0.0,0.0,0.0
1777318994.4792888,-22.47,0.04,0.8,0.01,0.141,9.786,-0.01,0.0,-0.01
1777318994.4894757,-22.47,0.04,0.8,0.01,0.135,9.779,0.0,0.0,-0.01
1777318994.4993165,-22.47,0.04,0.8,0.0,0.126,9.776,0.0,-0.01,-0.01
1777318994.5094328,-22.47,0.03,0.8,0.001,0.127,9.779,-0.01,0.0,-0.01
1777318994.5192776,-22.47,0.03,0.8,-0.004,0.128,9.778,0.0,0.0,0.0
1777318994.5293033,-22.48,0.03,0.8,0.005,0.132,9.784,0.0,-0.01,0.0
1777318994.5392532,-22.48,0.04,0.8,0.006,0.139,9.786,-0.01,0.0,0.0
1777318994.5492458,-22.48,0.04,0.8,0.014,0.143,9.786,-0.01,-0.01,0.0
1777318994.559302,-22.48,0.04,0.8,0.011,0.151,9.788,-0.01,0.0,0.0
1777318994.5692506,-22.48,0.04,0.8,0.01,0.151,9.792,0.0,0.0,-0.01
1777318994.579245,-22.47,0.03,0.8,0.007,0.146,9.785,-0.01,0.0,-0.01
1777318994.5892565,-22.47,0.03,0.8,0.008,0.138,9.788,0.0,0.0,-0.01
1777318994.599839,-22.47,0.03,0.8,0.006,0.139,9.787,-0.01,0.0,-0.01
1777318994.6098182,-22.47,0.03,0.8,-0.001,0.139,9.776,0.0,0.0,0.0
1777318994.619829,-22.48,0.03,0.8,-0.007,0.14,9.781,-0.01,0.0,0.0
1777318994.6292677,-22.47,0.03,0.8,-0.006,0.151,9.786,0.0,0.0,0.0
1777318994.6392856,-22.47,0.03,0.8,-0.008,0.138,9.791,0.0,0.0,-0.01
1777318994.6492498,-22.47,0.03,0.8,0.0,0.147,9.791,-0.01,0.0,-0.01
1777318994.6596756,-22.47,0.03,0.8,-0.006,0.139,9.784,0.0,-0.01,-0.01
1777318994.6684003,-22.47,0.03,0.8,0.002,0.143,9.776,0.0,0.0,0.0
1777318994.679252,-22.47,0.03,0.8,0.005,0.143,9.784,-0.01,0.0,0.0
1777318994.6892374,-22.48,0.03,0.8,0.011,0.141,9.791,-0.01,0.0,0.0
1777318994.6992564,-22.48,0.03,0.8,0.002,0.137,9.792,0.0,0.0,0.0
1777318994.7092278,-22.47,0.03,0.8,0.0,0.141,9.797,-0.01,0.0,-0.01
1777318994.7183964,-22.47,0.03,0.8,0.005,0.134,9.782,0.0,0.0,-0.01
1777318994.729249,-22.47,0.03,0.8,0.007,0.129,9.778,0.0,0.0,-0.01
1777318994.7384908,-22.48,0.03,0.8,0.012,0.128,9.781,0.0,0.0,0.0
1777318994.7492468,-22.48,0.03,0.8,0.012,0.131,9.786,0.0,-0.01,0.0
1777318994.7592301,-22.48,0.03,0.8,0.013,0.151,9.791,-0.01,-0.01,0.0
1777318994.7692084,-22.48,0.03,0.81,0.012,0.141,9.791,-0.01,0.0,-0.01
1777318994.778393,-22.47,0.03,0.8,0.008,0.141,9.79,0.0,0.0,-0.01
1777318994.7883875,-22.47,0.03,0.8,0.006,0.139,9.784,-0.01,-0.01,-0.01
1777318994.7983959,-22.47,0.03,0.8,0.01,0.135,9.779,0.0,0.0,-0.01
1777318994.8083751,-22.48,0.03,0.8,0.016,0.125,9.78,0.0,0.0,0.0
1777318994.818395,-22.48,0.03,0.8,0.006,0.135,9.784,-0.01,0.0,0.0
1777318994.8283718,-22.48,0.03,0.8,0.006,0.125,9.779,0.0,0.0,0.0
1777318994.8392334,-22.48,0.03,0.8,0.001,0.131,9.781,0.0,0.0,0.0
1777318994.8492289,-22.48,0.03,0.8,0.006,0.138,9.781,-0.01,-0.01,-0.01
1777318994.858396,-22.48,0.03,0.8,0.002,0.135,9.785,0.0,0.0,-0.01
1777318994.8683655,-22.48,0.03,0.81,0.008,0.135,9.786,0.0,0.0,-0.01
1777318994.8783603,-22.48,0.03,0.8,0.0,0.138,9.792,-0.01,0.0,0.0
1777318994.8884025,-22.48,0.03,0.81,0.012,0.145,9.787,0.0,0.0,0.0
1777318994.8983696,-22.48,0.03,0.81,0.011,0.147,9.786,-0.01,-0.01,0.0
1777318994.9083927,-22.48,0.03,0.81,0.006,0.15,9.791,-0.01,0.0,-0.01
1777318994.9183695,-22.47,0.03,0.81,-0.001,0.128,9.794,-0.01,0.0,-0.01
1777318994.9283438,-22.47,0.03,0.8,0.0,0.129,9.785,0.0,0.0,-0.01
1777318994.9383395,-22.47,0.03,0.79,-0.001,0.111,9.781,-0.01,-0.01,-0.01
1777318994.949209,-22.47,0.03,0.79,-0.001,0.111,9.785,-0.01,0.0,-0.01
1777318994.9583693,-22.47,0.03,0.79,0.0,0.114,9.787,0.0,0.0,0.0
1777318994.968357,-22.48,0.03,0.79,-0.006,0.119,9.786,-0.01,-0.01,0.0
1777318994.9783292,-22.48,0.03,0.79,-0.001,0.12,9.786,0.0,-0.01,0.0
1777318994.988354,-22.48,0.03,0.79,0.007,0.129,9.792,0.0,-0.01,0.0
1777318994.9983418,-22.48,0.04,0.79,0.008,0.125,9.791,0.0,0.0,-0.01
1777318995.0083456,-22.48,0.04,0.79,0.008,0.133,9.793,-0.01,-0.01,-0.01
1777318995.0183692,-22.48,0.04,0.79,0.011,0.133,9.798,0.0,0.0,0.0
1777318995.0283554,-22.48,0.04,0.79,0.019,0.135,9.8,-0.01,-0.01,0.0
1777318995.0383286,-22.48,0.04,0.79,0.006,0.141,9.802,-0.01,0.0,0.0
1777318995.0483546,-22.48,0.04,0.79,0.0,0.143,9.802,-0.01,0.0,0.0
1777318995.0583267,-22.48,0.04,0.79,-0.006,0.145,9.798,0.0,-0.01,-0.01
1777318995.0683286,-22.48,0.03,0.8,-0.016,0.127,9.802,-0.01,0.0,-0.01
1777318995.0783708,-22.48,0.03,0.79,-0.014,0.133,9.799,0.0,0.0,-0.01
1777318995.0883558,-22.48,0.03,0.79,-0.005,0.138,9.798,-0.01,-0.01,0.0
1777318995.0983129,-22.48,0.03,0.8,0.001,0.139,9.797,0.0,-0.01,0.0
1777318995.1082995,-22.48,0.03,0.8,0.002,0.144,9.8,0.0,0.0,-0.01
1777318995.1183116,-22.48,0.04,0.8,0.007,0.143,9.798,-0.01,-0.01,-0.01
1777318995.1282988,-22.48,0.04,0.8,0.014,0.144,9.8,-0.01,0.0,-0.01
1777318995.138347,-22.48,0.04,0.79,0.014,0.134,9.794,0.0,-0.01,-0.01
1777318995.148327,-22.48,0.04,0.79,0.002,0.131,9.798,-0.01,0.0,0.0
1777318995.1584222,-22.48,0.03,0.79,-0.002,0.117,9.792,0.0,-0.01,0.0
1777318995.1685207,-22.48,0.03,0.79,-0.008,0.114,9.786,0.0,0.0,0.0
1777318995.1783166,-22.48,0.03,0.79,-0.018,0.12,9.793,0.0,-0.01,0.0
1777318995.1883328,-22.48,0.03,0.79,-0.013,0.115,9.785,0.0,0.0,0.0
1777318995.1983263,-22.48,0.03,0.79,-0.005,0.127,9.788,0.0,-0.01,-0.01
1777318995.2083287,-22.48,0.03,0.79,-0.001,0.126,9.792,-0.01,-0.01,-0.01
1777318995.2183251,-22.48,0.03,0.79,0.008,0.137,9.788,0.0,-0.01,-0.01
1777318995.228314,-22.48,0.04,0.79,0.011,0.128,9.793,0.0,-0.01,0.0
1777318995.238306,-22.48,0.04,0.79,0.013,0.147,9.798,-0.01,-0.01,0.0
1777318995.2483456,-22.48,0.04,0.8,0.013,0.152,9.799,0.0,0.0,0.0
1777318995.258346,-22.48,0.04,0.8,0.014,0.152,9.8,-0.01,-0.01,-0.01
1777318995.2683306,-22.48,0.04,0.79,0.01,0.143,9.802,-0.01,0.0,-0.01
1777318995.2783358,-22.48,0.04,0.79,0.004,0.133,9.804,-0.01,0.0,-0.01
1777318995.2883224,-22.48,0.04,0.79,0.0,0.125,9.799,0.0,0.0,-0.01
1777318995.298333,-22.48,0.03,0.79,0.0,0.135,9.796,-0.01,-0.01,0.0
1777318995.3083172,-22.48,0.03,0.79,-0.008,0.132,9.792,-0.01,0.0,0.0
1777318995.3183002,-22.48,0.03,0.79,-0.013,0.134,9.793,0.0,-0.01,0.0
1777318995.3283062,-22.48,0.03,0.79,-0.018,0.134,9.791,0.0,-0.01,-0.01
1777318995.3383322,-22.48,0.03,0.79,-0.007,0.131,9.788,0.0,-0.01,-0.01
1777318995.3483295,-22.48,0.04,0.79,0.001,0.128,9.792,0.0,-0.01,-0.01
1777318995.3583019,-22.48,0.04,0.79,0.011,0.138,9.796,-0.01,-0.01,0.0
1777318995.3683105,-22.48,0.04,0.79,0.017,0.143,9.799,-0.01,-0.01,0.0
1777318995.378308,-22.48,0.04,0.79,0.023,0.151,9.802,-0.01,-0.01,0.0
1777318995.3883014,-22.48,0.04,0.8,0.018,0.147,9.803,0.0,0.0,0.0
1777318995.3983014,-22.48,0.04,0.8,0.013,0.147,9.798,0.0,0.0,-0.01
1777318995.408316,-22.48,0.04,0.79,0.004,0.128,9.8,0.0,0.0,-0.01
1777318995.4183002,-22.48,0.04,0.79,0.0,0.125,9.799,0.0,0.0,0.0
1777318995.4283092,-22.48,0.04,0.79,-0.014,0.117,9.796,-0.01,0.0,0.0
1777318995.4383044,-22.48,0.04,0.79,-0.017,0.121,9.793,0.0,-0.01,0.0
1777318995.44829,-22.48,0.03,0.79,-0.017,0.121,9.788,0.0,-0.01,0.0
1777318995.4583247,-22.48,0.04,0.79,-0.01,0.12,9.791,-0.01,-0.01,-0.01
1777318995.4682648,-22.48,0.04,0.79,0.001,0.127,9.796,0.0,-0.01,-0.01
1777318995.478292,-22.48,0.04,0.79,0.007,0.122,9.798,-0.01,0.0,-0.01
1777318995.4882858,-22.48,0.04,0.79,0.019,0.129,9.793,0.0,0.0,0.0
1777318995.49829,-22.48,0.04,0.79,0.02,0.132,9.798,-0.01,0.0,0.0
1777318995.508293,-22.48,0.04,0.79,0.023,0.14,9.798,-0.01,0.0,0.0
1777318995.5182667,-22.48,0.04,0.79,0.012,0.133,9.8,0.0,0.0,-0.01
1777318995.5282462,-22.48,0.04,0.79,0.004,0.134,9.794,-0.01,0.0,-0.01
1777318995.5383017,-22.48,0.04,0.79,-0.002,0.121,9.799,0.0,0.0,-0.01
1777318995.5482824,-22.48,0.03,0.78,-0.007,0.126,9.792,0.0,-0.01,-0.01
1777318995.5582705,-22.48,0.03,0.78,-0.01,0.125,9.796,-0.01,-0.01,0.0
1777318995.5682967,-22.48,0.03,0.78,-0.01,0.123,9.797,0.0,-0.01,0.0
1777318995.5783155,-22.48,0.03,0.78,-0.008,0.122,9.798,0.0,-0.01,0.0
1777318995.588245,-22.48,0.03,0.78,0.005,0.135,9.797,0.0,-0.01,0.0
1777318995.5982447,-22.48,0.03,0.78,0.02,0.132,9.793,0.0,-0.01,-0.01
1777318995.6083074,-22.48,0.04,0.79,0.023,0.137,9.797,0.0,-0.01,-0.01
1777318995.618264,-22.48,0.04,0.79,0.026,0.144,9.8,0.0,0.0,-0.01
1777318995.6282487,-22.48,0.04,0.79,0.024,0.145,9.803,0.0,0.0,-0.01
1777318995.6382654,-22.48,0.04,0.79,0.019,0.152,9.805,0.0,0.0,0.0
1777318995.6482573,-22.48,0.04,0.79,0.013,0.148,9.803,-0.01,0.0,0.0
1777318995.6582181,-22.48,0.04,0.79,0.002,0.135,9.799,0.0,0.0,-0.01
1777318995.6682198,-22.48,0.04,0.79,0.0,0.137,9.796,-0.01,-0.01,-0.01
1777318995.6782825,-22.48,0.04,0.79,-0.011,0.127,9.798,-0.01,-0.01,-0.01
1777318995.6884165,-22.48,0.03,0.78,0.001,0.115,9.793,0.0,-0.01,-0.01
1777318995.6982336,-22.48,0.04,0.79,0.0,0.127,9.791,-0.01,0.0,0.0
1777318995.7082667,-22.48,0.03,0.78,0.004,0.125,9.791,0.0,-0.01,0.0
1777318995.71825,-22.48,0.03,0.78,0.008,0.133,9.793,-0.01,-0.01,0.0
1777318995.728251,-22.48,0.04,0.79,0.005,0.146,9.797,-0.01,0.0,0.0
1777318995.7382169,-22.48,0.04,0.79,0.014,0.147,9.792,0.0,-0.01,-0.01
1777318995.7474244,-22.48,0.04,0.79,0.017,0.146,9.796,-0.01,-0.01,-0.01
1777318995.757396,-22.48,0.04,0.79,0.02,0.153,9.785,-0.01,0.0,-0.01
1777318995.7682498,-22.48,0.04,0.79,0.008,0.134,9.79,-0.01,0.0,-0.01
1777318995.7773948,-22.48,0.03,0.78,0.008,0.134,9.788,0.0,0.0,0.0
1777318995.7882504,-22.48,0.04,0.79,0.007,0.117,9.793,-0.01,-0.01,0.0
1777318995.7982152,-22.48,0.03,0.78,0.008,0.121,9.791,0.0,0.0,0.0
1777318995.8073947,-22.48,0.03,0.78,0.001,0.111,9.794,-0.01,0.0,-0.01
1777318995.8173957,-22.48,0.03,0.78,-0.004,0.12,9.797,0.0,-0.01,-0.01
1777318995.828235,-22.48,0.03,0.78,0.0,0.123,9.794,0.0,0.0,-0.01
1777318995.8373973,-22.48,0.03,0.78,-0.002,0.129,9.798,0.0,-0.01,0.0
1777318995.848234,-22.48,0.04,0.78,0.008,0.144,9.788,0.0,0.0,0.0
1777318995.8573954,-22.48,0.04,0.79,0.002,0.144,9.794,-0.01,0.0,0.0
1777318995.8682485,-22.48,0.04,0.79,0.013,0.15,9.787,0.0,-0.01,0.0
1777318995.8782187,-22.48,0.04,0.79,0.008,0.152,9.792,-0.01,0.0,0.0
1777318995.8874333,-22.48,0.04,0.79,0.01,0.152,9.791,-0.01,-0.01,-0.01
1777318995.8973825,-22.48,0.04,0.79,0.012,0.143,9.79,0.0,0.0,-0.01
1777318995.9074018,-22.48,0.04,0.79,0.004,0.144,9.796,-0.01,0.0,-0.01
1777318995.917423,-22.48,0.04,0.79,0.014,0.126,9.794,0.0,0.0,-0.01
1777318995.927384,-22.48,0.04,0.79,0.008,0.132,9.794,-0.01,0.0,-0.01
1777318995.9373748,-22.48,0.04,0.78,0.006,0.12,9.797,-0.01,-0.01,-0.01
1777318995.9473746,-22.48,0.04,0.79,0.005,0.116,9.799,0.0,0.0,0.0
1777318995.9573889,-22.48,0.04,0.78,-0.001,0.117,9.8,0.0,-0.01,0.0
1777318995.9673774,-22.48,0.03,0.78,0.004,0.122,9.797,-0.01,0.0,0.0
1777318995.9773962,-22.48,0.04,0.78,0.0,0.138,9.8,0.0,0.0,0.0
1777318995.9873807,-22.48,0.04,0.79,0.011,0.141,9.792,-0.01,-0.01,0.0
1777318995.9973893,-22.48,0.04,0.79,0.005,0.145,9.797,0.0,0.0,-0.01
1777318996.0073848,-22.48,0.04,0.79,0.017,0.141,9.797,0.0,0.0,-0.01
1777318996.0173776,-22.48,0.04,0.79,0.012,0.139,9.798,-0.01,0.0,-0.01
1777318996.0273795,-22.48,0.04,0.78,0.018,0.139,9.8,-0.01,-0.01,0.0
1777318996.03735,-22.48,0.04,0.78,0.007,0.14,9.799,-0.01,0.0,0.0
1777318996.0473807,-22.48,0.04,0.78,0.005,0.132,9.797,-0.01,0.0,0.0
1777318996.0573802,-22.48,0.04,0.78,0.005,0.128,9.794,-0.01,0.0,-0.01
1777318996.067379,-22.48,0.04,0.78,0.006,0.125,9.794,0.0,-0.01,-0.01
1777318996.0773647,-22.48,0.04,0.78,0.012,0.123,9.793,-0.01,0.0,-0.01
1777318996.08734,-22.48,0.04,0.78,0.0,0.116,9.798,-0.01,-0.01,0.0
1777318996.0973804,-22.48,0.04,0.78,0.002,0.137,9.794,0.0,0.0,0.0
1777318996.107344,-22.48,0.04,0.78,-0.005,0.145,9.791,0.0,-0.01,0.0
1777318996.117326,-22.48,0.04,0.79,0.002,0.138,9.788,-0.01,-0.01,0.0
1777318996.1273663,-22.48,0.04,0.79,-0.004,0.145,9.79,0.0,-0.01,0.0
1777318996.1373332,-22.48,0.04,0.78,0.001,0.146,9.791,-0.01,0.0,0.0
1777318996.1473277,-22.48,0.04,0.79,0.005,0.14,9.788,-0.01,-0.01,0.0
1777318996.1573658,-22.48,0.04,0.78,0.005,0.146,9.791,0.0,0.0,-0.01
1777318996.1673608,-22.48,0.04,0.78,0.001,0.141,9.786,-0.01,0.0,-0.01
1777318996.177319,-22.48,0.04,0.79,-0.002,0.127,9.79,-0.01,0.0,-0.01
1777318996.1873739,-22.48,0.04,0.78,0.006,0.144,9.787,0.0,0.0,0.0
1777318996.1973462,-22.48,0.04,0.78,-0.002,0.139,9.793,-0.01,-0.01,0.0
1777318996.2073183,-22.48,0.04,0.79,0.004,0.143,9.792,0.0,-0.01,-0.01
1777318996.2173061,-22.48,0.04,0.79,-0.011,0.137,9.797,0.0,0.0,-0.01
1777318996.2272973,-22.48,0.03,0.78,0.001,0.133,9.786,0.0,-0.01,-0.01
1777318996.2373154,-22.48,0.04,0.79,-0.008,0.123,9.792,-0.01,-0.01,-0.01
1777318996.2473333,-22.48,0.04,0.78,0.002,0.125,9.788,0.0,-0.01,0.0
1777318996.2573204,-22.48,0.04,0.78,0.01,0.135,9.78,-0.01,0.0,0.0
1777318996.2673364,-22.48,0.04,0.79,0.01,0.135,9.788,0.0,0.0,0.0
1777318996.2773278,-22.48,0.04,0.79,0.011,0.144,9.787,0.0,0.0,-0.01
1777318996.2873192,-22.48,0.04,0.79,0.012,0.133,9.792,-0.01,-0.01,-0.01
1777318996.297304,-22.48,0.04,0.79,0.012,0.134,9.788,0.0,-0.01,-0.01
1777318996.307433,-22.48,0.04,0.79,0.004,0.127,9.792,0.0,0.0,0.0
1777318996.3173225,-22.48,0.04,0.79,0.005,0.134,9.785,-0.01,0.0,0.0
1777318996.3273442,-22.48,0.04,0.79,0.005,0.15,9.791,0.0,0.0,0.0
1777318996.3374426,-22.48,0.04,0.79,0.008,0.15,9.796,0.0,0.0,0.0
1777318996.3473158,-22.48,0.04,0.79,0.0,0.148,9.799,-0.01,0.0,-0.01
1777318996.3573349,-22.48,0.04,0.79,0.002,0.14,9.802,-0.01,0.0,-0.01
1777318996.3673131,-22.48,0.04,0.79,0.001,0.131,9.796,0.0,0.0,-0.01
1777318996.3772924,-22.48,0.04,0.78,0.004,0.132,9.799,-0.01,0.0,0.0
1777318996.3873403,-22.48,0.04,0.79,-0.005,0.137,9.798,-0.01,-0.01,0.0
1777318996.39746,-22.49,0.04,0.79,-0.008,0.138,9.8,0.0,0.0,0.0
1777318996.4075358,-22.48,0.04,0.79,-0.008,0.144,9.8,-0.01,-0.01,0.0
1777318996.4173057,-22.48,0.04,0.79,-0.008,0.137,9.793,-0.01,0.0,-0.01
1777318996.4275024,-22.48,0.04,0.79,-0.006,0.129,9.778,0.0,0.0,-0.01
1777318996.4373524,-22.48,0.04,0.79,0.0,0.134,9.781,-0.01,-0.01,-0.01
1777318996.4473147,-22.49,0.04,0.79,0.002,0.14,9.776,0.0,-0.01,0.0
1777318996.4574673,-22.49,0.04,0.79,0.006,0.144,9.78,0.0,-0.01,0.0
1777318996.4673111,-22.49,0.04,0.79,0.008,0.156,9.788,-0.01,-0.01,0.0
1777318996.477327,-22.49,0.04,0.8,0.012,0.156,9.792,-0.01,0.0,-0.01
1777318996.4873192,-22.48,0.04,0.8,0.012,0.143,9.798,0.0,0.0,-0.01
1777318996.4973059,-22.48,0.04,0.8,0.017,0.154,9.793,0.0,0.0,-0.01
1777318996.507338,-22.48,0.04,0.8,0.01,0.146,9.793,-0.01,0.0,-0.01
1777318996.5172963,-22.48,0.04,0.8,0.006,0.135,9.793,0.0,0.0,0.0
1777318996.5272799,-22.48,0.04,0.79,-0.001,0.159,9.792,-0.01,0.0,0.0
1777318996.537304,-22.48,0.04,0.8,-0.004,0.133,9.796,-0.01,0.0,0.0
1777318996.5473075,-22.48,0.04,0.79,0.0,0.131,9.788,0.0,-0.01,-0.01
1777318996.5573041,-22.48,0.04,0.79,-0.004,0.14,9.791,-0.01,0.0,-0.01
1777318996.5672796,-22.48,0.04,0.79,0.006,0.125,9.792,0.0,-0.01,-0.01
1777318996.5772996,-22.48,0.04,0.79,0.005,0.122,9.797,0.0,0.0,-0.01
1777318996.5873103,-22.48,0.04,0.79,0.01,0.135,9.796,-0.01,-0.01,-0.01
1777318996.597304,-22.48,0.04,0.79,0.002,0.137,9.798,-0.01,0.0,0.0
1777318996.6076503,-22.48,0.04,0.79,0.007,0.128,9.799,0.0,-0.01,0.0
1777318996.61726,-22.48,0.04,0.79,0.008,0.146,9.796,-0.01,0.0,0.0
1777318996.627924,-22.48,0.04,0.79,0.007,0.146,9.8,-0.01,-0.01,0.0
1777318996.6373286,-22.48,0.04,0.79,0.01,0.14,9.793,0.0,0.0,-0.01
1777318996.6472816,-22.48,0.04,0.79,-0.002,0.147,9.798,-0.01,0.0,-0.01
1777318996.6572564,-22.48,0.04,0.79,0.004,0.128,9.782,0.0,-0.01,-0.01
1777318996.66731,-22.48,0.04,0.79,-0.001,0.128,9.788,0.0,0.0,-0.01
1777318996.6772716,-22.48,0.04,0.79,0.001,0.134,9.791,0.0,-0.01,0.0
1777318996.6873012,-22.49,0.04,0.79,-0.001,0.128,9.794,-0.01,0.0,0.0
1777318996.6973052,-22.49,0.04,0.79,0.001,0.129,9.794,0.0,-0.01,0.0
1777318996.7072592,-22.49,0.04,0.79,0.01,0.143,9.794,0.0,0.0,0.0
1777318996.7172787,-22.49,0.04,0.8,0.01,0.147,9.798,0.0,0.0,0.0
1777318996.727258,-22.49,0.04,0.8,0.007,0.138,9.8,0.0,-0.01,-0.01
1777318996.737246,-22.48,0.04,0.79,0.007,0.147,9.798,0.0,0.0,-0.01
1777318996.747296,-22.48,0.04,0.8,0.01,0.139,9.797,-0.01,0.0,-0.01
1777318996.7572603,-22.48,0.04,0.8,0.012,0.139,9.792,0.0,0.0,-0.01
1777318996.7672484,-22.48,0.04,0.8,0.006,0.138,9.797,-0.01,0.0,0.0
1777318996.7772722,-22.49,0.04,0.8,0.008,0.152,9.792,-0.01,-0.01,0.0
1777318996.787261,-22.48,0.04,0.79,-0.001,0.131,9.798,0.0,0.0,0.0
1777318996.7972405,-22.48,0.04,0.79,-0.002,0.127,9.8,-0.01,0.0,-0.01
1777318996.8072746,-22.48,0.04,0.79,0.0,0.132,9.798,0.0,0.0,-0.01
1777318996.8172565,-22.48,0.04,0.79,-0.001,0.12,9.794,0.0,-0.01,-0.01
1777318996.827264,-22.48,0.04,0.79,0.006,0.128,9.796,-0.01,0.0,-0.01
1777318996.8372362,-22.48,0.04,0.79,0.006,0.125,9.787,0.0,-0.01,-0.01
1777318996.8472605,-22.48,0.04,0.79,0.01,0.132,9.79,0.0,0.0,0.0
1777318996.8572378,-22.48,0.04,0.79,0.005,0.135,9.793,-0.01,-0.01,0.0
1777318996.8664203,-22.48,0.04,0.79,0.008,0.135,9.79,0.0,0.0,0.0
1777318996.8772628,-22.48,0.04,0.79,0.002,0.144,9.79,0.0,0.0,-0.01
1777318996.8872273,-22.49,0.04,0.79,-0.004,0.135,9.792,0.0,0.0,0.0
1777318996.8964002,-22.49,0.04,0.79,-0.004,0.132,9.792,-0.01,0.0,0.0
1777318996.9072516,-22.49,0.04,0.79,-0.005,0.145,9.796,0.0,0.0,0.0
1777318996.917223,-22.49,0.04,0.79,0.0,0.138,9.788,-0.01,0.0,-0.01
1777318996.9264061,-22.48,0.04,0.79,0.0,0.138,9.796,0.0,-0.01,-0.01
1777318996.93727,-22.48,0.04,0.79,0.013,0.146,9.799,0.0,0.0,-0.01
1777318996.947264,-22.48,0.04,0.8,0.013,0.146,9.8,0.0,-0.01,-0.01
1777318996.9572349,-22.49,0.04,0.8,0.016,0.148,9.793,-0.01,-0.01,0.0
1777318996.9663992,-22.49,0.04,0.8,0.012,0.148,9.797,-0.01,0.0,0.0
1777318996.9772482,-22.49,0.04,0.8,0.012,0.147,9.8,0.0,0.0,0.0
1777318996.9864092,-22.49,0.04,0.8,0.01,0.14,9.8,-0.01,0.0,-0.01
1777318996.9963732,-22.49,0.04,0.8,0.005,0.133,9.8,0.0,-0.01,-0.01
1777318997.0072207,-22.49,0.04,0.8,0.008,0.139,9.803,0.0,0.0,-0.01
1777318997.016383,-22.49,0.04,0.8,0.002,0.131,9.804,0.0,0.0,0.0
1777318997.0263798,-22.49,0.04,0.8,0.004,0.131,9.8,0.0,0.0,0.0
1777318997.0363815,-22.49,0.04,0.8,0.0,0.129,9.803,0.0,-0.01,0.0
1777318997.0463953,-22.49,0.04,0.8,0.002,0.143,9.802,0.0,-0.01,0.0
1777318997.0563931,-22.49,0.04,0.8,-0.002,0.147,9.804,0.0,0.0,-0.01
1777318997.0663793,-22.48,0.04,0.8,0.002,0.143,9.805,-0.01,-0.01,-0.01
1777318997.077224,-22.48,0.04,0.8,0.007,0.139,9.794,0.0,0.0,-0.01
1777318997.086403,-22.48,0.04,0.79,-0.001,0.127,9.798,-0.01,0.0,-0.01
1777318997.09638,-22.49,0.04,0.79,-0.004,0.127,9.794,-0.01,-0.01,0.0
1777318997.1063778,-22.49,0.04,0.79,-0.011,0.116,9.792,0.0,0.0,0.0
1777318997.1163647,-22.49,0.04,0.79,-0.006,0.133,9.792,-0.01,-0.01,0.0
1777318997.1263816,-22.49,0.04,0.79,-0.008,0.122,9.79,0.0,-0.01,0.0
1777318997.1364124,-22.49,0.04,0.79,-0.004,0.123,9.79,-0.01,0.0,-0.01
1777318997.14637,-22.49,0.04,0.79,0.008,0.139,9.785,0.0,0.0,-0.01
1777318997.1563573,-22.49,0.05,0.79,0.017,0.134,9.787,0.0,-0.01,-0.01
1777318997.16638,-22.49,0.05,0.79,0.019,0.147,9.794,-0.01,-0.01,0.0
1777318997.1763802,-22.49,0.05,0.8,0.02,0.157,9.792,-0.01,0.0,0.0
1777318997.1863616,-22.49,0.05,0.8,0.006,0.164,9.797,0.0,0.0,0.0
1777318997.1963515,-22.49,0.04,0.8,0.01,0.165,9.8,-0.01,-0.01,0.0
1777318997.2063074,-22.49,0.05,0.8,0.0,0.158,9.803,0.0,0.0,-0.01
1777318997.2163646,-22.49,0.04,0.8,-0.002,0.152,9.8,0.0,0.0,-0.01
1777318997.2263339,-22.49,0.04,0.8,-0.006,0.141,9.802,-0.01,0.0,-0.01
1777318997.2363362,-22.49,0.04,0.8,-0.007,0.138,9.796,0.0,-0.01,0.0
1777318997.246364,-22.49,0.04,0.8,-0.004,0.134,9.799,0.0,-0.01,0.0
1777318997.2563665,-22.49,0.04,0.8,0.004,0.143,9.798,0.0,-0.01,0.0
1777318997.2663617,-22.49,0.04,0.8,0.006,0.137,9.8,-0.01,0.0,-0.01
1777318997.276336,-22.49,0.04,0.8,0.016,0.148,9.796,0.0,0.0,-0.01
1777318997.286379,-22.49,0.04,0.8,0.011,0.145,9.798,-0.01,0.0,-0.01
1777318997.2963378,-22.49,0.04,0.8,0.006,0.141,9.797,-0.01,-0.01,0.0
1777318997.3063354,-22.49,0.05,0.8,0.008,0.133,9.793,-0.01,0.0,0.0
1777318997.3163393,-22.49,0.04,0.8,0.014,0.148,9.787,0.0,0.0,0.0
1777318997.3263552,-22.49,0.05,0.8,0.011,0.141,9.793,-0.01,-0.01,0.0
1777318997.3363342,-22.49,0.05,0.8,0.008,0.139,9.798,0.0,0.0,-0.01
1777318997.3463705,-22.49,0.04,0.8,0.006,0.132,9.791,0.0,0.0,-0.01
1777318997.3563228,-22.49,0.04,0.8,0.0,0.123,9.796,-0.01,-0.01,-0.01
1777318997.3663259,-22.49,0.04,0.8,0.002,0.113,9.797,0.0,0.0,0.0
1777318997.3763435,-22.5,0.04,0.8,0.004,0.116,9.8,0.0,-0.01,0.0
1777318997.3863225,-22.5,0.05,0.8,0.012,0.151,9.799,0.0,-0.01,0.0
1777318997.3963282,-22.5,0.05,0.8,0.002,0.146,9.802,-0.01,-0.01,0.0
1777318997.4063394,-22.49,0.05,0.8,0.004,0.158,9.798,0.0,0.0,-0.01
1777318997.4163215,-22.49,0.05,0.8,0.005,0.152,9.8,-0.01,0.0,-0.01
1777318997.4263248,-22.49,0.05,0.8,0.001,0.141,9.8,-0.01,-0.01,-0.01
1777318997.4363236,-22.49,0.05,0.8,0.008,0.14,9.804,-0.01,-0.01,-0.01
1777318997.446304,-22.49,0.04,0.8,0.0,0.146,9.804,-0.01,-0.01,0.0
1777318997.4562955,-22.5,0.04,0.8,-0.002,0.141,9.796,-0.01,-0.01,0.0
1777318997.4663432,-22.49,0.04,0.8,-0.008,0.137,9.796,-0.01,-0.01,0.0
1777318997.4763417,-22.49,0.04,0.8,-0.002,0.137,9.796,-0.01,0.0,-0.01
1777318997.4863036,-22.49,0.04,0.8,-0.004,0.126,9.799,0.0,0.0,-0.01
1777318997.496304,-22.49,0.04,0.8,0.0,0.12,9.802,0.0,-0.01,-0.01
1777318997.5063217,-22.49,0.04,0.8,0.0,0.123,9.804,0.0,-0.01,0.0
1777318997.5163026,-22.5,0.04,0.8,0.004,0.14,9.803,0.0,-0.01,0.0
1777318997.5263765,-22.5,0.04,0.8,0.006,0.154,9.804,0.0,-0.01,0.0
1777318997.536305,-22.5,0.05,0.8,-0.001,0.15,9.805,0.0,0.0,0.0
1777318997.5463347,-22.49,0.05,0.8,0.001,0.147,9.803,0.0,0.0,-0.01
1777318997.556321,-22.49,0.05,0.8,0.002,0.139,9.804,0.0,0.0,-0.01
1777318997.5663116,-22.49,0.04,0.8,0.0,0.129,9.796,-0.01,0.0,-0.01
1777318997.5763066,-22.49,0.04,0.8,-0.002,0.134,9.799,-0.01,0.0,0.0
1777318997.5863073,-22.5,0.04,0.8,-0.001,0.129,9.802,0.0,0.0,0.0
1777318997.5963206,-22.49,0.04,0.8,0.0,0.144,9.804,-0.01,0.0,0.0
1777318997.6063092,-22.49,0.04,0.8,0.001,0.127,9.791,0.0,-0.01,-0.01
1777318997.6163056,-22.49,0.04,0.8,0.001,0.121,9.791,-0.01,0.0,-0.01
1777318997.6263216,-22.49,0.04,0.8,0.0,0.115,9.788,0.0,-0.01,-0.01
1777318997.6362936,-22.49,0.04,0.8,0.0,0.117,9.792,0.0,0.0,0.0
1777318997.6463091,-22.49,0.04,0.79,0.0,0.125,9.791,0.0,-0.01,0.0
1777318997.6563087,-22.5,0.04,0.8,-0.002,0.14,9.787,-0.01,0.0,0.0
1777318997.6662745,-22.49,0.04,0.8,-0.005,0.144,9.787,0.0,-0.01,0.0
1777318997.676307,-22.49,0.04,0.8,0.001,0.141,9.793,0.0,-0.01,-0.01
1777318997.6863077,-22.49,0.04,0.8,0.0,0.134,9.792,-0.01,0.0,-0.01
1777318997.6962986,-22.49,0.04,0.8,0.006,0.129,9.786,0.0,-0.01,-0.01
1777318997.70626,-22.5,0.04,0.8,0.002,0.133,9.79,-0.01,0.0,0.0
1777318997.7163093,-22.5,0.04,0.8,0.006,0.133,9.786,-0.01,-0.01,0.0
1777318997.7262747,-22.5,0.04,0.8,0.01,0.143,9.791,0.0,0.0,0.0
1777318997.7362726,-22.5,0.04,0.8,0.016,0.147,9.796,-0.01,0.0,-0.01
1777318997.7463136,-22.49,0.04,0.8,0.016,0.145,9.791,0.0,0.0,-0.01
1777318997.7562776,-22.49,0.04,0.8,0.006,0.134,9.786,0.0,0.0,-0.01
1777318997.7662535,-22.5,0.04,0.8,0.005,0.131,9.79,-0.01,0.0,-0.01
1777318997.7763176,-22.5,0.04,0.8,0.002,0.141,9.794,-0.01,0.0,0.0
1777318997.7862625,-22.5,0.04,0.8,0.0,0.134,9.799,0.0,-0.01,0.0
1777318997.7962432,-22.5,0.04,0.8,0.008,0.15,9.799,-0.01,0.0,-0.01
1777318997.8062422,-22.49,0.04,0.8,0.001,0.137,9.802,-0.01,-0.01,-0.01
1777318997.8162794,-22.49,0.04,0.8,0.012,0.128,9.803,0.0,0.0,-0.01
1777318997.8262568,-22.49,0.04,0.79,0.007,0.131,9.803,-0.01,0.0,-0.01
1777318997.835449,-22.49,0.04,0.8,0.008,0.126,9.805,-0.01,0.0,0.0
1777318997.8462555,-22.49,0.04,0.79,0.004,0.127,9.8,0.0,0.0,0.0
1777318997.8562763,-22.49,0.04,0.8,-0.005,0.144,9.798,-0.01,0.0,0.0
1777318997.866259,-22.49,0.04,0.8,-0.007,0.137,9.797,0.0,0.0,-0.01
1777318997.876243,-22.49,0.04,0.8,-0.008,0.143,9.8,-0.01,0.0,-0.01
1777318997.885449,-22.49,0.04,0.8,-0.01,0.138,9.791,-0.01,0.0,-0.01
1777318997.8962672,-22.49,0.04,0.79,0.001,0.131,9.791,0.0,-0.01,-0.01
1777318997.9062502,-22.49,0.04,0.79,0.007,0.129,9.797,0.0,0.0,-0.01
1777318997.916233,-22.49,0.04,0.79,0.011,0.131,9.797,-0.01,0.0,0.0
1777318997.9262757,-22.49,0.04,0.79,0.012,0.129,9.792,0.0,-0.01,0.0
1777318997.9362576,-22.49,0.04,0.8,0.016,0.134,9.794,0.0,-0.01,0.0
1777318997.9462245,-22.49,0.04,0.8,0.013,0.137,9.797,0.0,0.0,-0.01
1777318997.9554071,-22.49,0.04,0.8,0.008,0.125,9.8,0.0,0.0,-0.01
1777318997.9662306,-22.49,0.04,0.8,0.006,0.134,9.799,0.0,0.0,-0.01
1777318997.975408,-22.49,0.04,0.8,0.0,0.132,9.802,-0.01,0.0,0.0
1777318997.9854198,-22.49,0.04,0.8,0.001,0.144,9.8,-0.01,0.0,0.0
1777318997.9954002,-22.49,0.04,0.8,-0.004,0.148,9.798,0.0,0.0,-0.01
1777318998.006243,-22.49,0.04,0.8,-0.005,0.141,9.8,-0.01,0.0,-0.01
1777318998.015383,-22.49,0.04,0.8,-0.008,0.131,9.798,0.0,0.0,-0.01
1777318998.02542,-22.49,0.03,0.79,-0.008,0.126,9.794,-0.01,0.0,-0.01
1777318998.035477,-22.49,0.04,0.79,-0.001,0.125,9.794,-0.01,-0.01,0.0
1777318998.0462296,-22.49,0.04,0.79,0.001,0.121,9.799,-0.01,-0.01,0.0
1777318998.0553892,-22.5,0.04,0.79,0.007,0.135,9.798,0.0,0.0,0.0
1777318998.0653837,-22.49,0.04,0.79,0.012,0.133,9.8,0.0,-0.01,-0.01
1777318998.075402,-22.49,0.04,0.79,0.013,0.14,9.802,0.0,0.0,-0.01
1777318998.085386,-22.49,0.04,0.8,0.013,0.133,9.8,0.0,0.0,-0.01
1777318998.095387,-22.5,0.04,0.8,0.007,0.138,9.797,0.0,0.0,0.0
1777318998.1053865,-22.5,0.04,0.79,0.011,0.144,9.8,-0.01,0.0,0.0
1777318998.1154146,-22.5,0.04,0.8,0.006,0.14,9.802,-0.01,-0.01,0.0
1777318998.125385,-22.49,0.04,0.79,0.006,0.144,9.792,0.0,0.0,-0.01
1777318998.135396,-22.49,0.04,0.8,0.001,0.134,9.787,-0.01,-0.01,-0.01
1777318998.145355,-22.49,0.04,0.79,0.001,0.125,9.785,0.0,0.0,-0.01
1777318998.1553955,-22.49,0.04,0.79,0.0,0.114,9.791,-0.01,0.0,-0.01
1777318998.165397,-22.49,0.04,0.79,-0.002,0.125,9.79,0.0,-0.01,0.0
1777318998.1753695,-22.49,0.04,0.79,-0.002,0.127,9.786,0.0,0.0,0.0
1777318998.1853857,-22.5,0.04,0.79,-0.001,0.137,9.791,0.0,-0.01,0.0
1777318998.195344,-22.49,0.04,0.79,0.0,0.14,9.79,0.0,0.0,-0.01
1777318998.205372,-22.49,0.04,0.79,-0.005,0.14,9.791,0.0,-0.01,-0.01
1777318998.2153726,-22.49,0.04,0.79,0.011,0.143,9.784,0.0,0.0,-0.01
1777318998.2253718,-22.49,0.04,0.79,0.012,0.143,9.791,0.0,-0.01,-0.01
1777318998.2353442,-22.49,0.04,0.79,0.012,0.143,9.794,-0.01,0.0,0.0
1777318998.2453685,-22.5,0.04,0.79,0.01,0.139,9.798,0.0,0.0,0.0
1777318998.2553449,-22.49,0.04,0.79,0.011,0.141,9.802,-0.01,0.0,0.0
1777318998.2653503,-22.49,0.04,0.79,0.012,0.147,9.797,-0.01,-0.01,-0.01
1777318998.2753234,-22.49,0.04,0.79,0.001,0.133,9.8,-0.01,0.0,-0.01
1777318998.2853668,-22.49,0.04,0.79,0.0,0.133,9.8,0.0,0.0,-0.01
1777318998.2953382,-22.5,0.04,0.79,-0.004,0.121,9.803,0.0,0.0,0.0
1777318998.3053546,-22.5,0.04,0.79,-0.002,0.132,9.796,0.0,-0.01,0.0
1777318998.315359,-22.5,0.04,0.79,0.0,0.148,9.799,-0.01,-0.01,0.0
1777318998.3253298,-22.5,0.04,0.79,0.007,0.146,9.794,0.0,-0.01,-0.01
1777318998.3353305,-22.49,0.04,0.8,0.002,0.148,9.799,0.0,0.0,-0.01
1777318998.3453312,-22.49,0.03,0.8,0.008,0.152,9.802,0.0,0.0,-0.01
1777318998.3557117,-22.49,0.04,0.8,0.012,0.15,9.799,0.0,0.0,-0.01
1777318998.365373,-22.5,0.04,0.8,0.006,0.137,9.802,0.0,-0.01,0.0
1777318998.3753252,-22.5,0.03,0.8,0.002,0.141,9.804,0.0,0.0,0.0
1777318998.3854332,-22.5,0.04,0.8,0.007,0.154,9.805,-0.01,0.0,0.0
1777318998.3953607,-22.5,0.03,0.8,0.004,0.139,9.796,-0.01,-0.01,-0.01
1777318998.4053357,-22.49,0.03,0.8,0.001,0.138,9.793,-0.01,0.0,-0.01
1777318998.4153078,-22.49,0.03,0.79,0.0,0.126,9.787,0.0,0.0,-0.01
1777318998.4253285,-22.49,0.03,0.79,0.002,0.115,9.79,0.0,0.0,-0.01
1777318998.4353228,-22.5,0.03,0.79,0.0,0.129,9.794,-0.01,-0.01,0.0
1777318998.445305,-22.5,0.03,0.79,-0.005,0.126,9.799,0.0,-0.01,0.0
1777318998.4553213,-22.5,0.03,0.79,-0.011,0.137,9.8,-0.01,-0.01,0.0
1777318998.465318,-22.5,0.03,0.79,-0.005,0.151,9.803,-0.01,-0.01,-0.01
1777318998.4753184,-22.49,0.03,0.8,0.002,0.135,9.805,0.0,0.0,-0.01
1777318998.4853244,-22.49,0.03,0.79,0.008,0.134,9.8,0.0,0.0,-0.01
1777318998.4953108,-22.49,0.03,0.79,0.013,0.132,9.802,-0.01,0.0,-0.01
1777318998.5052876,-22.5,0.03,0.79,0.014,0.135,9.8,0.0,-0.01,0.0
1777318998.5153186,-22.5,0.03,0.79,0.013,0.146,9.799,0.0,0.0,0.0
1777318998.5253136,-22.5,0.03,0.8,0.011,0.147,9.803,-0.01,-0.01,0.0
1777318998.5353022,-22.5,0.03,0.8,0.001,0.144,9.804,0.0,0.0,-0.01
1777318998.5453131,-22.5,0.03,0.8,0.004,0.141,9.805,0.0,0.0,-0.01
1777318998.5553036,-22.49,0.03,0.8,0.0,0.122,9.799,0.0,-0.01,-0.01
1777318998.5652866,-22.5,0.03,0.79,0.006,0.127,9.8,0.0,0.0,-0.01
1777318998.575328,-22.5,0.03,0.79,0.005,0.125,9.803,0.0,-0.01,0.0
1777318998.585312,-22.51,0.03,0.8,0.008,0.134,9.803,-0.01,-0.01,0.0
1777318998.595316,-22.5,0.04,0.8,0.01,0.143,9.803,0.0,-0.01,0.0
1777318998.605295,-22.5,0.04,0.8,0.013,0.146,9.797,0.0,-0.01,-0.01
1777318998.615315,-22.5,0.04,0.8,0.013,0.144,9.8,-0.01,0.0,-0.01
1777318998.625301,-22.49,0.04,0.8,0.014,0.127,9.8,-0.01,0.0,-0.01
1777318998.6353006,-22.5,0.04,0.79,0.013,0.133,9.794,0.0,0.0,-0.01
1777318998.6453104,-22.5,0.04,0.8,0.01,0.125,9.799,-0.01,-0.01,0.0
1777318998.6553156,-22.5,0.04,0.79,0.006,0.148,9.793,-0.01,0.0,0.0
1777318998.6653132,-22.5,0.03,0.8,-0.004,0.133,9.798,-0.01,0.0,0.0
1777318998.6753032,-22.5,0.03,0.79,0.004,0.139,9.8,0.0,0.0,-0.01
1777318998.6853092,-22.49,0.03,0.79,-0.001,0.12,9.803,-0.01,0.0,-0.01
1777318998.695314,-22.49,0.03,0.79,0.011,0.137,9.797,0.0,-0.01,-0.01
1777318998.7053127,-22.49,0.03,0.79,0.005,0.128,9.799,0.0,0.0,-0.01
1777318998.7152998,-22.5,0.03,0.79,0.005,0.144,9.802,-0.01,-0.01,0.0
1777318998.7253208,-22.5,0.04,0.79,0.0,0.14,9.798,-0.01,0.0,0.0
1777318998.735345,-22.5,0.03,0.79,0.005,0.14,9.796,-0.01,-0.01,-0.01
1777318998.7453175,-22.49,0.04,0.79,0.005,0.137,9.796,-0.01,0.0,-0.01
1777318998.7553172,-22.49,0.03,0.79,0.001,0.117,9.799,-0.01,0.0,-0.01
1777318998.7653155,-22.5,0.04,0.79,0.004,0.113,9.798,0.0,0.0,0.0
1777318998.775326,-22.5,0.03,0.79,-0.001,0.119,9.802,0.0,-0.01,0.0
1777318998.7852983,-22.5,0.03,0.79,-0.004,0.12,9.804,-0.01,0.0,0.0
1777318998.7953198,-22.5,0.03,0.79,-0.005,0.134,9.805,0.0,-0.01,0.0
1777318998.8053114,-22.5,0.03,0.79,-0.002,0.146,9.802,0.0,0.0,-0.01
1777318998.8153148,-22.5,0.03,0.79,0.004,0.146,9.802,-0.01,-0.01,-0.01
1777318998.825278,-22.5,0.03,0.79,0.01,0.144,9.802,0.0,0.0,-0.01
1777318998.8352535,-22.5,0.03,0.79,0.014,0.143,9.804,-0.01,0.0,0.0
1777318998.845278,-22.5,0.03,0.79,0.01,0.144,9.805,-0.01,0.0,0.0
1777318998.8552651,-22.5,0.03,0.79,0.007,0.137,9.806,-0.01,0.0,0.0
1777318998.8652782,-22.5,0.03,0.79,0.0,0.133,9.804,0.0,0.0,0.0
1777318998.8752675,-22.5,0.03,0.79,0.001,0.128,9.805,-0.01,0.0,-0.01
1777318998.88531,-22.5,0.03,0.79,0.0,0.125,9.806,0.0,0.0,-0.01
1777318998.8952825,-22.5,0.03,0.79,-0.001,0.123,9.808,0.0,0.0,-0.01
1777318998.9052618,-22.5,0.03,0.79,-0.005,0.127,9.805,0.0,-0.01,0.0
1777318998.915328,-22.5,0.03,0.79,-0.004,0.137,9.806,0.0,-0.01,0.0
1777318998.9252837,-22.5,0.03,0.79,-0.004,0.143,9.806,0.0,-0.01,0.0
1777318998.9352508,-22.5,0.03,0.79,0.0,0.148,9.808,0.0,0.0,0.0
1777318998.9452531,-22.5,0.03,0.79,-0.002,0.139,9.805,0.0,-0.01,-0.01
1777318998.9552894,-22.5,0.03,0.79,0.004,0.144,9.803,0.0,0.0,-0.01
1777318998.9652638,-22.5,0.03,0.79,0.002,0.125,9.805,-0.01,0.0,0.0
1777318998.9753,-22.51,0.03,0.79,0.007,0.139,9.798,0.0,0.0,0.0
1777318998.9852688,-22.51,0.02,0.79,-0.001,0.127,9.802,0.0,0.0,0.0
1777318998.9952865,-22.51,0.02,0.79,0.012,0.146,9.794,0.0,0.0,0.0
1777318999.0052629,-22.5,0.02,0.79,0.001,0.138,9.798,-0.01,0.0,-0.01
1777318999.015251,-22.5,0.02,0.79,0.013,0.143,9.793,0.0,0.0,-0.01
1777318999.0244324,-22.5,0.02,0.79,0.0,0.137,9.796,-0.01,0.0,-0.01
1777318999.0344172,-22.5,0.02,0.79,0.005,0.14,9.796,-0.01,-0.01,-0.01
1777318999.045249,-22.5,0.02,0.79,0.0,0.138,9.799,-0.01,0.0,0.0
1777318999.0552342,-22.51,0.02,0.79,-0.005,0.141,9.8,-0.01,-0.01,0.0
1777318999.064418,-22.51,0.02,0.79,0.004,0.138,9.796,-0.01,-0.01,0.0
1777318999.0752566,-22.5,0.03,0.79,0.0,0.126,9.799,0.0,-0.01,-0.01
1777318999.0852616,-22.5,0.02,0.79,0.006,0.115,9.802,-0.01,0.0,-0.01
1777318999.094419,-22.5,0.03,0.79,0.004,0.119,9.799,0.0,0.0,-0.01
1777318999.105268,-22.51,0.03,0.79,0.008,0.113,9.797,0.0,0.0,0.0
1777318999.1171474,-22.51,0.03,0.79,0.0,0.131,9.8,0.0,-0.01,0.0
1777318999.1287541,-22.51,0.03,0.79,-0.004,0.156,9.803,0.0,-0.01,0.0
1777318999.1366777,-22.51,0.02,0.79,0.0,0.158,9.805,-0.01,-0.01,-0.01
1777318999.1463432,-22.51,0.03,0.8,0.002,0.16,9.806,0.0,0.0,-0.01
1777318999.154453,-22.5,0.02,0.79,0.01,0.157,9.803,-0.01,-0.01,-0.01
1777318999.1644225,-22.5,0.03,0.79,0.006,0.151,9.805,-0.01,0.0,-0.01
1777318999.174412,-22.5,0.02,0.79,0.007,0.138,9.8,-0.01,0.0,-0.01
1777318999.2053142,-22.5,0.03,0.79,-0.002,0.137,9.803,-0.01,0.0,0.0
1777318999.2072349,-22.5,0.02,0.79,0.002,0.128,9.792,0.0,-0.01,-0.01
1777318999.209677,-22.5,0.02,0.79,-0.005,0.121,9.792,-0.01,0.0,-0.01
1777318999.2144153,-22.5,0.02,0.79,-0.006,0.129,9.794,0.0,0.0,-0.01
1777318999.224926,-22.5,0.02,0.79,-0.005,0.122,9.798,0.0,0.0,-0.01
1777318999.235457,-22.5,0.02,0.79,0.0,0.151,9.802,0.0,0.0,-0.01
1777318999.2456644,-22.5,0.02,0.79,-0.004,0.146,9.799,-0.01,-0.01,0.0
1777318999.2551105,-22.5,0.02,0.79,0.006,0.153,9.798,0.0,0.0,0.0
1777318999.264419,-22.5,0.02,0.8,0.002,0.164,9.796,-0.01,0.0,0.0
1777318999.2743964,-22.5,0.02,0.8,0.007,0.151,9.792,-0.01,-0.01,0.0
1777318999.284752,-22.51,0.02,0.79,0.008,0.151,9.797,-0.01,0.0,0.0
1777318999.294422,-22.51,0.02,0.79,0.0,0.151,9.798,-0.01,0.0,0.0
1777318999.3044147,-22.51,0.02,0.79,0.008,0.135,9.796,0.0,-0.01,-0.01
1777318999.314383,-22.5,0.02,0.79,0.013,0.137,9.798,0.0,0.0,-0.01
1777318999.3262978,-22.5,0.02,0.79,0.017,0.135,9.788,-0.01,0.0,-0.01
1777318999.3344193,-22.5,0.02,0.79,0.008,0.133,9.793,0.0,0.0,-0.01
1777318999.3443778,-22.5,0.03,0.79,0.011,0.14,9.79,0.0,0.0,-0.01
1777318999.3556356,-22.5,0.02,0.79,0.01,0.145,9.794,-0.01,-0.01,0.0
1777318999.3652453,-22.51,0.03,0.79,0.004,0.137,9.799,0.0,0.0,-0.01
1777318999.374403,-22.51,0.02,0.79,0.001,0.131,9.802,-0.01,-0.01,0.0
1777318999.3856862,-22.51,0.02,0.79,0.002,0.125,9.803,0.0,0.0,0.0
1777318999.3958302,-22.51,0.03,0.79,0.005,0.132,9.799,0.0,-0.01,0.0
1777318999.4048507,-22.51,0.02,0.79,-0.005,0.141,9.802,-0.01,-0.01,0.0
1777318999.414923,-22.51,0.02,0.8,0.001,0.144,9.803,0.0,-0.01,-0.01
1777318999.4256861,-22.51,0.02,0.8,0.0,0.148,9.799,0.0,-0.01,-0.01
1777318999.4344208,-22.51,0.03,0.8,0.006,0.147,9.798,-0.01,-0.01,-0.01
1777318999.444365,-22.51,0.03,0.8,0.014,0.145,9.796,0.0,0.0,-0.01
1777318999.454398,-22.51,0.03,0.8,0.01,0.144,9.797,0.0,0.0,0.0
1777318999.464362,-22.51,0.03,0.8,0.017,0.158,9.8,-0.01,0.0,0.0
1777318999.47436,-22.51,0.03,0.8,0.012,0.15,9.803,-0.01,-0.01,-0.01
1777318999.486133,-22.51,0.03,0.8,0.018,0.154,9.798,0.0,0.0,-0.01
1777318999.4944162,-22.5,0.03,0.8,0.001,0.135,9.8,-0.01,0.0,-0.01
1777318999.5043616,-22.5,0.02,0.8,0.007,0.134,9.79,0.0,0.0,-0.01
1777318999.514346,-22.5,0.03,0.79,0.001,0.116,9.796,-0.01,0.0,-0.01
1777318999.5243819,-22.5,0.02,0.79,0.001,0.119,9.799,0.0,-0.01,0.0
1777318999.534363,-22.51,0.03,0.79,-0.001,0.125,9.799,0.0,0.0,0.0
1777318999.5458899,-22.51,0.03,0.79,-0.004,0.133,9.802,-0.01,-0.01,0.0
1777318999.5543368,-22.51,0.03,0.79,0.001,0.143,9.804,-0.01,0.0,0.0
1777318999.5657043,-22.5,0.02,0.8,-0.001,0.139,9.805,0.0,-0.01,-0.01
1777318999.5743845,-22.5,0.03,0.79,0.013,0.146,9.802,0.0,0.0,-0.01
1777318999.5843925,-22.5,0.03,0.8,0.006,0.143,9.802,-0.01,-0.01,-0.01
1777318999.5943456,-22.51,0.03,0.8,0.01,0.145,9.8,0.0,0.0,0.0
1777318999.6053498,-22.51,0.03,0.8,0.004,0.151,9.803,0.0,0.0,0.0
1777318999.6143203,-22.51,0.02,0.8,-0.001,0.141,9.804,-0.01,0.0,0.0
1777318999.6243165,-22.5,0.02,0.8,0.0,0.135,9.787,-0.01,0.0,-0.01
1777318999.6343493,-22.5,0.02,0.79,-0.007,0.129,9.786,-0.01,0.0,-0.01
1777318999.6443162,-22.5,0.02,0.79,-0.004,0.126,9.792,0.0,0.0,-0.01
1777318999.654331,-22.5,0.02,0.79,-0.007,0.121,9.797,0.0,-0.01,-0.01
1777318999.6643534,-22.5,0.02,0.79,-0.001,0.132,9.796,0.0,0.0,0.0
1777318999.6743188,-22.51,0.03,0.79,-0.006,0.128,9.799,0.0,-0.01,0.0
1777318999.684323,-22.51,0.02,0.79,0.001,0.143,9.8,-0.01,-0.01,0.0
1777318999.694351,-22.5,0.02,0.79,0.006,0.141,9.802,0.0,0.0,-0.01
1777318999.70486,-22.5,0.02,0.8,0.011,0.138,9.8,0.0,0.0,-0.01
1777318999.715606,-22.5,0.03,0.79,0.011,0.131,9.799,0.0,0.0,-0.01
1777318999.7243316,-22.5,0.03,0.79,0.004,0.132,9.8,0.0,0.0,0.0
1777318999.7348797,-22.5,0.02,0.79,-0.004,0.127,9.798,0.0,0.0,0.0
1777318999.744329,-22.5,0.02,0.79,-0.002,0.144,9.802,-0.01,0.0,0.0
1777318999.7561677,-22.5,0.02,0.79,-0.008,0.144,9.798,-0.01,-0.01,-0.01
1777318999.7643392,-22.5,0.02,0.79,-0.004,0.127,9.798,0.0,-0.01,-0.01
1777318999.7743306,-22.5,0.02,0.79,-0.005,0.125,9.792,0.0,0.0,-0.01
1777318999.7843227,-22.51,0.02,0.79,0.004,0.108,9.788,0.0,-0.01,0.0
1777318999.794315,-22.51,0.03,0.79,0.001,0.111,9.793,0.0,-0.01,0.0
1777318999.8043368,-22.51,0.03,0.79,0.004,0.141,9.796,0.0,-0.01,0.0
1777318999.814294,-22.51,0.03,0.79,0.011,0.14,9.799,-0.01,-0.01,0.0
1777318999.824306,-22.51,0.03,0.8,0.01,0.143,9.8,0.0,0.0,-0.01
1777318999.8343208,-22.5,0.03,0.8,0.013,0.146,9.796,0.0,0.0,-0.01
1777318999.8443165,-22.5,0.03,0.79,0.011,0.139,9.797,-0.01,-0.01,-0.01
1777318999.8542922,-22.51,0.03,0.79,0.017,0.138,9.794,-0.01,0.0,0.0
1777318999.8643076,-22.51,0.03,0.79,0.011,0.141,9.796,-0.01,0.0,0.0
1777318999.874311,-22.51,0.03,0.79,0.004,0.126,9.793,-0.01,0.0,0.0
1777318999.8860157,-22.51,0.03,0.79,0.004,0.134,9.794,0.0,0.0,-0.01
1777318999.894269,-22.5,0.03,0.79,-0.006,0.114,9.798,0.0,0.0,-0.01
1777318999.904327,-22.5,0.03,0.79,0.001,0.104,9.786,0.0,-0.01,-0.01
1777318999.9143174,-22.5,0.03,0.79,-0.013,0.107,9.79,0.0,0.0,-0.01
1777318999.9243004,-22.51,0.03,0.79,0.001,0.127,9.782,0.0,-0.01,0.0
1777318999.9342866,-22.51,0.03,0.79,-0.006,0.134,9.79,-0.01,0.0,0.0
1777318999.9443183,-22.51,0.03,0.79,0.005,0.156,9.788,0.0,-0.01,0.0
1777318999.9546037,-22.51,0.03,0.79,-0.001,0.148,9.79,-0.01,0.0,-0.01
1777318999.9643133,-22.5,0.03,0.79,0.001,0.144,9.792,-0.01,-0.01,-0.01
1777318999.9742842,-22.5,0.02,0.79,0.0,0.139,9.797,-0.01,0.0,-0.01
1777318999.9842505,-22.5,0.02,0.79,-0.001,0.138,9.8,0.0,0.0,0.0
1777318999.9942412,-22.5,0.02,0.79,0.005,0.122,9.794,-0.01,0.0,-0.01
1777319000.004286,-22.5,0.02,0.79,0.002,0.133,9.797,-0.01,0.0,-0.01
1777319000.0142508,-22.5,0.02,0.79,0.001,0.132,9.791,0.0,0.0,-0.01
1777319000.0242536,-22.5,0.02,0.79,0.006,0.128,9.791,0.0,-0.01,-0.01
1777319000.034258,-22.5,0.03,0.79,0.002,0.135,9.796,-0.01,-0.01,-0.01
1777319000.0444543,-22.5,0.03,0.79,0.01,0.137,9.793,0.0,-0.01,0.0
1777319000.0543072,-22.5,0.03,0.79,0.004,0.138,9.798,-0.01,-0.01,0.0
1777319000.0642896,-22.5,0.03,0.79,0.016,0.144,9.8,-0.01,-0.01,0.0
1777319000.0800056,-22.5,0.03,0.79,0.013,0.132,9.803,0.0,0.0,-0.01
1777319000.085787,-22.51,0.03,0.79,0.007,0.129,9.798,-0.01,0.0,0.0
1777319000.0942538,-22.51,0.03,0.79,0.007,0.126,9.797,0.0,0.0,0.0
1777319000.1034462,-22.51,0.03,0.79,0.01,0.12,9.794,-0.01,0.0,0.0
1777319000.1142666,-22.51,0.03,0.79,0.008,0.129,9.793,0.0,0.0,-0.01
1777319000.1253994,-22.5,0.03,0.79,0.016,0.132,9.798,0.0,0.0,-0.01
1777319000.134259,-22.5,0.03,0.79,0.012,0.133,9.802,0.0,-0.01,-0.01
1777319000.1434188,-22.5,0.03,0.79,0.016,0.138,9.803,0.0,0.0,-0.01
1777319000.1542544,-22.5,0.03,0.79,0.006,0.145,9.805,0.0,0.0,-0.01
1777319000.164237,-22.5,0.03,0.79,0.008,0.146,9.805,0.0,-0.01,0.0
1777319000.175113,-22.51,0.03,0.79,0.008,0.144,9.806,-0.01,-0.01,0.0
1777319000.1842678,-22.5,0.03,0.78,0.004,0.139,9.805,-0.01,0.0,0.0
1777319000.1934211,-22.5,0.03,0.79,0.005,0.139,9.806,-0.01,-0.01,-0.01
1777319000.204253,-22.5,0.03,0.79,0.006,0.134,9.808,-0.01,0.0,-0.01
1777319000.2134292,-22.5,0.03,0.79,0.007,0.131,9.808,0.0,0.0,-0.01
1777319000.22343,-22.5,0.03,0.78,0.007,0.134,9.809,0.0,-0.01,0.0
1777319000.2347245,-22.51,0.03,0.78,0.005,0.135,9.803,0.0,-0.01,0.0
1777319000.2442565,-22.51,0.03,0.79,0.004,0.14,9.803,0.0,0.0,0.0
1777319000.2548335,-22.51,0.03,0.79,0.008,0.147,9.805,0.0,-0.01,0.0
1777319000.2634346,-22.5,0.04,0.79,0.008,0.145,9.8,-0.01,0.0,-0.01
1777319000.2734222,-22.5,0.04,0.79,0.004,0.141,9.799,0.0,-0.01,-0.01
1777319000.284366,-22.5,0.04,0.79,0.011,0.139,9.802,-0.01,-0.01,-0.01
1777319000.2934332,-22.51,0.04,0.79,0.007,0.141,9.804,-0.01,0.0,0.0
1777319000.3034174,-22.51,0.04,0.79,0.001,0.137,9.803,-0.01,-0.01,0.0
1777319000.3134155,-22.51,0.04,0.79,0.001,0.135,9.804,0.0,-0.01,0.0
1777319000.323433,-22.51,0.04,0.79,0.005,0.132,9.806,0.0,0.0,-0.01
1777319000.3350878,-22.51,0.04,0.79,0.006,0.133,9.806,0.0,-0.01,-0.01
1777319000.343425,-22.51,0.04,0.79,0.005,0.135,9.806,0.0,0.0,-0.01
1777319000.3534367,-22.51,0.04,0.79,0.005,0.137,9.808,-0.01,-0.01,-0.01
1777319000.3656783,-22.51,0.04,0.79,0.008,0.148,9.79,0.0,0.0,-0.01
1777319000.3734257,-22.5,0.04,0.79,-0.001,0.139,9.796,-0.01,0.0,-0.01
1777319000.3834162,-22.5,0.04,0.79,0.006,0.145,9.79,0.0,-0.01,-0.01
1777319000.3938353,-22.5,0.04,0.79,0.0,0.133,9.794,-0.01,0.0,-0.01
1777319000.4034083,-22.5,0.04,0.79,0.005,0.138,9.792,-0.01,-0.01,-0.01
1777319000.4134324,-22.5,0.03,0.79,0.0,0.129,9.793,0.0,0.0,-0.01
1777319000.4238,-22.5,0.03,0.79,0.002,0.133,9.798,0.0,0.0,0.0
1777319000.43339,-22.5,0.03,0.79,0.001,0.137,9.8,-0.01,0.0,-0.01
1777319000.4438176,-22.5,0.03,0.79,0.0,0.138,9.803,0.0,-0.01,0.0
1777319000.4534183,-22.51,0.03,0.79,0.004,0.144,9.797,0.0,-0.01,-0.01
1777319000.465584,-22.5,0.03,0.79,0.0,0.141,9.8,-0.01,-0.01,0.0
1777319000.4733605,-22.5,0.03,0.79,0.008,0.152,9.798,0.0,0.0,-0.01
1777319000.4833724,-22.5,0.04,0.79,0.011,0.156,9.792,0.0,-0.01,-0.01
1777319000.4933212,-22.5,0.04,0.79,0.005,0.145,9.797,-0.01,-0.01,-0.01
1777319000.5033627,-22.5,0.04,0.79,0.007,0.139,9.8,0.0,-0.01,-0.01
1777319000.513364,-22.5,0.04,0.79,0.004,0.131,9.803,-0.01,0.0,0.0
1777319000.5235066,-22.5,0.04,0.79,0.007,0.128,9.802,-0.01,-0.01,0.0
1777319000.5333803,-22.51,0.04,0.79,-0.001,0.12,9.794,0.0,0.0,0.0
1777319000.545218,-22.51,0.03,0.78,0.002,0.129,9.792,0.0,0.0,0.0
1777319000.5533495,-22.5,0.03,0.79,0.001,0.133,9.792,-0.01,-0.01,-0.01
1777319000.5633187,-22.5,0.03,0.79,0.001,0.128,9.788,0.0,0.0,-0.01
1777319000.5733538,-22.5,0.03,0.79,0.006,0.147,9.784,0.0,0.0,-0.01
1777319000.5833266,-22.51,0.04,0.79,0.006,0.141,9.791,0.0,0.0,0.0
1777319000.5933518,-22.51,0.03,0.79,0.012,0.147,9.793,0.0,-0.01,0.0
1777319000.6033275,-22.51,0.04,0.8,0.0,0.157,9.798,-0.01,0.0,0.0
1777319000.6133657,-22.51,0.03,0.8,0.011,0.151,9.798,0.0,-0.01,0.0
1777319000.6233704,-22.51,0.03,0.79,0.002,0.133,9.796,-0.01,0.0,-0.01
1777319000.6333084,-22.5,0.03,0.79,-0.001,0.129,9.793,-0.01,-0.01,-0.01
1777319000.64336,-22.51,0.03,0.79,-0.001,0.116,9.794,-0.01,0.0,-0.01
1777319000.6550775,-22.51,0.03,0.78,-0.001,0.113,9.798,0.0,0.0,0.0
1777319000.6633048,-22.51,0.03,0.79,0.0,0.122,9.802,-0.01,0.0,0.0
1777319000.6733506,-22.51,0.04,0.79,-0.002,0.129,9.799,0.0,-0.01,0.0
1777319000.683307,-22.51,0.03,0.79,0.007,0.139,9.8,0.0,-0.01,0.0
1777319000.6933582,-22.51,0.03,0.79,0.005,0.14,9.803,-0.01,0.0,-0.01
1777319000.7033408,-22.5,0.03,0.79,0.007,0.143,9.791,0.0,0.0,-0.01
1777319000.7146761,-22.5,0.03,0.79,0.001,0.143,9.796,-0.01,-0.01,-0.01
1777319000.7233562,-22.5,0.03,0.79,0.007,0.152,9.793,0.0,-0.01,-0.01
1777319000.7333243,-22.5,0.04,0.79,0.001,0.14,9.797,-0.01,0.0,0.0
1777319000.7433255,-22.5,0.03,0.79,0.002,0.143,9.796,0.0,-0.01,-0.01
1777319000.7533684,-22.5,0.03,0.79,0.0,0.132,9.799,-0.01,0.0,-0.01
1777319000.7633543,-22.5,0.03,0.79,0.002,0.121,9.797,0.0,-0.01,-0.01
1777319000.7733223,-22.5,0.03,0.79,0.004,0.123,9.796,-0.01,0.0,0.0
1777319000.7833233,-22.5,0.03,0.79,0.0,0.123,9.799,-0.01,-0.01,0.0
1777319000.7933366,-22.5,0.03,0.79,0.006,0.132,9.79,0.0,0.0,0.0
1777319000.8033175,-22.5,0.03,0.79,0.002,0.14,9.794,-0.01,-0.01,-0.01
1777319000.8133183,-22.5,0.03,0.79,0.012,0.145,9.793,-0.01,0.0,-0.01
1777319000.823322,-22.5,0.03,0.79,0.007,0.139,9.794,0.0,0.0,-0.01
1777319000.8354647,-22.5,0.03,0.79,0.01,0.145,9.797,-0.01,0.0,0.0
1777319000.8443174,-22.51,0.03,0.79,0.004,0.143,9.798,-0.01,0.0,0.0
1777319000.8533318,-22.51,0.03,0.79,-0.001,0.138,9.794,0.0,0.0,0.0
1777319000.8633268,-22.51,0.03,0.79,0.0,0.144,9.792,-0.01,0.0,0.0
1777319000.8733323,-22.51,0.03,0.79,-0.004,0.128,9.792,-0.01,0.0,0.0
1777319000.883323,-22.51,0.03,0.79,-0.005,0.133,9.782,0.0,0.0,0.0
1777319000.893333,-22.51,0.03,0.79,-0.008,0.15,9.785,-0.01,0.0,-0.01
1777319000.9033248,-22.51,0.02,0.79,-0.004,0.148,9.788,0.0,-0.01,0.0
1777319000.9132862,-22.51,0.03,0.79,0.0,0.146,9.79,0.0,0.0,-0.01
1777319000.9232926,-22.51,0.03,0.79,0.005,0.151,9.794,-0.01,-0.01,-0.01
1777319000.933319,-22.51,0.03,0.79,0.004,0.14,9.799,0.0,0.0,0.0
1777319000.9433138,-22.51,0.03,0.79,0.006,0.14,9.796,-0.01,-0.01,0.0
1777319000.9533272,-22.51,0.03,0.79,0.004,0.144,9.799,-0.01,0.0,0.0
1777319000.963322,-22.51,0.03,0.79,0.006,0.131,9.799,0.0,0.0,-0.01
1777319000.9733171,-22.51,0.03,0.79,0.002,0.128,9.802,-0.01,0.0,-0.01
1777319000.9851525,-22.51,0.03,0.79,0.004,0.122,9.802,-0.01,0.0,-0.01
1777319000.9936736,-22.51,0.03,0.79,0.0,0.133,9.799,0.0,0.0,-0.01
1777319001.003313,-22.51,0.03,0.79,0.002,0.123,9.8,0.0,0.0,0.0
1777319001.0133193,-22.51,0.03,0.79,0.004,0.138,9.802,-0.01,0.0,0.0
1777319001.0233274,-22.51,0.03,0.79,0.0,0.14,9.792,0.0,0.0,-0.01
1777319001.0332863,-22.51,0.03,0.79,0.01,0.129,9.785,0.0,-0.01,-0.01
1777319001.0438745,-22.5,0.03,0.79,0.011,0.131,9.791,-0.01,0.0,-0.01
1777319001.0532749,-22.51,0.03,0.79,0.014,0.121,9.784,0.0,0.0,-0.01
1777319001.0633125,-22.51,0.03,0.79,0.007,0.12,9.788,0.0,-0.01,0.0
1777319001.073288,-22.51,0.03,0.79,0.014,0.133,9.784,-0.01,-0.01,0.0
1777319001.083278,-22.51,0.03,0.79,0.0,0.127,9.788,-0.01,0.0,0.0
1777319001.093307,-22.51,0.03,0.79,0.006,0.129,9.782,0.0,0.0,-0.01
1777319001.1033075,-22.51,0.03,0.79,-0.01,0.123,9.787,-0.01,0.0,-0.01
1777319001.1132991,-22.51,0.03,0.79,-0.002,0.132,9.786,0.0,-0.01,-0.01
1777319001.1232774,-22.51,0.03,0.79,0.001,0.129,9.791,0.0,0.0,-0.01
1777319001.13326,-22.51,0.03,0.79,0.0,0.141,9.793,-0.01,-0.01,-0.01
1777319001.1433246,-22.51,0.03,0.79,0.005,0.152,9.786,0.0,-0.01,0.0
1777319001.1532946,-22.51,0.03,0.79,0.001,0.143,9.792,0.0,-0.01,0.0
1777319001.1651318,-22.51,0.03,0.79,0.017,0.15,9.791,-0.01,-0.01,-0.01
1777319001.1732628,-22.51,0.03,0.79,0.005,0.127,9.785,0.0,0.0,-0.01
1777319001.1832585,-22.51,0.03,0.79,0.013,0.122,9.778,-0.01,0.0,-0.01
1777319001.1949732,-22.51,0.03,0.79,0.002,0.115,9.786,-0.01,-0.01,0.0
1777319001.2032802,-22.51,0.03,0.79,0.001,0.119,9.785,0.0,0.0,0.0
1777319001.2132618,-22.51,0.03,0.78,-0.005,0.125,9.784,0.0,0.0,-0.01
1777319001.222434,-22.51,0.02,0.79,-0.01,0.133,9.79,-0.01,0.0,0.0
1777319001.2332726,-22.51,0.02,0.79,-0.002,0.127,9.792,0.0,0.0,-0.01
1777319001.2432618,-22.51,0.02,0.79,0.0,0.144,9.796,0.0,-0.01,-0.01
1777319001.253257,-22.51,0.02,0.79,0.005,0.139,9.798,-0.01,-0.01,-0.01
1777319001.2624626,-22.51,0.03,0.79,0.006,0.146,9.8,-0.01,-0.01,0.0
1777319001.2724187,-22.51,0.03,0.79,0.011,0.147,9.796,0.0,-0.01,0.0
1777319001.2832742,-22.51,0.03,0.79,0.012,0.151,9.794,-0.01,-0.01,0.0
1777319001.2932534,-22.51,0.03,0.79,0.006,0.152,9.799,-0.01,-0.01,0.0
1777319001.30242,-22.51,0.03,0.79,0.013,0.132,9.8,0.0,0.0,-0.01
1777319001.3124254,-22.51,0.03,0.79,0.004,0.131,9.799,-0.01,0.0,-0.01
1777319001.3257582,-22.51,0.03,0.79,0.006,0.116,9.794,0.0,0.0,-0.01
1777319001.3362212,-22.51,0.03,0.79,-0.004,0.113,9.796,0.0,0.0,0.0
1777319001.3448963,-22.51,0.03,0.79,0.0,0.143,9.793,0.0,0.0,0.0
1777319001.353244,-22.51,0.02,0.79,-0.006,0.143,9.792,-0.01,-0.01,0.0
1777319001.3624237,-22.51,0.02,0.79,-0.004,0.151,9.787,0.0,0.0,-0.01
1777319001.3724203,-22.51,0.02,0.79,-0.002,0.15,9.79,-0.01,0.0,-0.01
1777319001.3832443,-22.51,0.02,0.79,0.007,0.15,9.79,0.0,-0.01,-0.01
1777319001.3925648,-22.51,0.03,0.79,0.007,0.146,9.782,0.0,-0.01,0.0
1777319001.402427,-22.51,0.03,0.79,0.007,0.14,9.788,-0.01,0.0,0.0
1777319001.4124322,-22.51,0.03,0.79,0.001,0.145,9.788,0.0,0.0,0.0
1777319001.4225605,-22.51,0.03,0.79,0.0,0.148,9.792,-0.01,0.0,0.0
1777319001.433532,-22.51,0.02,0.79,0.001,0.141,9.792,-0.01,-0.01,-0.01
1777319001.4424672,-22.51,0.02,0.79,0.005,0.137,9.793,0.0,0.0,-0.01
1777319001.4525335,-22.51,0.02,0.79,0.005,0.134,9.787,0.0,0.0,-0.01
1777319001.4624856,-22.51,0.02,0.79,0.0,0.135,9.791,-0.01,-0.01,0.0
1777319001.472428,-22.51,0.02,0.79,-0.001,0.134,9.791,0.0,-0.01,0.0
1777319001.4824245,-22.51,0.02,0.79,-0.001,0.148,9.796,0.0,-0.01,0.0
1777319001.4924066,-22.51,0.02,0.79,0.001,0.159,9.799,-0.01,-0.01,0.0
1777319001.5023851,-22.51,0.02,0.79,0.005,0.147,9.803,0.0,-0.01,-0.01
1777319001.5124328,-22.51,0.03,0.79,0.008,0.148,9.802,0.0,0.0,-0.01
1777319001.5224154,-22.51,0.03,0.79,0.007,0.127,9.799,-0.01,-0.01,-0.01
1777319001.5324168,-22.51,0.03,0.79,0.008,0.14,9.797,0.0,0.0,-0.01
1777319001.5423799,-22.51,0.02,0.79,-0.001,0.131,9.799,-0.01,0.0,0.0
1777319001.5524037,-22.51,0.02,0.79,0.0,0.146,9.793,0.0,0.0,0.0
1777319001.562385,-22.51,0.02,0.79,-0.008,0.139,9.793,0.0,0.0,-0.01
1777319001.572404,-22.51,0.02,0.79,-0.01,0.14,9.781,-0.01,-0.01,-0.01
1777319001.582378,-22.51,0.02,0.79,-0.014,0.134,9.784,0.0,0.0,-0.01
1777319001.592724,-22.51,0.02,0.8,-0.011,0.138,9.773,0.0,-0.01,-0.01
1777319001.6023932,-22.51,0.02,0.79,0.001,0.139,9.768,0.0,0.0,0.0
1777319001.6126664,-22.51,0.02,0.79,0.0,0.148,9.779,-0.01,-0.01,0.0
1777319001.6228175,-22.51,0.02,0.79,0.006,0.153,9.78,0.0,0.0,0.0
1777319001.6393344,-22.51,0.02,0.79,0.007,0.147,9.788,0.0,-0.01,0.0
1777319001.6437452,-22.51,0.02,0.79,0.014,0.153,9.79,-0.01,0.0,-0.01
1777319001.6579788,-22.51,0.02,0.79,0.017,0.138,9.79,0.0,-0.01,-0.01
1777319001.663247,-22.51,0.02,0.79,0.016,0.139,9.791,0.0,0.0,-0.01
1777319001.6726987,-22.51,0.02,0.79,0.017,0.141,9.786,-0.01,0.0,-0.01
1777319001.6850479,-22.51,0.02,0.79,0.006,0.135,9.792,-0.01,0.0,0.0
1777319001.692395,-22.51,0.02,0.79,0.011,0.141,9.793,0.0,0.0,0.0
1777319001.7023506,-22.51,0.02,0.79,-0.004,0.137,9.798,-0.01,0.0,0.0
1777319001.7123153,-22.51,0.02,0.79,0.0,0.137,9.79,0.0,-0.01,-0.01
1777319001.7223256,-22.51,0.02,0.79,-0.007,0.128,9.793,-0.01,-0.01,-0.01
1777319001.7323878,-22.51,0.02,0.79,-0.005,0.128,9.798,-0.01,-0.01,-0.01
1777319001.7423582,-22.51,0.02,0.79,0.002,0.127,9.799,0.0,0.0,0.0
1777319001.7523313,-22.51,0.02,0.79,0.007,0.132,9.802,0.0,-0.01,0.0
1777319001.7623806,-22.51,0.03,0.79,0.013,0.143,9.793,0.0,0.0,0.0
1777319001.772372,-22.51,0.03,0.79,0.008,0.143,9.798,0.0,-0.01,-0.01
1777319001.7823544,-22.51,0.03,0.79,0.012,0.151,9.798,0.0,0.0,-0.01
1777319001.7923455,-22.51,0.02,0.79,0.0,0.141,9.799,-0.01,-0.01,-0.01
1777319001.8023717,-22.51,0.02,0.79,0.005,0.134,9.785,0.0,0.0,-0.01
1777319001.8123517,-22.51,0.02,0.79,-0.001,0.131,9.787,-0.01,0.0,0.0
1777319001.8223221,-22.51,0.02,0.79,-0.008,0.135,9.793,-0.01,0.0,0.0
1777319001.8323605,-22.51,0.02,0.79,-0.007,0.125,9.797,0.0,0.0,0.0
1777319001.8423553,-22.51,0.02,0.79,-0.004,0.132,9.799,-0.01,-0.01,0.0
1777319001.8523195,-22.51,0.02,0.79,0.0,0.138,9.8,-0.01,0.0,-0.01
1777319001.862324,-22.51,0.02,0.79,0.012,0.128,9.803,0.0,-0.01,-0.01
1777319001.8723178,-22.51,0.03,0.79,0.017,0.133,9.805,-0.01,-0.01,-0.01
1777319001.8823667,-22.51,0.03,0.79,0.023,0.139,9.804,0.0,-0.01,-0.01
1777319001.8923166,-22.51,0.03,0.79,0.019,0.145,9.797,0.0,0.0,0.0
1777319001.9023182,-22.51,0.03,0.79,0.018,0.148,9.8,-0.01,0.0,0.0
1777319001.9123504,-22.51,0.03,0.79,0.017,0.147,9.797,-0.01,0.0,0.0
1777319001.9223197,-22.51,0.03,0.79,0.008,0.138,9.793,0.0,0.0,-0.01
1777319001.9323177,-22.51,0.02,0.79,0.012,0.139,9.793,-0.01,0.0,-0.01
1777319001.9423187,-22.51,0.02,0.79,0.007,0.119,9.797,-0.01,0.0,-0.01
1777319001.9523213,-22.51,0.02,0.79,0.007,0.122,9.797,-0.01,0.0,-0.01
1777319001.9623191,-22.51,0.02,0.79,0.0,0.125,9.791,0.0,-0.01,0.0
1777319001.972401,-22.51,0.02,0.79,0.006,0.133,9.792,0.0,0.0,0.0
1777319001.9823232,-22.51,0.02,0.79,-0.005,0.145,9.797,-0.01,0.0,0.0
1777319001.9922898,-22.51,0.02,0.79,0.0,0.145,9.79,0.0,0.0,0.0
1777319002.0023146,-22.51,0.02,0.79,0.001,0.141,9.794,0.0,-0.01,-0.01
1777319002.0123205,-22.51,0.02,0.79,0.01,0.14,9.799,-0.01,-0.01,-0.01
1777319002.0223184,-22.51,0.03,0.79,0.014,0.126,9.802,0.0,0.0,-0.01
1777319002.0323198,-22.51,0.02,0.79,0.011,0.133,9.802,0.0,0.0,0.0
1777319002.042324,-22.51,0.02,0.79,0.011,0.134,9.798,-0.01,0.0,0.0
1777319002.0523193,-22.51,0.02,0.79,0.007,0.135,9.802,0.0,0.0,0.0
1777319002.0623055,-22.51,0.02,0.79,0.004,0.127,9.802,0.0,0.0,-0.01
1777319002.0722973,-22.51,0.02,0.79,0.001,0.12,9.798,-0.01,-0.01,-0.01
1777319002.082331,-22.51,0.02,0.79,0.005,0.121,9.797,0.0,0.0,0.0
1777319002.0923195,-22.51,0.02,0.79,0.006,0.128,9.798,-0.01,-0.01,0.0
1777319002.1022875,-22.51,0.02,0.79,0.002,0.141,9.8,-0.01,-0.01,0.0
1777319002.1122797,-22.51,0.03,0.79,0.007,0.146,9.797,0.0,-0.01,0.0
1777319002.1222742,-22.51,0.03,0.79,0.008,0.152,9.797,-0.01,-0.01,-0.01
1777319002.1323268,-22.51,0.03,0.79,0.011,0.141,9.791,-0.01,0.0,-0.01
1777319002.142308,-22.51,0.03,0.79,0.007,0.138,9.79,0.0,0.0,-0.01
1777319002.152275,-22.51,0.03,0.79,0.01,0.148,9.796,-0.01,0.0,0.0
1777319002.1623209,-22.51,0.03,0.79,0.007,0.14,9.799,0.0,-0.01,0.0
1777319002.1722896,-22.51,0.03,0.79,0.006,0.152,9.798,0.0,0.0,-0.01
1777319002.1822808,-22.51,0.03,0.8,0.008,0.143,9.799,-0.01,0.0,-0.01
1777319002.1922762,-22.51,0.02,0.8,0.007,0.126,9.796,0.0,-0.01,-0.01
1777319002.202304,-22.51,0.03,0.79,0.007,0.132,9.782,0.0,0.0,-0.01
1777319002.2123082,-22.51,0.03,0.79,0.001,0.129,9.785,-0.01,-0.01,-0.01
1777319002.2222743,-22.51,0.03,0.79,-0.001,0.128,9.786,0.0,0.0,0.0
1777319002.2322574,-22.51,0.03,0.79,-0.005,0.139,9.79,0.0,-0.01,0.0
1777319002.2422786,-22.51,0.02,0.79,0.0,0.147,9.79,-0.01,0.0,0.0
1777319002.2522771,-22.51,0.03,0.79,0.0,0.132,9.792,0.0,-0.01,-0.01
1777319002.2622602,-22.51,0.03,0.79,0.001,0.131,9.794,-0.01,-0.01,0.0
1777319002.2722905,-22.51,0.03,0.79,0.005,0.128,9.79,0.0,0.0,0.0
1777319002.2822585,-22.51,0.03,0.79,0.014,0.143,9.787,0.0,-0.01,0.0
1777319002.2914493,-22.51,0.03,0.8,0.006,0.134,9.793,-0.01,0.0,0.0
1777319002.3022745,-22.51,0.03,0.79,0.017,0.15,9.788,0.0,0.0,-0.01
1777319002.3122585,-22.51,0.03,0.79,0.0,0.137,9.791,-0.01,0.0,-0.01
1777319002.3222647,-22.51,0.03,0.79,0.006,0.135,9.792,-0.01,0.0,-0.01
1777319002.331427,-22.51,0.03,0.79,0.0,0.135,9.792,0.0,0.0,-0.01
1777319002.3422568,-22.51,0.02,0.79,-0.004,0.127,9.79,0.0,0.0,0.0
1777319002.3514478,-22.51,0.02,0.79,0.001,0.139,9.785,-0.01,0.0,0.0
1777319002.36142,-22.51,0.02,0.79,-0.008,0.131,9.792,0.0,-0.01,-0.01
1777319002.372259,-22.51,0.02,0.79,0.0,0.126,9.786,0.0,0.0,-0.01
1777319002.3814578,-22.51,0.02,0.79,0.0,0.121,9.792,-0.01,-0.01,-0.01
1777319002.3914104,-22.51,0.03,0.79,0.006,0.127,9.782,0.0,0.0,0.0
1777319002.4014328,-22.51,0.03,0.79,0.0,0.125,9.788,0.0,-0.01,0.0
1777319002.4114332,-22.51,0.03,0.79,0.004,0.14,9.788,-0.01,-0.01,0.0
1777319002.4222543,-22.51,0.03,0.79,0.011,0.147,9.79,0.0,0.0,0.0
1777319002.4314072,-22.51,0.02,0.79,0.008,0.144,9.793,0.0,0.0,-0.01
1777319002.441424,-22.51,0.03,0.79,0.008,0.127,9.796,-0.01,0.0,-0.01
1777319002.452259,-22.51,0.03,0.79,0.0,0.121,9.792,0.0,-0.01,0.0
1777319002.4614205,-22.51,0.03,0.79,0.006,0.133,9.785,0.0,0.0,0.0
1777319002.4714296,-22.51,0.03,0.79,0.004,0.138,9.787,-0.01,-0.01,0.0
1777319002.4814076,-22.51,0.03,0.79,0.005,0.151,9.78,-0.01,0.0,-0.01
1777319002.4922442,-22.51,0.03,0.79,0.011,0.139,9.782,0.0,-0.01,-0.01
1777319002.5022388,-22.51,0.03,0.79,0.013,0.133,9.788,-0.01,0.0,-0.01
1777319002.5122378,-22.51,0.03,0.79,0.012,0.128,9.787,-0.01,-0.01,-0.01
1777319002.5214663,-22.51,0.03,0.79,0.011,0.125,9.784,0.0,0.0,0.0
1777319002.531412,-22.51,0.03,0.79,0.01,0.128,9.788,-0.01,0.0,0.0
1777319002.5414116,-22.51,0.03,0.79,0.004,0.138,9.791,-0.01,-0.01,0.0
1777319002.5513818,-22.51,0.03,0.79,0.007,0.138,9.792,0.0,0.0,-0.01
1777319002.5614374,-22.51,0.03,0.79,0.004,0.143,9.79,-0.01,-0.01,-0.01
1777319002.5713966,-22.51,0.03,0.79,0.011,0.137,9.779,0.0,0.0,-0.01
1777319002.5815759,-22.51,0.03,0.79,0.011,0.131,9.78,0.0,-0.01,-0.01
1777319002.5914001,-22.51,0.03,0.79,0.01,0.14,9.781,-0.01,0.0,0.0
1777319002.6014054,-22.51,0.03,0.79,0.004,0.146,9.79,0.0,-0.01,0.0
1777319002.6113658,-22.51,0.03,0.79,0.004,0.15,9.794,0.0,0.0,0.0
1777319002.6213872,-22.51,0.03,0.79,0.006,0.147,9.794,-0.01,0.0,-0.01
1777319002.6313825,-22.51,0.03,0.79,0.005,0.131,9.785,0.0,0.0,-0.01
1777319002.6413772,-22.51,0.03,0.79,0.006,0.128,9.788,0.0,0.0,-0.01
1777319002.6513555,-22.51,0.03,0.79,0.002,0.125,9.787,-0.01,0.0,-0.01
1777319002.6613529,-22.51,0.03,0.79,0.008,0.15,9.785,-0.01,0.0,-0.01
1777319002.6713886,-22.51,0.03,0.79,0.001,0.135,9.785,0.0,0.0,-0.01
1777319002.681405,-22.51,0.03,0.79,0.011,0.141,9.776,-0.01,0.0,-0.01
1777319002.6913872,-22.51,0.03,0.79,-0.001,0.134,9.778,-0.01,0.0,-0.01
1777319002.7013526,-22.51,0.03,0.79,0.005,0.131,9.781,0.0,-0.01,-0.01
1777319002.7113829,-22.51,0.03,0.79,0.0,0.129,9.787,0.0,0.0,0.0
1777319002.7213528,-22.51,0.03,0.79,0.0,0.131,9.78,-0.01,-0.01,0.0
1777319002.7313411,-22.51,0.03,0.79,0.001,0.134,9.779,0.0,0.0,0.0
1777319002.7413833,-22.51,0.03,0.79,-0.002,0.128,9.786,0.0,-0.01,0.0
1777319002.7513456,-22.51,0.03,0.79,0.0,0.138,9.782,0.0,0.0,0.0
1777319002.7613375,-22.51,0.03,0.79,0.0,0.144,9.782,0.0,-0.01,-0.01
1777319002.771347,-22.51,0.03,0.8,0.007,0.145,9.767,0.0,-0.01,-0.01
1777319002.781371,-22.51,0.03,0.8,0.008,0.144,9.774,0.0,0.0,-0.01
1777319002.7913387,-22.51,0.03,0.8,0.014,0.147,9.779,0.0,0.0,-0.01
1777319002.801364,-22.51,0.03,0.8,0.008,0.143,9.784,-0.01,0.0,0.0
1777319002.811349,-22.51,0.03,0.8,0.007,0.141,9.79,0.0,-0.01,0.0
1777319002.8213341,-22.51,0.03,0.8,0.0,0.134,9.788,-0.01,0.0,0.0
1777319002.8313303,-22.51,0.03,0.79,-0.005,0.128,9.788,0.0,-0.01,-0.01
1777319002.8413286,-22.51,0.03,0.79,-0.004,0.121,9.791,-0.01,-0.01,-0.01
1777319002.8513389,-22.51,0.03,0.79,-0.001,0.117,9.793,0.0,-0.01,-0.01
1777319002.8613439,-22.51,0.03,0.79,0.008,0.122,9.786,0.0,-0.01,-0.01
1777319002.8713317,-22.51,0.03,0.79,0.012,0.144,9.792,0.0,-0.01,0.0
1777319002.8813112,-22.51,0.03,0.79,0.014,0.135,9.796,0.0,-0.01,-0.01
1777319002.8913546,-22.51,0.03,0.8,0.016,0.147,9.794,-0.01,0.0,0.0
1777319002.9013443,-22.51,0.03,0.8,0.01,0.132,9.796,0.0,-0.01,-0.01
1777319002.9113097,-22.51,0.03,0.8,0.014,0.143,9.797,-0.01,0.0,0.0
1777319002.921331,-22.51,0.04,0.8,0.0,0.143,9.798,0.0,-0.01,0.0
1777319002.9313622,-22.51,0.03,0.8,0.005,0.132,9.793,0.0,-0.01,0.0
1777319002.9413311,-22.51,0.04,0.8,-0.008,0.139,9.798,0.0,0.0,0.0
1777319002.951328,-22.51,0.03,0.8,0.007,0.156,9.797,-0.01,-0.01,-0.01
1777319002.9613237,-22.51,0.03,0.8,0.002,0.144,9.797,0.0,0.0,-0.01
1777319002.971322,-22.51,0.03,0.8,0.013,0.141,9.792,0.0,-0.01,-0.01
1777319002.9813335,-22.51,0.04,0.8,0.012,0.14,9.788,-0.01,0.0,-0.01
1777319002.9913275,-22.51,0.03,0.8,0.013,0.141,9.794,0.0,-0.01,0.0
1777319003.0014403,-22.51,0.04,0.8,0.012,0.141,9.798,-0.01,0.0,0.0
1777319003.0113354,-22.51,0.03,0.8,0.005,0.141,9.8,-0.01,0.0,0.0
1777319003.0213203,-22.51,0.03,0.8,0.01,0.135,9.785,0.0,0.0,-0.01
1777319003.0313387,-22.51,0.03,0.79,0.005,0.125,9.79,-0.01,0.0,-0.01
1777319003.0413306,-22.51,0.03,0.79,0.008,0.123,9.785,-0.01,0.0,-0.01
1777319003.0513272,-22.51,0.03,0.79,0.001,0.117,9.791,0.0,0.0,-0.01
1777319003.06133,-22.51,0.03,0.79,0.0,0.132,9.788,0.0,-0.01,0.0
1777319003.0713305,-22.51,0.03,0.79,-0.001,0.135,9.788,-0.01,0.0,0.0
1777319003.0813425,-22.51,0.03,0.79,-0.001,0.138,9.794,0.0,0.0,0.0
1777319003.091327,-22.51,0.03,0.79,0.007,0.15,9.788,-0.01,0.0,-0.01
1777319003.101324,-22.51,0.03,0.8,0.001,0.141,9.793,-0.01,-0.01,-0.01
1777319003.1113327,-22.51,0.03,0.79,0.014,0.134,9.79,0.0,-0.01,-0.01
1777319003.1213274,-22.51,0.04,0.79,0.01,0.132,9.792,-0.01,0.0,0.0
1777319003.1313314,-22.51,0.04,0.79,0.008,0.123,9.794,-0.01,-0.01,0.0
1777319003.1413221,-22.51,0.04,0.79,0.002,0.12,9.798,0.0,0.0,0.0
1777319003.1513283,-22.51,0.03,0.79,0.004,0.129,9.792,0.0,0.0,0.0
1777319003.1612976,-22.51,0.03,0.79,0.001,0.127,9.784,0.0,0.0,-0.01
1777319003.1712945,-22.51,0.03,0.79,0.001,0.121,9.787,0.0,-0.01,-0.01
1777319003.1812983,-22.51,0.04,0.79,0.006,0.126,9.791,-0.01,-0.01,-0.01
1777319003.1913426,-22.51,0.04,0.79,0.002,0.131,9.796,0.0,-0.01,0.0
1777319003.2013085,-22.51,0.04,0.79,0.005,0.147,9.798,-0.01,-0.01,0.0
1777319003.2113,-22.51,0.04,0.8,0.005,0.143,9.8,-0.01,-0.01,0.0
1777319003.2212777,-22.51,0.04,0.8,0.014,0.156,9.803,0.0,0.0,-0.01
1777319003.2313006,-22.51,0.04,0.8,0.007,0.147,9.805,-0.01,-0.01,-0.01
1777319003.2412746,-22.51,0.04,0.8,0.012,0.132,9.806,-0.01,-0.01,-0.01
1777319003.2513273,-22.51,0.04,0.79,0.013,0.139,9.802,0.0,0.0,-0.01
1777319003.2612963,-22.51,0.04,0.79,0.005,0.125,9.804,-0.01,0.0,0.0
1777319003.2712667,-22.51,0.04,0.79,0.008,0.127,9.793,0.0,0.0,0.0
1777319003.2812896,-22.51,0.04,0.79,-0.006,0.128,9.798,0.0,0.0,0.0
1777319003.291285,-22.51,0.03,0.79,0.001,0.135,9.796,-0.01,0.0,-0.01
1777319003.3012574,-22.51,0.03,0.79,-0.006,0.138,9.799,0.0,0.0,-0.01
1777319003.3112812,-22.51,0.03,0.79,0.0,0.14,9.799,0.0,0.0,-0.01
1777319003.3212779,-22.51,0.03,0.79,0.008,0.14,9.797,-0.01,-0.01,-0.01
1777319003.3312635,-22.51,0.04,0.8,0.017,0.143,9.798,-0.01,0.0,0.0
1777319003.3413897,-22.51,0.04,0.79,0.016,0.137,9.791,0.0,-0.01,0.0
1777319003.3512754,-22.51,0.04,0.79,0.01,0.138,9.79,-0.01,0.0,0.0
1777319003.3612666,-22.51,0.04,0.79,0.014,0.127,9.782,0.0,0.0,-0.01
1777319003.3705094,-22.51,0.04,0.79,0.004,0.126,9.79,-0.01,0.0,-0.01
1777319003.3812685,-22.51,0.04,0.79,0.0,0.114,9.793,0.0,0.0,0.0
1777319003.391249,-22.51,0.04,0.79,-0.002,0.113,9.79,0.0,-0.01,0.0
1777319003.4012856,-22.51,0.04,0.79,-0.011,0.12,9.794,0.0,0.0,0.0
1777319003.411266,-22.51,0.03,0.79,-0.006,0.129,9.787,0.0,-0.01,0.0
1777319003.4204512,-22.51,0.03,0.79,-0.006,0.134,9.791,0.0,0.0,-0.01
1777319003.4304285,-22.51,0.03,0.79,0.008,0.146,9.792,0.0,-0.01,-0.01
1777319003.4412737,-22.51,0.04,0.79,0.011,0.138,9.794,-0.01,0.0,-0.01
1777319003.451268,-22.51,0.04,0.79,0.02,0.132,9.793,0.0,-0.01,-0.01
1777319003.46046,-22.51,0.04,0.79,0.022,0.139,9.794,-0.01,0.0,0.0
1777319003.4712672,-22.51,0.04,0.79,0.019,0.133,9.799,0.0,0.0,0.0
1777319003.4805129,-22.51,0.04,0.79,0.002,0.123,9.8,0.0,0.0,-0.01
1777319003.490695,-22.51,0.04,0.79,-0.007,0.127,9.8,-0.01,0.0,-0.01
1777319003.5012524,-22.51,0.03,0.79,-0.007,0.121,9.787,0.0,0.0,-0.01
1777319003.5112567,-22.51,0.03,0.79,-0.014,0.122,9.791,0.0,0.0,-0.01
1777319003.5204089,-22.51,0.03,0.79,-0.008,0.138,9.792,0.0,0.0,0.0
1777319003.531255,-22.51,0.03,0.79,-0.01,0.138,9.797,0.0,0.0,0.0
1777319003.5404031,-22.51,0.03,0.79,-0.001,0.144,9.797,0.0,-0.01,0.0
1777319003.5504014,-22.51,0.03,0.79,0.004,0.154,9.79,-0.01,-0.01,0.0
1777319003.561245,-22.51,0.03,0.79,0.007,0.143,9.791,0.0,-0.01,0.0
1777319003.5704005,-22.51,0.03,0.79,0.008,0.139,9.791,-0.01,-0.01,0.0
1777319003.5804234,-22.51,0.04,0.79,0.008,0.145,9.796,-0.01,0.0,0.0
1777319003.5903995,-22.51,0.03,0.79,0.019,0.138,9.788,0.0,-0.01,0.0
1777319003.6004272,-22.51,0.04,0.79,0.008,0.132,9.791,0.0,0.0,-0.01
1777319003.6104026,-22.5,0.03,0.79,0.012,0.132,9.792,0.0,0.0,-0.01
1777319003.620432,-22.51,0.03,0.79,-0.008,0.107,9.797,-0.01,0.0,-0.01
1777319003.6304018,-22.51,0.03,0.79,-0.004,0.125,9.796,0.0,0.0,0.0
1777319003.6404045,-22.51,0.03,0.79,-0.017,0.125,9.798,0.0,0.0,0.0
1777319003.6504042,-22.51,0.03,0.79,-0.014,0.141,9.796,-0.01,-0.01,0.0
1777319003.6604476,-22.51,0.03,0.79,-0.01,0.159,9.786,0.0,0.0,0.0
1777319003.6704097,-22.51,0.03,0.8,0.001,0.159,9.791,0.0,-0.01,-0.01
1777319003.6803963,-22.51,0.03,0.8,0.016,0.154,9.782,-0.01,-0.01,-0.01
1777319003.6903703,-22.51,0.03,0.8,0.012,0.131,9.786,0.0,0.0,-0.01
1777319003.7003658,-22.51,0.03,0.79,0.022,0.139,9.78,0.0,0.0,-0.01
1777319003.7104046,-22.51,0.03,0.79,0.012,0.134,9.788,-0.01,-0.01,0.0
1777319003.7203634,-22.51,0.03,0.79,0.004,0.126,9.792,0.0,0.0,0.0
1777319003.7303584,-22.51,0.03,0.79,-0.002,0.128,9.796,-0.01,0.0,-0.01
1777319003.740378,-22.51,0.03,0.79,-0.011,0.121,9.79,0.0,0.0,-0.01
1777319003.7503881,-22.51,0.02,0.79,-0.011,0.127,9.788,0.0,0.0,-0.01
1777319003.7603881,-22.51,0.02,0.79,-0.019,0.122,9.793,0.0,0.0,-0.01
1777319003.7703598,-22.51,0.02,0.79,-0.011,0.131,9.793,-0.01,-0.01,0.0
1777319003.7803452,-22.51,0.02,0.79,-0.01,0.145,9.792,0.0,-0.01,0.0
1777319003.7903602,-22.51,0.02,0.8,0.007,0.165,9.785,-0.01,-0.01,0.0
1777319003.8003507,-22.51,0.03,0.8,0.001,0.152,9.79,0.0,-0.01,-0.01
1777319003.8103888,-22.51,0.03,0.8,0.016,0.153,9.787,-0.01,0.0,-0.01
1777319003.8203547,-22.51,0.03,0.8,0.012,0.153,9.785,0.0,0.0,-0.01
1777319003.8303747,-22.51,0.03,0.8,0.019,0.143,9.781,0.0,-0.01,0.0
1777319003.840367,-22.51,0.03,0.8,0.007,0.14,9.79,-0.01,0.0,0.0
1777319003.8505986,-22.51,0.03,0.8,0.005,0.126,9.792,-0.01,0.0,0.0
1777319003.8603873,-22.51,0.03,0.79,-0.005,0.133,9.792,0.0,0.0,-0.01
1777319003.8703825,-22.51,0.02,0.79,-0.014,0.116,9.796,0.0,-0.01,-0.01
1777319003.8803833,-22.51,0.02,0.79,-0.011,0.132,9.793,-0.01,0.0,-0.01
1777319003.890357,-22.51,0.03,0.79,-0.013,0.138,9.798,0.0,-0.01,-0.01
1777319003.9003549,-22.51,0.03,0.8,0.002,0.14,9.793,-0.01,-0.01,-0.01
1777319003.9103496,-22.51,0.03,0.8,0.001,0.143,9.797,0.0,-0.01,-0.01
1777319003.9203475,-22.51,0.03,0.8,0.011,0.146,9.799,0.0,-0.01,-0.01
1777319003.9303548,-22.51,0.03,0.8,0.013,0.141,9.802,-0.01,-0.01,-0.01
1777319003.9403787,-22.51,0.03,0.8,0.018,0.141,9.802,-0.01,-0.01,0.0
1777319003.95036,-22.51,0.03,0.8,0.014,0.125,9.8,-0.01,0.0,0.0
1777319003.9603462,-22.51,0.03,0.79,0.004,0.126,9.803,0.0,0.0,0.0
1777319003.9703736,-22.51,0.03,0.79,0.004,0.137,9.805,-0.01,0.0,0.0
1777319003.9803736,-22.51,0.02,0.79,-0.007,0.134,9.793,0.0,-0.01,-0.01
1777319003.9903462,-22.51,0.02,0.79,-0.011,0.139,9.79,0.0,0.0,-0.01
1777319004.0003686,-22.5,0.02,0.8,-0.01,0.133,9.796,-0.01,-0.01,-0.01
1777319004.0103636,-22.51,0.03,0.8,-0.004,0.139,9.797,0.0,-0.01,-0.01
1777319004.020335,-22.51,0.03,0.8,0.004,0.147,9.796,0.0,-0.01,0.0
1777319004.0303617,-22.51,0.03,0.8,0.004,0.148,9.796,-0.01,0.0,0.0
1777319004.0403335,-22.51,0.03,0.8,0.014,0.143,9.796,0.0,-0.01,0.0
1777319004.0503457,-22.51,0.03,0.8,0.019,0.139,9.798,-0.01,-0.01,-0.01
1777319004.0603297,-22.51,0.03,0.8,0.029,0.135,9.802,-0.01,0.0,-0.01
1777319004.0703235,-22.51,0.03,0.79,0.022,0.132,9.796,0.0,0.0,-0.01
1777319004.0803657,-22.51,0.03,0.79,0.006,0.119,9.8,-0.01,0.0,0.0
1777319004.0903304,-22.51,0.03,0.79,0.001,0.131,9.792,0.0,0.0,0.0
1777319004.1003518,-22.51,0.03,0.79,-0.011,0.131,9.796,0.0,0.0,0.0
1777319004.1103284,-22.51,0.02,0.79,-0.005,0.148,9.793,-0.01,-0.01,0.0
1777319004.1203344,-22.51,0.02,0.8,-0.01,0.147,9.798,-0.01,0.0,-0.01
1777319004.130355,-22.51,0.03,0.8,0.001,0.145,9.793,0.0,-0.01,-0.01
1777319004.1405804,-22.51,0.03,0.8,0.0,0.14,9.794,-0.01,-0.01,-0.01
1777319004.1503303,-22.51,0.03,0.8,0.004,0.14,9.799,-0.01,-0.01,-0.01
1777319004.160311,-22.51,0.03,0.79,0.002,0.132,9.8,0.0,0.0,0.0
1777319004.1703284,-22.51,0.03,0.79,0.005,0.131,9.8,-0.01,0.0,0.0
1777319004.1803346,-22.51,0.03,0.79,0.01,0.131,9.802,-0.01,0.0,0.0
1777319004.1903005,-22.51,0.03,0.79,0.004,0.128,9.802,0.0,0.0,-0.01
1777319004.2003343,-22.5,0.02,0.79,0.001,0.119,9.793,0.0,0.0,-0.01
1777319004.2103188,-22.5,0.02,0.79,-0.007,0.129,9.787,0.0,0.0,-0.01
1777319004.220337,-22.51,0.02,0.79,-0.01,0.12,9.792,0.0,0.0,0.0
1777319004.230339,-22.51,0.02,0.79,-0.007,0.137,9.787,0.0,-0.01,0.0
1777319004.240282,-22.51,0.02,0.79,-0.008,0.154,9.793,-0.01,0.0,0.0
1777319004.250329,-22.51,0.02,0.8,0.004,0.153,9.792,0.0,-0.01,0.0
1777319004.2603014,-22.51,0.02,0.8,0.002,0.146,9.793,0.0,0.0,-0.01
1777319004.270307,-22.5,0.02,0.79,0.006,0.144,9.791,-0.01,-0.01,-0.01
1777319004.280284,-22.5,0.02,0.79,0.006,0.128,9.794,0.0,0.0,-0.01
1777319004.2903197,-22.5,0.03,0.79,0.011,0.128,9.791,0.0,0.0,0.0
1777319004.3002882,-22.51,0.02,0.79,0.01,0.135,9.796,-0.01,0.0,0.0
1777319004.3103302,-22.51,0.02,0.79,0.002,0.134,9.796,0.0,0.0,0.0
1777319004.3202841,-22.5,0.02,0.79,0.0,0.137,9.788,0.0,0.0,-0.01
1777319004.3302715,-22.5,0.02,0.79,-0.008,0.133,9.792,-0.01,0.0,-0.01
1777319004.3403132,-22.5,0.02,0.79,-0.004,0.135,9.791,0.0,-0.01,-0.01
1777319004.3503222,-22.5,0.02,0.79,-0.008,0.133,9.796,-0.01,-0.01,-0.01
1777319004.3602977,-22.5,0.02,0.79,-0.008,0.137,9.799,0.0,-0.01,0.0
1777319004.3702838,-22.5,0.02,0.79,0.004,0.14,9.794,0.0,-0.01,0.0
1777319004.380266,-22.5,0.02,0.79,0.006,0.137,9.792,-0.01,-0.01,0.0
1777319004.3902674,-22.5,0.02,0.79,0.016,0.135,9.786,-0.01,-0.01,-0.01
1777319004.400313,-22.5,0.03,0.79,0.01,0.132,9.787,-0.01,0.0,-0.01
1777319004.4102836,-22.5,0.03,0.79,0.016,0.122,9.787,0.0,0.0,-0.01
1777319004.4202652,-22.5,0.02,0.79,0.011,0.126,9.786,-0.01,0.0,0.0
1777319004.4302828,-22.51,0.02,0.79,0.01,0.116,9.79,0.0,0.0,0.0
1777319004.440258,-22.51,0.02,0.79,0.005,0.121,9.794,-0.01,0.0,0.0
1777319004.4502673,-22.51,0.02,0.79,-0.001,0.135,9.798,0.0,0.0,0.0
1777319004.4602642,-22.51,0.02,0.79,0.012,0.132,9.794,-0.01,-0.01,-0.01
1777319004.4694567,-22.51,0.03,0.79,0.005,0.153,9.798,0.0,0.0,-0.01
1777319004.4794462,-22.51,0.03,0.79,0.02,0.134,9.793,0.0,-0.01,-0.01
1777319004.4894254,-22.51,0.03,0.8,0.019,0.143,9.794,-0.01,-0.01,0.0
1777319004.5002806,-22.51,0.03,0.79,0.025,0.145,9.797,-0.01,-0.01,0.0
1777319004.510249,-22.51,0.03,0.8,0.029,0.123,9.799,-0.01,0.0,0.0
1777319004.5202868,-22.51,0.04,0.79,0.02,0.132,9.79,0.0,0.0,0.0
1777319004.5302646,-22.51,0.04,0.79,0.018,0.135,9.793,-0.01,0.0,-0.01
1777319004.539448,-22.51,0.03,0.79,0.002,0.133,9.796,0.0,0.0,-0.01
1777319004.549435,-22.5,0.03,0.79,-0.001,0.129,9.786,0.0,0.0,-0.01
1777319004.5602846,-22.5,0.03,0.79,-0.012,0.14,9.792,-0.01,0.0,-0.01
1777319004.5702667,-22.5,0.03,0.8,-0.013,0.135,9.784,0.0,-0.01,-0.01
1777319004.5802677,-22.5,0.03,0.79,-0.012,0.146,9.788,0.0,-0.01,-0.01
1777319004.5902505,-22.5,0.03,0.79,-0.007,0.146,9.794,-0.01,-0.01,0.0
1777319004.5994272,-22.5,0.03,0.8,-0.001,0.137,9.793,-0.01,0.0,0.0
1777319004.609426,-22.5,0.03,0.79,0.001,0.143,9.796,0.0,-0.01,-0.01
1777319004.61943,-22.5,0.03,0.79,0.007,0.143,9.794,-0.01,0.0,-0.01
1777319004.6295888,-22.5,0.03,0.79,0.01,0.134,9.798,0.0,0.0,-0.01
1777319004.6394074,-22.5,0.03,0.79,0.011,0.129,9.8,0.0,0.0,-0.01
1777319004.6494088,-22.5,0.03,0.79,0.004,0.145,9.803,-0.01,0.0,0.0
1777319004.6594186,-22.5,0.02,0.79,0.0,0.122,9.797,0.0,-0.01,-0.01
1777319004.6694212,-22.5,0.03,0.79,-0.012,0.119,9.794,-0.01,0.0,0.0
1777319004.6794345,-22.51,0.02,0.79,-0.016,0.141,9.794,0.0,-0.01,0.0
1777319004.6894763,-22.51,0.02,0.79,-0.006,0.141,9.792,0.0,-0.01,0.0
1777319004.6993763,-22.5,0.02,0.8,-0.011,0.152,9.797,0.0,-0.01,-0.01
1777319004.7093718,-22.5,0.02,0.8,0.002,0.165,9.791,-0.01,-0.01,-0.01
1777319004.719388,-22.5,0.03,0.8,0.002,0.151,9.791,0.0,-0.01,-0.01
1777319004.7294118,-22.5,0.03,0.8,0.014,0.144,9.792,-0.01,-0.01,-0.01
1777319004.7393918,-22.5,0.03,0.8,0.01,0.139,9.796,-0.01,0.0,0.0
1777319004.7493894,-22.5,0.03,0.8,0.011,0.141,9.79,0.0,0.0,0.0
1777319004.7593799,-22.5,0.03,0.8,0.011,0.132,9.787,0.0,0.0,0.0
1777319004.7694006,-22.5,0.03,0.8,0.001,0.131,9.788,0.0,0.0,0.0
1777319004.779377,-22.5,0.02,0.8,-0.001,0.135,9.785,0.0,0.0,-0.01
1777319004.7893963,-22.5,0.02,0.8,-0.006,0.128,9.791,0.0,0.0,-0.01
1777319004.7994127,-22.5,0.02,0.8,-0.006,0.127,9.785,0.0,0.0,-0.01
1777319004.8093522,-22.5,0.02,0.8,0.0,0.134,9.785,0.0,-0.01,0.0
1777319004.8193846,-22.51,0.02,0.8,-0.002,0.144,9.787,0.0,-0.01,0.0
1777319004.8293579,-22.51,0.02,0.8,0.005,0.157,9.788,-0.01,-0.01,0.0
1777319004.839356,-22.51,0.03,0.81,0.001,0.162,9.787,-0.01,-0.01,0.0
1777319004.8493328,-22.5,0.03,0.81,0.018,0.152,9.786,0.0,-0.01,-0.01
1777319004.8593445,-22.5,0.03,0.8,0.019,0.139,9.791,-0.01,-0.01,-0.01
1777319004.8695157,-22.5,0.03,0.8,0.023,0.127,9.791,-0.01,0.0,-0.01
1777319004.879635,-22.5,0.03,0.8,0.014,0.123,9.784,0.0,0.0,-0.01
1777319004.8893805,-22.5,0.03,0.8,0.006,0.132,9.791,0.0,0.0,0.0
1777319004.899368,-22.51,0.03,0.8,-0.001,0.132,9.792,0.0,0.0,0.0
1777319004.9093714,-22.51,0.02,0.8,-0.008,0.137,9.791,0.0,0.0,0.0
1777319004.919368,-22.5,0.02,0.8,-0.014,0.138,9.785,0.0,0.0,-0.01
1777319004.9293385,-22.5,0.02,0.8,-0.016,0.135,9.787,0.0,0.0,-0.01
1777319004.9393544,-22.5,0.02,0.8,-0.004,0.138,9.782,0.0,-0.01,-0.01
1777319004.9493241,-22.5,0.02,0.8,0.007,0.137,9.79,-0.01,0.0,-0.01
1777319004.9595766,-22.5,0.02,0.8,0.016,0.15,9.791,-0.01,0.0,-0.01
1777319004.9693317,-22.5,0.02,0.8,0.022,0.137,9.785,0.0,0.0,-0.01
1777319004.9793363,-22.5,0.03,0.8,0.018,0.132,9.78,0.0,0.0,-0.01
1777319004.9893627,-22.5,0.02,0.8,0.01,0.126,9.781,-0.01,0.0,-0.01
1777319004.999354,-22.5,0.02,0.8,0.011,0.104,9.784,0.0,0.0,0.0
1777319005.0093594,-22.5,0.02,0.79,0.0,0.115,9.79,0.0,0.0,0.0
1777319005.0193253,-22.5,0.02,0.8,-0.011,0.128,9.794,0.0,0.0,0.0
1777319005.0293715,-22.5,0.02,0.8,-0.007,0.132,9.791,0.0,0.0,-0.01
1777319005.0393722,-22.5,0.02,0.8,-0.008,0.147,9.796,-0.01,-0.01,-0.01
1777319005.0493474,-22.5,0.02,0.8,0.005,0.144,9.78,0.0,-0.01,-0.01
1777319005.0593693,-22.5,0.02,0.8,0.012,0.14,9.788,-0.01,-0.01,-0.01
1777319005.0693252,-22.5,0.02,0.8,0.018,0.146,9.788,-0.01,-0.01,0.0
1777319005.0793734,-22.5,0.02,0.8,0.014,0.134,9.794,-0.01,0.0,0.0
1777319005.089323,-22.51,0.03,0.8,0.014,0.134,9.798,0.0,0.0,0.0
1777319005.0993667,-22.5,0.02,0.8,0.019,0.132,9.798,-0.01,0.0,0.0
1777319005.1093416,-22.5,0.03,0.8,0.006,0.128,9.787,0.0,0.0,-0.01
1777319005.1193416,-22.5,0.02,0.8,0.005,0.123,9.775,0.0,0.0,-0.01
1777319005.1293695,-22.5,0.02,0.8,-0.007,0.121,9.784,-0.01,0.0,-0.01
1777319005.1393583,-22.5,0.02,0.8,-0.004,0.119,9.784,0.0,-0.01,0.0
1777319005.1493413,-22.51,0.02,0.79,-0.005,0.137,9.786,0.0,-0.01,0.0
1777319005.1593268,-22.51,0.02,0.8,0.0,0.144,9.792,-0.01,-0.01,0.0
1777319005.1693454,-22.51,0.02,0.8,0.002,0.148,9.791,0.0,-0.01,0.0
1777319005.1793373,-22.51,0.03,0.8,0.012,0.139,9.792,0.0,0.0,-0.01
1777319005.1893375,-22.5,0.03,0.8,0.02,0.16,9.796,-0.01,-0.01,-0.01
1777319005.199337,-22.5,0.03,0.8,0.023,0.126,9.785,0.0,0.0,-0.01
1777319005.2093372,-22.51,0.03,0.8,0.025,0.132,9.784,-0.01,0.0,0.0
1777319005.2193484,-22.51,0.03,0.8,0.013,0.145,9.791,-0.01,0.0,0.0
1777319005.229357,-22.51,0.03,0.8,0.008,0.122,9.793,0.0,-0.01,0.0
1777319005.2393398,-22.51,0.03,0.8,-0.005,0.137,9.794,0.0,0.0,-0.01
1777319005.2497578,-22.51,0.02,0.8,-0.012,0.127,9.79,0.0,0.0,-0.01
1777319005.2593014,-22.51,0.02,0.8,-0.016,0.123,9.788,0.0,0.0,-0.01
1777319005.269304,-22.51,0.02,0.8,-0.01,0.144,9.793,0.0,-0.01,-0.01
1777319005.2793374,-22.51,0.03,0.81,-0.004,0.144,9.794,-0.01,-0.01,0.0
1777319005.289336,-22.51,0.03,0.8,0.0,0.14,9.796,0.0,-0.01,0.0
1777319005.2998154,-22.51,0.03,0.81,0.001,0.139,9.782,-0.01,0.0,0.0
1777319005.3100543,-22.51,0.03,0.81,0.011,0.146,9.775,0.0,-0.01,0.0
1777319005.319375,-22.51,0.03,0.8,0.017,0.137,9.784,0.0,0.0,-0.01
1777319005.3293421,-22.51,0.03,0.81,0.019,0.137,9.79,-0.01,0.0,-0.01
1777319005.339308,-22.5,0.03,0.8,0.023,0.145,9.787,0.0,0.0,-0.01
1777319005.3493037,-22.5,0.03,0.81,0.013,0.135,9.788,-0.01,0.0,-0.01
1777319005.3593419,-22.5,0.03,0.8,0.008,0.134,9.786,0.0,0.0,-0.01
1777319005.369338,-22.5,0.03,0.8,0.0,0.128,9.792,-0.01,0.0,-0.01
1777319005.3793075,-22.5,0.03,0.8,-0.006,0.133,9.79,0.0,-0.01,0.0
1777319005.389299,-22.5,0.03,0.8,-0.007,0.14,9.782,-0.01,-0.01,0.0
1777319005.399363,-22.5,0.03,0.8,-0.013,0.14,9.787,0.0,-0.01,0.0
1777319005.4093058,-22.5,0.03,0.8,0.0,0.138,9.786,0.0,-0.01,-0.01
1777319005.4192984,-22.5,0.03,0.8,0.0,0.122,9.79,0.0,-0.01,0.0
1777319005.4293582,-22.5,0.03,0.8,0.017,0.133,9.794,0.0,-0.01,-0.01
1777319005.4393096,-22.5,0.03,0.8,0.017,0.129,9.799,0.0,-0.01,0.0
1777319005.4494271,-22.5,0.03,0.8,0.019,0.133,9.791,0.0,0.0,0.0
1777319005.4596508,-22.5,0.03,0.8,0.018,0.133,9.793,0.0,0.0,-0.01
1777319005.4692926,-22.5,0.03,0.81,0.013,0.137,9.786,0.0,0.0,0.0
1777319005.4795213,-22.51,0.03,0.8,0.004,0.131,9.779,0.0,0.0,-0.01
1777319005.4893038,-22.51,0.03,0.8,-0.004,0.131,9.784,-0.01,-0.01,0.0
1777319005.4993308,-22.51,0.03,0.8,-0.007,0.144,9.79,-0.01,-0.01,0.0
1777319005.5093234,-22.51,0.03,0.81,-0.002,0.144,9.786,0.0,-0.01,-0.01
1777319005.5192978,-22.5,0.03,0.81,-0.004,0.144,9.793,-0.01,-0.01,-0.01
1777319005.528943,-22.5,0.03,0.81,0.01,0.144,9.791,-0.01,-0.01,-0.01
1777319005.5393262,-22.5,0.04,0.81,0.012,0.139,9.788,0.0,-0.01,-0.01
1777319005.5492816,-22.51,0.04,0.81,0.02,0.137,9.794,-0.01,-0.01,0.0
1777319005.5593,-22.51,0.04,0.81,0.02,0.133,9.798,-0.01,-0.01,0.0
1777319005.5683994,-22.51,0.04,0.81,0.017,0.134,9.802,0.0,0.0,0.0
1777319005.5783927,-22.51,0.04,0.81,0.013,0.126,9.794,-0.01,-0.01,-0.01
1777319005.5892644,-22.51,0.04,0.81,0.002,0.129,9.794,0.0,0.0,-0.01
1777319005.599262,-22.51,0.04,0.8,-0.001,0.115,9.794,0.0,0.0,-0.01
1777319005.608399,-22.51,0.04,0.8,-0.01,0.116,9.792,-0.01,0.0,0.0
1777319005.6193037,-22.51,0.04,0.8,-0.016,0.133,9.794,0.0,-0.01,0.0
1777319005.6292703,-22.51,0.04,0.8,-0.002,0.133,9.793,0.0,-0.01,0.0
1777319005.6392806,-22.51,0.04,0.81,0.004,0.14,9.798,-0.01,-0.01,-0.01
1777319005.6484733,-22.51,0.04,0.81,0.014,0.14,9.79,-0.01,-0.01,-0.01
1777319005.658411,-22.51,0.05,0.8,0.013,0.143,9.786,0.0,-0.01,-0.01
1777319005.668437,-22.51,0.05,0.8,0.013,0.138,9.792,0.0,-0.01,-0.01
1777319005.6784081,-22.51,0.05,0.8,0.012,0.137,9.797,-0.01,0.0,0.0
1777319005.6884122,-22.51,0.05,0.8,0.016,0.145,9.798,0.0,0.0,0.0
1777319005.6984198,-22.5,0.04,0.81,0.005,0.138,9.798,-0.01,0.0,-0.01
1777319005.7084138,-22.5,0.04,0.81,0.001,0.133,9.792,0.0,0.0,-0.01
1777319005.7184246,-22.5,0.04,0.8,0.0,0.132,9.787,0.0,0.0,-0.01
1777319005.728429,-22.5,0.04,0.81,-0.005,0.127,9.79,-0.01,-0.01,0.0
1777319005.738414,-22.51,0.04,0.8,-0.002,0.146,9.787,0.0,-0.01,0.0
1777319005.7484164,-22.51,0.04,0.8,-0.008,0.126,9.793,0.0,-0.01,0.0
1777319005.7584455,-22.51,0.04,0.81,0.006,0.144,9.788,-0.01,-0.01,0.0
1777319005.768392,-22.51,0.05,0.8,0.005,0.145,9.791,0.0,-0.01,0.0
1777319005.778395,-22.51,0.05,0.8,0.017,0.132,9.794,-0.01,-0.01,0.0
1777319005.788426,-22.51,0.05,0.8,0.014,0.133,9.799,-0.01,-0.01,-0.01
1777319005.7984202,-22.51,0.05,0.8,0.023,0.132,9.796,0.0,0.0,-0.01
1777319005.8083994,-22.51,0.05,0.8,0.023,0.138,9.797,-0.01,-0.01,-0.01
1777319005.8184125,-22.51,0.05,0.8,0.018,0.138,9.796,0.0,0.0,-0.01
1777319005.8283966,-22.51,0.05,0.8,0.008,0.133,9.79,0.0,0.0,0.0
1777319005.8383672,-22.51,0.05,0.8,0.002,0.133,9.791,-0.01,0.0,0.0
1777319005.8483846,-22.51,0.05,0.8,-0.002,0.131,9.792,-0.01,0.0,-0.01
1777319005.858399,-22.51,0.04,0.8,-0.013,0.129,9.788,0.0,0.0,-0.01
1777319005.868422,-22.51,0.04,0.8,-0.008,0.117,9.792,-0.01,-0.01,0.0
1777319005.8784087,-22.51,0.04,0.8,0.001,0.132,9.794,-0.01,-0.01,-0.01
1777319005.8883903,-22.51,0.04,0.8,0.0,0.119,9.794,0.0,0.0,-0.01
1777319005.8983724,-22.51,0.04,0.8,0.008,0.131,9.793,-0.01,-0.01,0.0
1777319005.908404,-22.51,0.04,0.8,0.001,0.131,9.793,0.0,-0.01,0.0
1777319005.9183934,-22.51,0.04,0.8,0.016,0.135,9.79,-0.01,0.0,0.0
1777319005.9283667,-22.51,0.04,0.8,0.006,0.143,9.794,-0.01,0.0,0.0
1777319005.9383633,-22.51,0.04,0.8,0.012,0.143,9.787,0.0,0.0,-0.01
1777319005.9483805,-22.51,0.04,0.8,0.001,0.137,9.793,-0.01,0.0,-0.01
1777319005.9583664,-22.51,0.04,0.8,0.001,0.141,9.797,-0.01,-0.01,-0.01
1777319005.9684165,-22.51,0.04,0.8,-0.002,0.133,9.793,0.0,0.0,-0.01
1777319005.9783962,-22.51,0.04,0.8,-0.007,0.127,9.794,0.0,-0.01,0.0
1777319005.9883752,-22.51,0.04,0.8,-0.01,0.135,9.792,-0.01,0.0,0.0
1777319005.9983437,-22.51,0.04,0.8,-0.01,0.131,9.797,0.0,-0.01,0.0
1777319006.008365,-22.51,0.04,0.8,0.004,0.145,9.791,0.0,0.0,-0.01
1777319006.0183725,-22.51,0.04,0.8,0.001,0.138,9.796,-0.01,-0.01,-0.01
1777319006.0283663,-22.51,0.04,0.8,0.012,0.137,9.786,0.0,0.0,-0.01
1777319006.0383613,-22.51,0.04,0.8,0.008,0.141,9.791,-0.01,0.0,0.0
1777319006.0483637,-22.51,0.04,0.8,0.005,0.144,9.792,-0.01,-0.01,0.0
1777319006.0583634,-22.51,0.05,0.8,0.002,0.138,9.788,0.0,0.0,0.0
1777319006.068341,-22.51,0.04,0.8,-0.002,0.138,9.788,0.0,-0.01,0.0
1777319006.0783975,-22.51,0.04,0.8,0.0,0.153,9.785,-0.01,0.0,-0.01
1777319006.0883815,-22.51,0.04,0.8,-0.004,0.12,9.791,0.0,-0.01,-0.01
1777319006.0983427,-22.51,0.04,0.8,0.005,0.138,9.788,0.0,0.0,-0.01
1777319006.1083472,-22.51,0.04,0.8,0.0,0.146,9.788,0.0,-0.01,-0.01
1777319006.1183705,-22.51,0.05,0.8,0.01,0.145,9.791,-0.01,0.0,0.0
1777319006.128351,-22.51,0.05,0.8,0.01,0.156,9.796,0.0,-0.01,0.0
1777319006.138331,-22.51,0.05,0.8,0.014,0.159,9.797,-0.01,0.0,0.0
1777319006.1483333,-22.51,0.05,0.8,0.012,0.143,9.798,-0.01,0.0,-0.01
1777319006.1584566,-22.51,0.05,0.8,0.011,0.144,9.792,-0.01,-0.01,-0.01
1777319006.168355,-22.51,0.05,0.8,0.005,0.131,9.791,0.0,0.0,-0.01
1777319006.1783721,-22.51,0.04,0.8,0.002,0.139,9.786,0.0,-0.01,-0.01
1777319006.1883628,-22.51,0.05,0.8,-0.005,0.133,9.792,-0.01,0.0,0.0
1777319006.1983407,-22.51,0.04,0.81,-0.001,0.133,9.788,0.0,-0.01,-0.01
1777319006.2083936,-22.51,0.05,0.8,-0.007,0.128,9.791,0.0,0.0,0.0
1777319006.2183702,-22.51,0.04,0.81,0.0,0.131,9.793,-0.01,-0.01,0.0
1777319006.2283459,-22.51,0.04,0.81,0.005,0.123,9.793,0.0,0.0,0.0
1777319006.2383394,-22.51,0.05,0.8,0.006,0.122,9.787,0.0,0.0,0.0
1777319006.2483382,-22.51,0.05,0.8,0.01,0.131,9.784,0.0,-0.01,0.0
1777319006.258367,-22.51,0.05,0.8,0.01,0.132,9.786,-0.01,-0.01,0.0
1777319006.2683713,-22.51,0.05,0.8,0.008,0.138,9.792,-0.01,-0.01,-0.01
1777319006.2783432,-22.51,0.05,0.8,0.01,0.141,9.794,0.0,0.0,-0.01
1777319006.2883315,-22.51,0.05,0.8,0.0,0.131,9.798,-0.01,-0.01,-0.01
1777319006.298334,-22.51,0.04,0.8,0.005,0.143,9.794,-0.01,0.0,-0.01
1777319006.3083422,-22.51,0.04,0.81,-0.001,0.122,9.794,-0.01,0.0,0.0
1777319006.3184555,-22.51,0.04,0.8,-0.001,0.134,9.792,0.0,0.0,0.0
1777319006.3283405,-22.51,0.04,0.8,-0.002,0.145,9.796,-0.01,0.0,0.0
1777319006.33834,-22.51,0.04,0.81,-0.006,0.137,9.791,-0.01,-0.01,-0.01
1777319006.348313,-22.51,0.04,0.81,-0.004,0.144,9.791,0.0,0.0,-0.01
1777319006.358332,-22.51,0.04,0.81,0.001,0.135,9.784,-0.01,-0.01,-0.01
1777319006.368552,-22.51,0.05,0.8,0.002,0.125,9.757,0.0,0.0,-0.01
1777319006.3783307,-22.51,0.04,0.8,-0.047,0.116,9.753,0.0,-0.01,0.0
1777319006.3883216,-22.52,0.04,0.8,-0.086,0.099,9.741,-0.01,-0.01,0.0
1777319006.3983037,-22.54,0.04,0.8,-0.115,0.108,9.751,0.0,-0.01,0.0
1777319006.4083028,-22.54,0.05,0.79,-0.098,0.122,9.767,-0.01,-0.01,0.0
1777319006.418286,-22.54,0.06,0.79,-0.046,0.147,9.776,-0.01,-0.01,0.0
1777319006.4283328,-22.54,0.07,0.8,0.008,0.166,9.786,0.0,-0.01,0.0
1777319006.4383242,-22.54,0.09,0.8,0.084,0.184,9.792,-0.01,-0.01,-0.01
1777319006.4483213,-22.54,0.1,0.8,0.111,0.192,9.797,-0.01,-0.01,-0.01
1777319006.458311,-22.54,0.1,0.81,0.137,0.189,9.8,-0.01,0.0,-0.01
1777319006.4692729,-22.54,0.1,0.81,0.115,0.19,9.803,-0.01,0.0,0.0
1777319006.5192964,-22.54,0.1,0.81,0.072,0.176,9.802,-0.01,0.0,-0.01
1777319006.5206556,-22.53,0.08,0.8,0.008,0.144,9.793,0.0,0.0,-0.01
1777319006.5220125,-22.53,0.07,0.8,-0.048,0.099,9.78,0.0,0.0,-0.01
1777319006.5234008,-22.53,0.05,0.8,-0.095,0.074,9.764,0.0,0.0,-0.01
1777319006.5247526,-22.53,0.05,0.79,-0.121,0.074,9.763,0.0,-0.01,0.0
1777319006.5282958,-22.54,0.04,0.79,-0.113,0.087,9.754,0.0,-0.01,0.0
1777319006.5417082,-22.54,0.05,0.8,-0.097,0.114,9.768,0.0,-0.01,0.0
1777319006.548366,-22.54,0.06,0.8,-0.044,0.131,9.779,0.0,-0.01,0.0
1777319006.5877216,-22.54,0.07,0.8,0.007,0.16,9.787,0.0,-0.01,0.0
1777319006.5897965,-22.55,0.08,0.8,0.062,0.169,9.793,-0.01,-0.01,0.0
1777319006.598624,-22.55,0.09,0.81,0.087,0.177,9.798,-0.01,-0.01,0.0
1777319006.6072028,-22.55,0.1,0.81,0.091,0.188,9.802,0.0,0.0,0.0
1777319006.621969,-22.54,0.09,0.81,0.072,0.186,9.804,-0.01,0.0,-0.01
1777319006.6240704,-22.54,0.08,0.81,0.038,0.172,9.797,-0.01,0.0,-0.01
1777319006.625456,-22.53,0.07,0.81,0.0,0.138,9.78,0.0,0.0,-0.01
1777319006.628276,-22.52,0.06,0.8,-0.046,0.111,9.776,-0.01,0.0,-0.01
1777319006.6388907,-22.52,0.04,0.8,-0.073,0.085,9.756,0.0,0.0,-0.01
1777319006.648923,-22.53,0.04,0.8,-0.098,0.081,9.749,0.0,0.0,0.0
1777319006.6582792,-22.54,0.04,0.79,-0.103,0.099,9.762,0.0,-0.01,0.0
1777319006.667455,-22.54,0.04,0.8,-0.078,0.119,9.768,0.0,-0.01,0.0
1777319006.6783702,-22.54,0.05,0.8,-0.043,0.138,9.778,0.0,-0.01,0.0
1777319006.6882832,-22.54,0.06,0.8,0.005,0.147,9.786,0.0,-0.01,-0.01
1777319006.698278,-22.54,0.07,0.81,0.042,0.153,9.792,0.0,-0.01,-0.01
1777319006.7074392,-22.54,0.07,0.81,0.071,0.162,9.797,0.0,-0.01,0.0
1777319006.7182722,-22.54,0.07,0.81,0.069,0.168,9.8,-0.01,0.0,0.0
1777319006.7274432,-22.55,0.08,0.81,0.057,0.157,9.803,0.0,0.0,0.0
1777319006.7382812,-22.54,0.07,0.81,0.026,0.147,9.804,0.0,0.0,0.0
1777319006.7474954,-22.54,0.06,0.81,-0.013,0.137,9.8,-0.01,0.0,-0.01
1777319006.757456,-22.54,0.05,0.8,-0.044,0.129,9.788,-0.01,0.0,-0.01
1777319006.76744,-22.54,0.05,0.8,-0.057,0.121,9.773,-0.01,0.0,-0.01
1777319006.7778153,-22.54,0.04,0.81,-0.068,0.107,9.78,-0.01,-0.01,-0.01
1777319006.787805,-22.54,0.04,0.8,-0.055,0.107,9.782,0.0,-0.01,0.0
1777319006.79744,-22.54,0.04,0.8,-0.043,0.114,9.788,-0.01,-0.01,0.0
1777319006.8074536,-22.54,0.05,0.8,-0.008,0.128,9.79,-0.01,-0.01,0.0
1777319006.8179092,-22.55,0.05,0.8,0.016,0.125,9.792,0.0,-0.01,0.0
1777319006.8274536,-22.54,0.06,0.8,0.041,0.141,9.794,0.0,-0.01,0.0
1777319006.8374052,-22.54,0.06,0.8,0.056,0.146,9.799,0.0,0.0,-0.01
1777319006.8474667,-22.54,0.06,0.81,0.043,0.148,9.802,0.0,0.0,-0.01
1777319006.857456,-22.54,0.06,0.81,0.036,0.153,9.8,0.0,0.0,-0.01
1777319006.8674245,-22.54,0.05,0.81,0.007,0.156,9.798,0.0,0.0,-0.01
1777319006.8777034,-22.54,0.05,0.81,-0.004,0.159,9.798,-0.01,0.0,-0.01
1777319006.8874292,-22.54,0.05,0.8,-0.031,0.15,9.799,-0.01,0.0,-0.01
1777319006.8974204,-22.54,0.04,0.81,-0.037,0.139,9.802,-0.01,0.0,-0.01
1777319006.907433,-22.54,0.04,0.81,-0.036,0.12,9.793,-0.01,-0.01,-0.01
1777319006.9174736,-22.54,0.04,0.8,-0.035,0.111,9.798,-0.01,-0.01,0.0
1777319006.9274065,-22.54,0.04,0.8,-0.023,0.092,9.8,-0.01,-0.01,0.0
1777319006.9374118,-22.55,0.04,0.8,-0.012,0.097,9.796,0.0,-0.01,0.0
1777319006.9473813,-22.55,0.05,0.8,0.002,0.122,9.799,0.0,-0.01,0.0
1777319006.9573436,-22.55,0.05,0.8,0.012,0.144,9.803,0.0,-0.01,0.0
1777319006.96741,-22.55,0.05,0.81,0.016,0.159,9.804,0.0,0.0,-0.01
1777319006.977342,-22.54,0.05,0.81,0.024,0.174,9.799,0.0,0.0,-0.01
1777319006.9873393,-22.54,0.05,0.81,0.013,0.186,9.802,-0.01,0.0,-0.01
1777319006.9973881,-22.54,0.04,0.81,0.01,0.17,9.796,-0.01,0.0,-0.01
1777319007.0073843,-22.54,0.04,0.81,-0.007,0.166,9.792,-0.01,0.0,-0.01
1777319007.0173416,-22.54,0.03,0.81,-0.022,0.141,9.792,-0.01,0.0,-0.01
1777319007.027353,-22.54,0.03,0.8,-0.031,0.115,9.786,-0.01,0.0,-0.01
1777319007.0373335,-22.54,0.03,0.79,-0.044,0.087,9.788,-0.01,0.0,-0.01
1777319007.0473328,-22.54,0.03,0.79,-0.034,0.075,9.776,-0.01,-0.01,0.0
1777319007.0573106,-22.54,0.03,0.79,-0.022,0.072,9.781,0.0,-0.01,0.0
1777319007.067307,-22.54,0.04,0.79,-0.008,0.09,9.787,0.0,-0.01,0.0
1777319007.077325,-22.54,0.04,0.8,0.002,0.109,9.793,0.0,-0.01,0.0
1777319007.0873175,-22.55,0.04,0.8,0.014,0.139,9.797,0.0,-0.01,0.0
1777319007.0972908,-22.54,0.05,0.8,0.02,0.181,9.8,0.0,-0.01,0.0
1777319007.1074476,-22.54,0.04,0.81,0.023,0.189,9.799,-0.01,-0.01,-0.01
1777319007.1173153,-22.54,0.04,0.81,0.018,0.196,9.802,0.0,0.0,-0.01
1777319007.1273108,-22.54,0.04,0.81,0.008,0.189,9.804,-0.01,0.0,-0.01
1777319007.137298,-22.54,0.03,0.81,-0.001,0.164,9.805,-0.01,0.0,-0.01
1777319007.1473615,-22.54,0.03,0.81,-0.014,0.132,9.796,-0.01,0.0,-0.01
1777319007.1575234,-22.54,0.03,0.79,-0.024,0.099,9.794,-0.01,0.0,-0.01
1777319007.1673317,-22.54,0.03,0.79,-0.031,0.077,9.788,-0.01,0.0,0.0
1777319007.1773117,-22.54,0.03,0.79,-0.04,0.067,9.794,0.0,-0.01,0.0
1777319007.1873064,-22.54,0.03,0.79,-0.032,0.079,9.797,0.0,-0.01,0.0
1777319007.1973171,-22.54,0.03,0.79,-0.028,0.109,9.796,0.0,-0.01,0.0
1777319007.2073245,-22.54,0.03,0.8,-0.007,0.135,9.797,0.0,-0.01,0.0
1777319007.217335,-22.54,0.03,0.81,-0.001,0.165,9.8,0.0,-0.01,-0.01
1777319007.227319,-22.54,0.03,0.81,0.017,0.188,9.802,0.0,-0.01,-0.01
1777319007.2373524,-22.54,0.03,0.81,0.017,0.2,9.804,0.0,0.0,-0.01
1777319007.247331,-22.54,0.03,0.81,0.023,0.205,9.804,-0.01,0.0,-0.01
1777319007.257302,-22.54,0.03,0.81,0.013,0.195,9.805,-0.01,0.0,-0.01
1777319007.2673104,-22.54,0.03,0.81,0.005,0.165,9.796,-0.01,0.0,-0.01
1777319007.2773154,-22.53,0.03,0.81,-0.006,0.131,9.784,-0.01,0.0,-0.01
1777319007.2873476,-22.53,0.02,0.8,-0.023,0.084,9.787,-0.01,0.0,-0.01
1777319007.297309,-22.53,0.01,0.79,-0.031,0.059,9.776,0.0,0.0,-0.01
1777319007.3073344,-22.54,0.01,0.79,-0.044,0.059,9.778,0.0,0.0,0.0
1777319007.317336,-22.54,0.01,0.79,-0.042,0.075,9.778,0.0,-0.01,0.0
1777319007.3273299,-22.55,0.02,0.8,-0.034,0.108,9.785,0.0,-0.01,0.0
1777319007.3373234,-22.55,0.02,0.8,-0.017,0.16,9.79,0.0,-0.01,0.0
1777319007.347434,-22.55,0.03,0.81,0.007,0.194,9.794,0.0,-0.01,0.0
1777319007.3574224,-22.54,0.03,0.81,0.018,0.205,9.798,0.0,-0.01,-0.01
1777319007.367328,-22.54,0.04,0.82,0.038,0.208,9.793,-0.01,0.0,-0.01
1777319007.3773298,-22.54,0.04,0.82,0.042,0.19,9.798,-0.01,0.0,-0.01
1777319007.3873448,-22.54,0.03,0.81,0.041,0.188,9.797,-0.01,0.0,0.0
1777319007.3973238,-22.54,0.03,0.81,0.029,0.168,9.8,-0.01,0.0,-0.01
1777319007.4073813,-22.54,0.03,0.81,0.008,0.134,9.797,-0.01,0.0,-0.01
1777319007.417319,-22.53,0.02,0.81,-0.014,0.095,9.792,-0.01,0.0,-0.01
1777319007.4273415,-22.53,0.02,0.8,-0.031,0.073,9.78,0.0,0.0,-0.01
1777319007.4373486,-22.54,0.02,0.8,-0.042,0.066,9.772,0.0,0.0,0.0
1777319007.4473279,-22.54,0.02,0.8,-0.044,0.087,9.776,0.0,-0.01,0.0
1777319007.457339,-22.54,0.02,0.8,-0.031,0.115,9.78,0.0,-0.01,0.0
1777319007.4673522,-22.54,0.02,0.8,-0.018,0.154,9.787,0.0,-0.01,0.0
1777319007.4773357,-22.54,0.03,0.81,0.006,0.169,9.791,0.0,-0.01,0.0
1777319007.4876258,-22.55,0.03,0.81,0.023,0.169,9.796,0.0,-0.01,0.0
1777319007.4973283,-22.55,0.03,0.81,0.047,0.183,9.799,0.0,-0.01,0.0
1777319007.507302,-22.55,0.04,0.82,0.047,0.175,9.803,-0.01,0.0,0.0
1777319007.5173192,-22.55,0.04,0.82,0.038,0.18,9.804,-0.01,0.0,0.0
1777319007.5274005,-22.54,0.03,0.81,0.029,0.164,9.796,-0.01,0.0,-0.01
1777319007.5372922,-22.54,0.03,0.81,0.011,0.135,9.784,-0.01,0.0,-0.01
1777319007.547293,-22.54,0.02,0.81,-0.008,0.101,9.778,-0.01,0.0,-0.01
1777319007.5572734,-22.54,0.02,0.8,-0.025,0.081,9.773,0.0,0.0,-0.01
1777319007.5672984,-22.54,0.02,0.8,-0.038,0.079,9.766,0.0,0.0,0.0
1777319007.5772955,-22.54,0.02,0.8,-0.048,0.096,9.768,0.0,-0.01,0.0
1777319007.5872686,-22.55,0.02,0.8,-0.041,0.103,9.768,0.0,-0.01,0.0
1777319007.597279,-22.55,0.02,0.81,-0.028,0.12,9.764,0.0,-0.01,0.0
1777319007.6072643,-22.55,0.03,0.81,-0.004,0.144,9.767,0.0,-0.01,0.0
1777319007.6172698,-22.55,0.03,0.81,0.013,0.158,9.778,-0.01,-0.01,0.0
1777319007.6272874,-22.55,0.03,0.81,0.031,0.172,9.786,0.0,0.0,0.0
1777319007.6372466,-22.55,0.04,0.82,0.038,0.181,9.793,0.0,0.0,0.0
1777319007.64726,-22.55,0.04,0.82,0.035,0.177,9.79,-0.01,0.0,-0.01
1777319007.6572878,-22.54,0.03,0.82,0.024,0.178,9.794,-0.01,0.0,-0.01
1777319007.66778,-22.54,0.03,0.81,0.002,0.162,9.788,-0.01,0.0,-0.01
1777319007.677768,-22.54,0.02,0.82,-0.012,0.132,9.785,-0.01,0.0,-0.01
1777319007.6872804,-22.54,0.02,0.81,-0.03,0.117,9.776,-0.01,0.0,-0.01
1777319007.6972506,-22.54,0.01,0.8,-0.041,0.104,9.769,0.0,0.0,-0.01
1777319007.707272,-22.54,0.01,0.8,-0.048,0.092,9.776,0.0,-0.01,0.0
1777319007.717376,-22.54,0.01,0.8,-0.041,0.103,9.778,0.0,-0.01,0.0
1777319007.7264102,-22.55,0.01,0.8,-0.022,0.107,9.778,0.0,-0.01,0.0
1777319007.7373788,-22.55,0.02,0.81,0.0,0.128,9.786,0.0,-0.01,0.0
1777319007.7472522,-22.55,0.03,0.81,0.018,0.153,9.792,0.0,-0.01,0.0
1777319007.7563758,-22.55,0.03,0.81,0.036,0.162,9.791,0.0,-0.01,-0.01
1777319007.7672896,-22.55,0.03,0.81,0.036,0.172,9.796,0.0,0.0,-0.01
1777319007.7772684,-22.55,0.03,0.82,0.034,0.162,9.794,-0.01,0.0,-0.01
1777319007.786596,-22.55,0.03,0.82,0.02,0.151,9.794,-0.01,0.0,0.0
1777319007.7972717,-22.55,0.03,0.81,0.014,0.153,9.791,0.0,0.0,0.0
1777319007.8065667,-22.55,0.02,0.82,-0.006,0.137,9.788,-0.01,0.0,0.0
1777319007.8164096,-22.54,0.02,0.82,-0.024,0.125,9.785,-0.01,0.0,-0.01
1777319007.826536,-22.54,0.02,0.81,-0.028,0.12,9.778,0.0,0.0,-0.01
1777319007.8363953,-22.54,0.02,0.81,-0.018,0.128,9.786,-0.01,-0.01,-0.01
1777319007.8465307,-22.54,0.02,0.81,-0.001,0.128,9.79,-0.01,-0.01,-0.01
1777319007.856404,-22.54,0.02,0.82,0.006,0.129,9.788,0.0,0.0,0.0
1777319007.866392,-22.55,0.03,0.81,0.012,0.143,9.788,0.0,-0.01,0.0
1777319007.8763983,-22.55,0.03,0.81,0.017,0.147,9.794,-0.01,-0.01,0.0
1777319007.8864152,-22.55,0.03,0.81,0.014,0.153,9.794,0.0,0.0,0.0
1777319007.896456,-22.55,0.03,0.81,0.014,0.147,9.79,0.0,0.0,-0.01
1777319007.9063933,-22.55,0.03,0.81,0.005,0.129,9.791,-0.01,0.0,-0.01
1777319007.916393,-22.55,0.02,0.82,0.006,0.128,9.774,0.0,0.0,-0.01
1777319007.9264119,-22.55,0.02,0.82,-0.005,0.125,9.784,0.0,0.0,0.0
1777319007.9364226,-22.55,0.02,0.82,-0.007,0.121,9.772,-0.01,-0.01,0.0
1777319007.9463809,-22.55,0.02,0.82,-0.011,0.137,9.78,0.0,0.0,0.0
1777319007.9564226,-22.55,0.02,0.82,-0.007,0.144,9.788,0.0,-0.01,0.0
1777319007.966413,-22.55,0.02,0.82,-0.01,0.144,9.79,-0.01,-0.01,-0.01
1777319007.9763994,-22.55,0.02,0.82,-0.001,0.146,9.796,0.0,-0.01,-0.01
1777319007.986399,-22.55,0.02,0.82,0.004,0.147,9.786,-0.01,-0.01,-0.01
1777319007.9963975,-22.55,0.02,0.82,0.008,0.152,9.792,-0.01,0.0,-0.01
1777319008.0064187,-22.54,0.02,0.82,0.013,0.144,9.791,-0.01,-0.01,-0.01
1777319008.0164168,-22.54,0.02,0.82,0.011,0.146,9.788,0.0,0.0,-0.01
1777319008.0266678,-22.55,0.02,0.82,0.005,0.133,9.792,-0.01,0.0,0.0
1777319008.0368617,-22.55,0.02,0.82,-0.01,0.123,9.78,-0.01,0.0,0.0
1777319008.0463827,-22.55,0.02,0.81,-0.02,0.111,9.778,0.0,0.0,-0.01
1777319008.0563967,-22.55,0.01,0.81,-0.02,0.099,9.78,-0.01,-0.01,0.0
1777319008.066375,-22.55,0.01,0.8,-0.022,0.11,9.78,0.0,0.0,-0.01
1777319008.0763576,-22.55,0.01,0.8,-0.014,0.129,9.787,-0.01,-0.01,0.0
1777319008.086362,-22.54,0.01,0.81,-0.006,0.147,9.786,-0.01,-0.01,-0.01
1777319008.0963354,-22.54,0.02,0.82,0.004,0.153,9.786,0.0,-0.01,-0.01
1777319008.1063225,-22.54,0.02,0.82,0.006,0.156,9.787,0.0,-0.01,-0.01
1777319008.1163566,-22.54,0.02,0.82,0.013,0.153,9.785,-0.01,0.0,-0.01
1777319008.126341,-22.54,0.02,0.82,0.012,0.14,9.787,0.0,0.0,0.0
1777319008.1363223,-22.55,0.02,0.81,0.01,0.132,9.786,-0.01,0.0,0.0
1777319008.1463325,-22.55,0.02,0.81,0.008,0.121,9.788,0.0,0.0,0.0
1777319008.156325,-22.54,0.02,0.81,0.0,0.111,9.782,0.0,0.0,-0.01
1777319008.1663694,-22.54,0.01,0.8,0.0,0.114,9.772,0.0,0.0,-0.01
1777319008.1763396,-22.54,0.02,0.81,-0.008,0.121,9.781,-0.01,0.0,-0.01
1777319008.1863437,-22.54,0.02,0.81,-0.008,0.132,9.782,0.0,-0.01,-0.01
1777319008.1964486,-22.54,0.02,0.81,-0.007,0.132,9.79,0.0,-0.01,-0.01
1777319008.2063107,-22.54,0.02,0.81,0.0,0.144,9.794,0.0,-0.01,0.0
1777319008.21636,-22.54,0.02,0.81,0.008,0.148,9.799,-0.01,-0.01,0.0
1777319008.2263777,-22.55,0.02,0.82,0.005,0.156,9.8,-0.01,-0.01,0.0
1777319008.23633,-22.54,0.02,0.82,0.011,0.153,9.797,0.0,0.0,0.0
1777319008.2462878,-22.54,0.02,0.82,0.008,0.14,9.8,-0.01,-0.01,-0.01
1777319008.2563224,-22.54,0.02,0.81,0.012,0.128,9.787,0.0,0.0,-0.01
1777319008.2666204,-22.54,0.02,0.81,0.0,0.126,9.784,-0.01,0.0,-0.01
1777319008.276353,-22.55,0.02,0.81,-0.002,0.131,9.775,0.0,0.0,0.0
1777319008.2863379,-22.55,0.02,0.82,-0.005,0.132,9.774,0.0,-0.01,0.0
1777319008.2964158,-22.55,0.02,0.82,-0.01,0.141,9.774,0.0,-0.01,0.0
1777319008.306439,-22.55,0.02,0.82,-0.002,0.152,9.779,0.0,-0.01,-0.01
1777319008.316343,-22.54,0.02,0.82,-0.002,0.151,9.785,0.0,-0.01,-0.01
1777319008.326348,-22.54,0.02,0.82,0.011,0.157,9.791,-0.01,-0.01,-0.01
1777319008.3366907,-22.54,0.02,0.82,0.011,0.151,9.796,-0.01,-0.01,-0.01
1777319008.3463485,-22.54,0.02,0.82,0.016,0.138,9.79,-0.01,0.0,-0.01
1777319008.3563154,-22.54,0.02,0.81,0.01,0.123,9.792,-0.01,0.0,-0.01
1777319008.366449,-22.54,0.02,0.81,0.014,0.119,9.79,-0.01,0.0,0.0
1777319008.3764675,-22.55,0.02,0.81,0.002,0.104,9.782,0.0,0.0,0.0
1777319008.3863392,-22.55,0.02,0.81,0.0,0.115,9.784,0.0,0.0,0.0
1777319008.3964534,-22.55,0.02,0.81,-0.006,0.126,9.791,0.0,0.0,0.0
1777319008.4063303,-22.55,0.02,0.81,-0.004,0.143,9.786,0.0,-0.01,-0.01
1777319008.4164565,-22.54,0.02,0.82,0.0,0.162,9.788,-0.01,-0.01,-0.01
1777319008.426312,-22.54,0.02,0.82,0.0,0.159,9.792,0.0,-0.01,-0.01
1777319008.4365618,-22.54,0.03,0.81,0.007,0.156,9.79,0.0,0.0,-0.01
1777319008.4463446,-22.54,0.03,0.81,0.006,0.147,9.791,-0.01,-0.01,0.0
1777319008.4564762,-22.55,0.03,0.81,0.007,0.141,9.786,-0.01,0.0,0.0
1777319008.4663608,-22.55,0.03,0.81,0.004,0.121,9.791,0.0,0.0,0.0
1777319008.47634,-22.55,0.02,0.81,0.002,0.108,9.791,-0.01,0.0,0.0
1777319008.486348,-22.55,0.03,0.81,-0.002,0.113,9.796,0.0,0.0,-0.01
1777319008.4964945,-22.55,0.02,0.81,0.001,0.102,9.796,0.0,-0.01,-0.01
1777319008.5065773,-22.54,0.03,0.81,-0.001,0.123,9.793,0.0,0.0,-0.01
1777319008.5163455,-22.54,0.03,0.81,-0.002,0.133,9.797,-0.01,-0.01,-0.01
1777319008.5263126,-22.54,0.03,0.81,0.004,0.145,9.796,0.0,-0.01,-0.01
1777319008.5363433,-22.55,0.03,0.81,0.001,0.151,9.799,0.0,-0.01,0.0
1777319008.5466032,-22.55,0.03,0.81,0.008,0.153,9.79,-0.01,-0.01,0.0
1777319008.5564845,-22.55,0.03,0.81,0.001,0.138,9.796,-0.01,0.0,0.0
1777319008.5662959,-22.55,0.03,0.81,0.005,0.122,9.784,-0.01,-0.01,0.0
1777319008.576435,-22.55,0.03,0.81,-0.001,0.111,9.79,-0.01,0.0,-0.01
1777319008.5862918,-22.55,0.02,0.8,0.0,0.091,9.786,0.0,-0.01,0.0
1777319008.596399,-22.55,0.02,0.8,0.006,0.099,9.778,0.0,0.0,0.0
1777319008.6065898,-22.55,0.03,0.81,0.0,0.132,9.784,-0.01,-0.01,0.0
1777319008.616302,-22.55,0.03,0.81,0.004,0.157,9.78,0.0,-0.01,-0.01
1777319008.626264,-22.55,0.03,0.81,-0.005,0.158,9.788,0.0,-0.01,-0.01
1777319008.6363916,-22.54,0.03,0.81,0.0,0.16,9.787,0.0,0.0,-0.01
1777319008.64639,-22.55,0.03,0.81,-0.001,0.15,9.779,-0.01,0.0,-0.01
1777319008.656298,-22.55,0.03,0.81,0.0,0.129,9.779,0.0,-0.01,0.0
1777319008.6662717,-22.55,0.03,0.81,-0.001,0.134,9.776,-0.01,0.0,0.0
1777319008.6762712,-22.55,0.03,0.81,-0.002,0.139,9.784,0.0,-0.01,0.0
1777319008.6862948,-22.55,0.03,0.81,0.011,0.135,9.781,0.0,-0.01,-0.01
1777319008.6962867,-22.55,0.03,0.81,0.01,0.134,9.786,-0.01,0.0,-0.01
1777319008.7062805,-22.54,0.03,0.81,0.024,0.127,9.768,0.0,0.0,-0.01
1777319008.7163029,-22.54,0.03,0.81,0.017,0.119,9.779,0.0,0.0,-0.01
1777319008.7263024,-22.55,0.03,0.81,0.019,0.128,9.784,0.0,-0.01,0.0
1777319008.7362688,-22.55,0.03,0.81,0.011,0.145,9.791,-0.01,0.0,0.0
1777319008.74651,-22.55,0.03,0.81,0.001,0.152,9.792,0.0,-0.01,0.0
1777319008.7562654,-22.55,0.03,0.81,0.0,0.154,9.797,-0.01,0.0,0.0
1777319008.766257,-22.55,0.03,0.81,-0.016,0.144,9.8,0.0,-0.01,-0.01
1777319008.775384,-22.55,0.02,0.82,-0.006,0.134,9.791,0.0,0.0,-0.01
1777319008.7866542,-22.55,0.03,0.81,-0.007,0.122,9.791,0.0,-0.01,-0.01
1777319008.7962997,-22.55,0.03,0.81,0.01,0.133,9.79,-0.01,-0.01,0.0
1777319008.8054311,-22.55,0.03,0.81,0.004,0.146,9.794,0.0,-0.01,0.0
1777319008.815831,-22.55,0.03,0.81,0.019,0.165,9.798,-0.01,-0.01,0.0
1777319008.8262851,-22.55,0.03,0.82,0.01,0.156,9.8,-0.01,0.0,-0.01
1777319008.8354378,-22.55,0.03,0.81,0.013,0.144,9.794,0.0,0.0,-0.01
1777319008.8454075,-22.55,0.03,0.81,0.0,0.129,9.79,-0.01,0.0,-0.01
1777319008.855415,-22.55,0.03,0.81,-0.008,0.114,9.79,0.0,0.0,0.0
1777319008.8662727,-22.55,0.03,0.81,-0.006,0.115,9.791,0.0,0.0,0.0
1777319008.8754065,-22.55,0.03,0.81,-0.018,0.123,9.796,0.0,0.0,0.0
1777319008.8862782,-22.55,0.02,0.82,-0.018,0.113,9.799,0.0,-0.01,0.0
1777319008.896279,-22.55,0.02,0.81,-0.013,0.138,9.796,0.0,-0.01,-0.01
1777319008.9062707,-22.55,0.02,0.82,-0.006,0.132,9.792,-0.01,-0.01,-0.01
1777319008.9154518,-22.55,0.03,0.81,0.004,0.14,9.793,0.0,-0.01,-0.01
1777319008.926274,-22.55,0.03,0.81,0.006,0.14,9.794,0.0,0.0,0.0
1777319008.9354239,-22.55,0.03,0.81,0.018,0.153,9.794,0.0,-0.01,0.0
1777319008.9454486,-22.55,0.03,0.81,0.006,0.148,9.796,0.0,-0.01,0.0
1777319008.9562604,-22.55,0.03,0.82,0.008,0.152,9.799,-0.01,0.0,0.0
1777319008.9656813,-22.55,0.03,0.81,0.005,0.148,9.792,-0.01,0.0,-0.01
1777319008.9755764,-22.55,0.03,0.81,0.002,0.129,9.797,-0.01,0.0,-0.01
1777319008.9855807,-22.55,0.03,0.81,-0.005,0.131,9.791,0.0,0.0,-0.01
1777319008.9962642,-22.55,0.03,0.81,-0.01,0.119,9.796,-0.01,0.0,-0.01
1777319009.005608,-22.55,0.02,0.82,0.0,0.128,9.788,-0.01,-0.01,0.0
1777319009.0154018,-22.55,0.02,0.81,-0.01,0.117,9.793,0.0,-0.01,0.0
1777319009.0262532,-22.55,0.02,0.82,-0.006,0.126,9.792,-0.01,0.0,0.0
1777319009.035398,-22.55,0.03,0.81,-0.005,0.132,9.792,0.0,-0.01,0.0
1777319009.045426,-22.55,0.03,0.81,0.005,0.126,9.796,0.0,-0.01,0.0
1777319009.05538,-22.55,0.03,0.81,0.006,0.137,9.799,0.0,-0.01,-0.01
1777319009.0654252,-22.55,0.03,0.81,0.01,0.126,9.802,0.0,0.0,-0.01
1777319009.0754178,-22.56,0.03,0.81,0.01,0.134,9.803,0.0,0.0,0.0
1777319009.085414,-22.56,0.03,0.81,0.01,0.134,9.805,-0.01,-0.01,0.0
1777319009.0954537,-22.56,0.03,0.81,0.004,0.144,9.8,-0.01,0.0,0.0
1777319009.1054206,-22.56,0.03,0.81,-0.001,0.153,9.803,0.0,0.0,0.0
1777319009.1154253,-22.56,0.02,0.82,-0.005,0.146,9.802,-0.01,-0.01,-0.01
1777319009.1253884,-22.56,0.02,0.82,-0.004,0.14,9.8,0.0,0.0,-0.01
1777319009.135396,-22.55,0.02,0.82,0.002,0.139,9.8,0.0,0.0,-0.01
1777319009.145413,-22.55,0.02,0.82,-0.002,0.146,9.803,-0.01,0.0,-0.01
1777319009.155432,-22.55,0.02,0.82,0.007,0.14,9.804,-0.01,-0.01,-0.01
1777319009.165595,-22.55,0.02,0.82,0.005,0.134,9.798,0.0,0.0,-0.01
1777319009.175353,-22.55,0.02,0.82,-0.001,0.127,9.798,-0.01,0.0,-0.01
1777319009.18542,-22.55,0.02,0.81,0.0,0.105,9.79,0.0,0.0,-0.01
1777319009.195342,-22.55,0.02,0.81,-0.004,0.095,9.784,0.0,0.0,0.0
1777319009.2056186,-22.56,0.02,0.81,-0.007,0.109,9.784,0.0,-0.01,0.0
1777319009.215347,-22.56,0.02,0.81,-0.002,0.114,9.788,0.0,-0.01,0.0
1777319009.2253416,-22.56,0.02,0.81,-0.007,0.123,9.792,0.0,-0.01,0.0
1777319009.2353804,-22.56,0.03,0.81,-0.005,0.137,9.794,0.0,-0.01,-0.01
1777319009.2453508,-22.56,0.03,0.81,0.0,0.131,9.799,0.0,-0.01,-0.01
1777319009.2553437,-22.56,0.03,0.81,0.006,0.153,9.796,0.0,-0.01,0.0
1777319009.2653663,-22.57,0.03,0.81,0.002,0.154,9.799,0.0,0.0,0.0
1777319009.2753584,-22.57,0.03,0.81,0.017,0.162,9.798,0.0,-0.01,0.0
1777319009.28532,-22.56,0.03,0.81,0.013,0.175,9.802,-0.01,0.0,-0.01
1777319009.2953482,-22.55,0.03,0.81,0.017,0.158,9.79,-0.01,0.0,-0.01
1777319009.305364,-22.55,0.03,0.81,0.002,0.14,9.788,-0.01,0.0,-0.01
1777319009.3153503,-22.55,0.02,0.81,-0.006,0.115,9.793,-0.01,0.0,-0.01
1777319009.3253267,-22.55,0.02,0.81,-0.013,0.101,9.787,0.0,0.0,0.0
1777319009.3353589,-22.56,0.02,0.8,-0.026,0.102,9.793,0.0,0.0,0.0
1777319009.3453393,-22.56,0.02,0.8,-0.026,0.119,9.796,-0.01,-0.01,0.0
1777319009.3553421,-22.56,0.02,0.81,-0.034,0.125,9.799,0.0,-0.01,0.0
1777319009.3653803,-22.56,0.02,0.81,-0.023,0.127,9.796,0.0,-0.01,-0.01
1777319009.3753254,-22.56,0.02,0.81,-0.012,0.154,9.799,0.0,-0.01,-0.01
1777319009.385317,-22.56,0.02,0.82,0.007,0.135,9.803,0.0,-0.01,-0.01
1777319009.3953447,-22.56,0.03,0.81,0.019,0.165,9.802,0.0,-0.01,0.0
1777319009.405777,-22.56,0.03,0.81,0.023,0.177,9.804,-0.01,0.0,0.0
1777319009.4153364,-22.56,0.03,0.82,0.028,0.174,9.803,-0.01,-0.01,0.0
1777319009.4253623,-22.55,0.03,0.81,0.008,0.164,9.805,-0.01,0.0,-0.01
1777319009.4353447,-22.55,0.02,0.82,0.005,0.146,9.796,-0.01,0.0,-0.01
1777319009.4453278,-22.55,0.02,0.81,-0.013,0.117,9.797,-0.01,0.0,-0.01
1777319009.4553335,-22.55,0.01,0.81,-0.02,0.099,9.793,0.0,0.0,-0.01
1777319009.4653738,-22.55,0.01,0.8,-0.032,0.096,9.798,-0.01,0.0,0.0
1777319009.4753518,-22.56,0.01,0.8,-0.036,0.096,9.797,0.0,-0.01,0.0
1777319009.4853568,-22.56,0.01,0.8,-0.032,0.122,9.796,0.0,-0.01,0.0
1777319009.4956377,-22.56,0.01,0.81,-0.023,0.134,9.797,0.0,-0.01,-0.01
1777319009.5053456,-22.55,0.02,0.81,0.0,0.141,9.794,0.0,-0.01,-0.01
1777319009.5153358,-22.55,0.02,0.81,0.02,0.15,9.796,0.0,-0.01,-0.01
1777319009.5253599,-22.56,0.02,0.82,0.031,0.156,9.793,-0.01,-0.01,-0.01
1777319009.535348,-22.56,0.03,0.81,0.034,0.153,9.799,0.0,0.0,0.0
1777319009.5453408,-22.56,0.02,0.82,0.025,0.156,9.794,-0.01,0.0,0.0
1777319009.5553658,-22.56,0.02,0.82,0.022,0.148,9.797,0.0,0.0,0.0
1777319009.5657651,-22.55,0.02,0.81,0.004,0.123,9.792,-0.01,0.0,-0.01
1777319009.5753536,-22.55,0.02,0.81,-0.01,0.119,9.797,-0.01,0.0,-0.01
1777319009.5853605,-22.55,0.01,0.81,-0.02,0.107,9.799,0.0,0.0,-0.01
1777319009.5953472,-22.55,0.01,0.8,-0.032,0.102,9.802,0.0,-0.01,0.0
1777319009.6053493,-22.55,0.01,0.8,-0.019,0.115,9.799,-0.01,-0.01,0.0
1777319009.6153347,-22.56,0.01,0.8,-0.012,0.146,9.793,0.0,-0.01,0.0
1777319009.6253896,-22.56,0.02,0.81,-0.004,0.138,9.799,0.0,0.0,0.0
1777319009.6353712,-22.56,0.02,0.81,0.007,0.157,9.799,-0.01,-0.01,0.0
1777319009.6454613,-22.56,0.02,0.81,0.013,0.158,9.8,0.0,0.0,-0.01
1777319009.655362,-22.55,0.02,0.81,0.023,0.147,9.802,-0.01,-0.01,-0.01
1777319009.6654553,-22.55,0.02,0.81,0.014,0.148,9.804,-0.01,0.0,-0.01
1777319009.6753318,-22.55,0.02,0.81,0.014,0.131,9.805,0.0,0.0,-0.01
1777319009.6853535,-22.55,0.01,0.8,0.002,0.123,9.8,0.0,0.0,-0.01
1777319009.6953254,-22.55,0.01,0.8,-0.012,0.114,9.797,-0.01,0.0,0.0
1777319009.705869,-22.55,0.01,0.8,-0.019,0.104,9.794,0.0,0.0,0.0
1777319009.7153196,-22.56,0.01,0.8,-0.029,0.103,9.785,0.0,0.0,0.0
1777319009.7254288,-22.56,0.01,0.8,-0.023,0.12,9.778,0.0,-0.01,0.0
1777319009.7353184,-22.56,0.01,0.8,-0.018,0.129,9.786,0.0,-0.01,0.0
1777319009.7452862,-22.56,0.01,0.81,-0.007,0.147,9.79,0.0,-0.01,0.0
1777319009.7553108,-22.56,0.02,0.81,0.011,0.166,9.793,0.0,-0.01,-0.01
1777319009.7656083,-22.56,0.02,0.82,0.029,0.166,9.798,-0.01,-0.01,-0.01
1777319009.775397,-22.56,0.02,0.82,0.037,0.165,9.791,0.0,-0.01,-0.01
1777319009.7852848,-22.56,0.03,0.81,0.026,0.157,9.796,-0.01,0.0,-0.01
1777319009.7952733,-22.57,0.02,0.82,0.024,0.146,9.788,0.0,0.0,0.0
1777319009.8052769,-22.57,0.02,0.82,0.0,0.147,9.786,0.0,0.0,0.0
1777319009.815296,-22.56,0.01,0.81,-0.013,0.135,9.792,-0.01,0.0,-0.01
1777319009.8252838,-22.56,0.01,0.81,-0.029,0.126,9.786,-0.01,0.0,-0.01
1777319009.8353229,-22.55,0.01,0.81,-0.035,0.128,9.784,0.0,0.0,-0.01
1777319009.8452868,-22.55,0.01,0.81,-0.029,0.122,9.786,-0.01,-0.01,-0.01
1777319009.8552654,-22.55,0.01,0.81,-0.022,0.128,9.79,0.0,-0.01,0.0
1777319009.8652456,-22.56,0.01,0.81,-0.008,0.137,9.79,0.0,-0.01,0.0
1777319009.8743944,-22.56,0.01,0.81,-0.001,0.147,9.782,-0.01,-0.01,0.0
1777319009.8852932,-22.56,0.01,0.81,0.01,0.14,9.784,0.0,-0.01,0.0
1777319009.8952756,-22.56,0.01,0.81,0.011,0.147,9.786,-0.01,0.0,0.0
1777319009.9044003,-22.56,0.02,0.81,0.013,0.129,9.782,0.0,0.0,-0.01
1777319009.9153447,-22.56,0.01,0.81,0.012,0.115,9.788,0.0,0.0,-0.01
1777319009.925278,-22.57,0.01,0.81,0.002,0.131,9.791,0.0,0.0,0.0
1777319009.9352984,-22.57,0.01,0.81,0.0,0.129,9.784,0.0,0.0,0.0
1777319009.9443672,-22.57,0.01,0.81,-0.008,0.151,9.785,0.0,0.0,0.0
1777319009.9543846,-22.56,0.01,0.81,-0.005,0.174,9.792,-0.01,0.0,-0.01
1777319009.9643757,-22.56,0.01,0.82,-0.008,0.16,9.79,-0.01,-0.01,-0.01
1777319009.9743736,-22.55,0.01,0.82,0.001,0.157,9.788,0.0,0.0,-0.01
1777319009.984371,-22.55,0.01,0.81,0.002,0.145,9.788,-0.01,-0.01,-0.01
1777319009.994367,-22.56,0.01,0.81,0.005,0.12,9.788,-0.01,0.0,0.0
1777319010.0043674,-22.57,0.01,0.81,0.002,0.113,9.792,0.0,-0.01,0.0
1777319010.015271,-22.57,0.01,0.81,0.008,0.12,9.79,0.0,-0.01,0.0
1777319010.0243554,-22.57,0.01,0.81,0.006,0.113,9.796,0.0,-0.01,0.0
1777319010.0353189,-22.57,0.01,0.81,0.0,0.122,9.799,0.0,0.0,-0.01
1777319010.0443695,-22.56,0.01,0.81,0.007,0.12,9.799,0.0,0.0,-0.01
1777319010.0543747,-22.56,0.01,0.81,0.005,0.132,9.788,-0.01,-0.01,-0.01
1777319010.0669775,-22.56,0.01,0.81,0.007,0.148,9.788,0.0,0.0,-0.01
1777319010.0744407,-22.56,0.01,0.81,0.011,0.152,9.794,-0.01,-0.01,0.0
1777319010.0844543,-22.56,0.02,0.81,0.0,0.162,9.798,-0.01,0.0,0.0
1777319010.0945785,-22.56,0.01,0.81,-0.001,0.14,9.796,-0.01,-0.01,0.0
1777319010.1051753,-22.56,0.01,0.81,-0.008,0.127,9.796,-0.01,0.0,-0.01
1777319010.1149366,-22.56,0.01,0.8,-0.007,0.117,9.797,-0.01,0.0,-0.01
1777319010.1244128,-22.56,0.01,0.8,-0.007,0.101,9.791,0.0,-0.01,0.0
1777319010.1344607,-22.57,0.01,0.8,0.0,0.105,9.791,0.0,0.0,0.0
1777319010.1444855,-22.57,0.01,0.8,0.006,0.114,9.796,0.0,-0.01,0.0
1777319010.154479,-22.57,0.02,0.8,0.01,0.135,9.798,0.0,0.0,-0.01
1777319010.1644053,-22.56,0.02,0.81,0.01,0.146,9.802,-0.01,-0.01,-0.01
1777319010.1744924,-22.56,0.02,0.81,0.01,0.163,9.804,0.0,0.0,-0.01
1777319010.1844087,-22.56,0.02,0.81,0.012,0.171,9.805,-0.01,0.0,-0.01
1777319010.1943746,-22.56,0.01,0.81,0.006,0.162,9.799,-0.01,-0.01,-0.01
1777319010.2044108,-22.56,0.01,0.81,0.006,0.144,9.788,-0.01,0.0,0.0
1777319010.2144523,-22.57,0.01,0.81,-0.002,0.128,9.79,-0.01,-0.01,0.0
1777319010.2243855,-22.57,0.01,0.8,-0.007,0.117,9.788,0.0,0.0,0.0
1777319010.2344012,-22.57,0.01,0.8,-0.007,0.111,9.794,0.0,-0.01,0.0
1777319010.2443798,-22.57,0.01,0.8,-0.01,0.114,9.799,0.0,0.0,0.0
1777319010.254396,-22.56,0.01,0.8,0.0,0.123,9.8,0.0,-0.01,-0.01
1777319010.2644198,-22.56,0.01,0.8,-0.001,0.145,9.803,-0.01,-0.01,-0.01
1777319010.2744281,-22.56,0.01,0.81,0.004,0.146,9.799,0.0,-0.01,-0.01
1777319010.2844167,-22.56,0.01,0.81,0.005,0.166,9.8,0.0,0.0,-0.01
1777319010.2943792,-22.56,0.02,0.81,0.007,0.169,9.803,-0.01,-0.01,0.0
1777319010.304366,-22.56,0.01,0.82,0.007,0.158,9.804,-0.01,-0.01,0.0
1777319010.3144157,-22.56,0.01,0.81,-0.005,0.15,9.803,0.0,0.0,0.0
1777319010.3244207,-22.56,0.01,0.81,-0.007,0.127,9.802,-0.01,0.0,-0.01
1777319010.3344462,-22.56,0.01,0.8,-0.014,0.101,9.802,0.0,0.0,-0.01
1777319010.3443978,-22.56,0.01,0.8,-0.01,0.09,9.8,0.0,-0.01,-0.01
1777319010.3544185,-22.57,0.01,0.8,-0.005,0.113,9.798,0.0,-0.01,0.0
1777319010.3644419,-22.57,0.01,0.8,-0.005,0.114,9.8,0.0,-0.01,0.0
1777319010.3743892,-22.57,0.01,0.81,0.001,0.135,9.802,0.0,-0.01,0.0
1777319010.384366,-22.56,0.01,0.81,0.004,0.156,9.802,0.0,0.0,-0.01
1777319010.3944628,-22.56,0.01,0.81,0.011,0.17,9.804,-0.01,-0.01,-0.01
1777319010.4043481,-22.56,0.01,0.81,0.012,0.169,9.803,-0.01,0.0,-0.01
1777319010.4144585,-22.56,0.01,0.81,0.008,0.166,9.804,-0.01,0.0,-0.01
1777319010.4249766,-22.56,0.01,0.81,0.002,0.145,9.805,-0.01,0.0,-0.01
1777319010.434481,-22.56,0.01,0.8,-0.001,0.115,9.806,-0.01,0.0,0.0
1777319010.4442918,-22.56,0.01,0.8,-0.014,0.098,9.806,-0.01,0.0,0.0
1777319010.4543521,-22.57,0.0,0.81,-0.024,0.09,9.802,0.0,-0.01,0.0
1777319010.4643502,-22.57,0.0,0.8,-0.034,0.083,9.8,0.0,-0.01,0.0
1777319010.474969,-22.57,0.0,0.8,-0.028,0.104,9.803,0.0,-0.01,0.0
1777319010.4919422,-22.57,0.0,0.81,-0.017,0.127,9.805,0.0,-0.01,0.0
1777319010.4945266,-22.57,0.01,0.8,0.004,0.166,9.8,0.0,-0.01,-0.01
1777319010.5044892,-22.57,0.01,0.82,0.011,0.176,9.803,-0.01,-0.01,-0.01
1777319010.51436,-22.57,0.01,0.82,0.028,0.181,9.799,0.0,-0.01,-0.01
1777319010.5243628,-22.57,0.02,0.82,0.019,0.184,9.8,-0.01,0.0,0.0
1777319010.5344064,-22.57,0.01,0.82,0.023,0.172,9.803,-0.01,-0.01,0.0
1777319010.5443172,-22.57,0.01,0.81,0.018,0.138,9.804,-0.01,0.0,0.0
1777319010.554347,-22.57,0.01,0.81,0.001,0.122,9.8,-0.01,0.0,-0.01
1777319010.5643446,-22.57,0.01,0.8,-0.006,0.11,9.794,-0.01,0.0,-0.01
1777319010.5743504,-22.56,0.0,0.81,-0.018,0.081,9.794,0.0,-0.01,-0.01
1777319010.584399,-22.56,0.0,0.8,-0.017,0.102,9.781,0.0,0.0,-0.01
1777319010.5943022,-22.56,0.01,0.8,-0.02,0.103,9.788,-0.01,-0.01,0.0
1777319010.6043115,-22.57,0.01,0.8,-0.001,0.123,9.774,0.0,-0.01,0.0
1777319010.6143086,-22.57,0.01,0.8,0.0,0.156,9.784,-0.01,-0.01,0.0
1777319010.624314,-22.57,0.01,0.81,0.011,0.168,9.787,-0.01,-0.01,0.0
1777319010.6343281,-22.57,0.02,0.81,0.022,0.165,9.792,0.0,0.0,0.0
1777319010.6443076,-22.57,0.02,0.81,0.022,0.159,9.797,-0.01,-0.01,0.0
1777319010.6543186,-22.57,0.02,0.82,0.024,0.148,9.796,-0.01,0.0,-0.01
1777319010.6644142,-22.57,0.02,0.81,0.011,0.12,9.794,0.0,0.0,0.0
1777319010.674338,-22.58,0.02,0.81,0.011,0.116,9.796,-0.01,0.0,0.0
1777319010.6843069,-22.58,0.02,0.8,-0.002,0.119,9.798,0.0,0.0,0.0
1777319010.6943223,-22.58,0.01,0.8,-0.005,0.114,9.798,0.0,0.0,0.0
1777319010.7042952,-22.57,0.01,0.81,-0.004,0.126,9.794,0.0,0.0,-0.01
1777319010.7142942,-22.57,0.01,0.8,-0.002,0.137,9.79,0.0,-0.01,-0.01
1777319010.7242985,-22.57,0.01,0.81,-0.005,0.141,9.792,-0.01,-0.01,-0.01
1777319010.734333,-22.57,0.01,0.81,-0.001,0.14,9.786,0.0,-0.01,-0.01
1777319010.7446897,-22.57,0.02,0.81,0.004,0.151,9.79,-0.01,0.0,0.0
1777319010.7543,-22.57,0.02,0.81,0.017,0.157,9.791,-0.01,-0.01,0.0
1777319010.7643127,-22.57,0.02,0.81,0.014,0.143,9.788,0.0,0.0,-0.01
1777319010.7742972,-22.57,0.02,0.81,0.007,0.128,9.794,-0.01,0.0,-0.01
1777319010.7846198,-22.57,0.01,0.8,0.0,0.125,9.792,-0.01,0.0,-0.01
1777319010.7942934,-22.57,0.02,0.8,-0.011,0.095,9.788,0.0,0.0,-0.01
1777319010.8042827,-22.57,0.01,0.8,-0.013,0.111,9.794,0.0,-0.01,0.0
1777319010.8142962,-22.57,0.01,0.8,-0.024,0.128,9.793,0.0,0.0,0.0
1777319010.8242817,-22.57,0.01,0.8,-0.02,0.129,9.798,0.0,-0.01,0.0
1777319010.83427,-22.57,0.01,0.8,-0.017,0.148,9.792,0.0,0.0,-0.01
1777319010.8442826,-22.57,0.01,0.8,-0.016,0.148,9.796,-0.01,-0.01,-0.01
1777319010.854265,-22.57,0.01,0.8,-0.002,0.133,9.791,0.0,-0.01,-0.01
1777319010.8642802,-22.57,0.01,0.8,0.0,0.145,9.794,0.0,0.0,0.0
1777319010.8742838,-22.58,0.01,0.8,0.01,0.143,9.796,-0.01,-0.01,0.0
1777319010.8843098,-22.58,0.01,0.8,0.006,0.131,9.791,0.0,0.0,0.0
1777319010.894276,-22.58,0.01,0.8,0.002,0.122,9.791,0.0,0.0,0.0
1777319010.9034111,-22.57,0.01,0.8,0.001,0.119,9.79,-0.01,0.0,-0.01
1777319010.9142895,-22.58,0.01,0.8,-0.005,0.11,9.787,0.0,0.0,-0.01
1777319010.924278,-22.58,0.01,0.8,-0.001,0.113,9.78,0.0,0.0,0.0
1777319010.9342885,-22.58,0.01,0.8,-0.007,0.123,9.785,0.0,0.0,0.0
1777319010.9442923,-22.58,0.01,0.8,-0.006,0.143,9.786,-0.01,-0.01,0.0
1777319010.954264,-22.58,0.01,0.8,0.0,0.162,9.784,0.0,-0.01,0.0
1777319010.9634023,-22.58,0.01,0.81,0.004,0.152,9.791,0.0,-0.01,-0.01
1777319010.9737957,-22.58,0.01,0.81,0.01,0.151,9.787,-0.01,-0.01,-0.01
1777319010.9843252,-22.58,0.02,0.8,0.012,0.143,9.781,0.0,0.0,-0.01
1777319010.994296,-22.58,0.02,0.8,0.012,0.128,9.784,-0.01,-0.01,0.0
1777319011.0034084,-22.58,0.02,0.8,0.006,0.144,9.784,-0.01,0.0,0.0
1777319011.013421,-22.58,0.02,0.8,-0.001,0.125,9.791,-0.01,0.0,-0.01
1777319011.0242894,-22.57,0.01,0.8,0.0,0.132,9.785,-0.01,0.0,-0.01
1777319011.0342693,-22.57,0.01,0.8,-0.01,0.121,9.779,0.0,0.0,-0.01
1777319011.0434518,-22.57,0.01,0.8,-0.012,0.116,9.78,-0.01,0.0,-0.01
1777319011.0534446,-22.57,0.01,0.8,-0.024,0.128,9.788,-0.01,0.0,0.0
1777319011.0644553,-22.57,0.01,0.8,-0.016,0.132,9.779,0.0,-0.01,0.0
1777319011.073428,-22.58,0.01,0.8,-0.016,0.141,9.787,0.0,-0.01,0.0
1777319011.0835066,-22.58,0.01,0.8,-0.008,0.144,9.79,-0.01,-0.01,0.0
1777319011.0942702,-22.58,0.01,0.8,-0.007,0.134,9.794,0.0,0.0,-0.01
1777319011.1042974,-22.58,0.01,0.8,0.002,0.128,9.788,0.0,-0.01,-0.01
1777319011.1134484,-22.58,0.01,0.8,0.008,0.123,9.794,-0.01,-0.01,0.0
1777319011.1234465,-22.58,0.01,0.8,0.007,0.123,9.79,0.0,-0.01,0.0
1777319011.1336098,-22.58,0.02,0.8,0.006,0.141,9.784,0.0,0.0,0.0
1777319011.143446,-22.58,0.01,0.8,0.007,0.151,9.79,-0.01,-0.01,0.0
1777319011.153433,-22.58,0.01,0.8,0.006,0.157,9.79,0.0,0.0,-0.01
1777319011.1634207,-22.57,0.01,0.8,0.006,0.168,9.792,-0.01,0.0,-0.01
1777319011.1734452,-22.57,0.01,0.81,0.001,0.158,9.796,-0.01,0.0,-0.01
1777319011.1834176,-22.57,0.01,0.8,0.001,0.147,9.785,0.0,0.0,-0.01
1777319011.1934183,-22.57,0.01,0.8,-0.006,0.125,9.788,-0.01,0.0,-0.01
1777319011.2033968,-22.58,0.01,0.8,-0.002,0.117,9.785,0.0,0.0,0.0
1777319011.2134182,-22.58,0.01,0.8,-0.006,0.111,9.792,-0.01,0.0,0.0
1777319011.2234027,-22.58,0.01,0.8,-0.005,0.111,9.786,-0.01,-0.01,0.0
1777319011.2333853,-22.58,0.01,0.8,-0.001,0.113,9.78,0.0,0.0,-0.01
1777319011.243396,-22.58,0.01,0.8,0.002,0.12,9.781,0.0,-0.01,-0.01
1777319011.2534156,-22.58,0.01,0.8,0.013,0.115,9.779,0.0,0.0,-0.01
1777319011.2633824,-22.58,0.02,0.8,0.014,0.123,9.787,0.0,-0.01,0.0
1777319011.2734094,-22.58,0.02,0.8,0.018,0.145,9.79,0.0,-0.01,0.0
1777319011.2839084,-22.58,0.02,0.81,0.02,0.146,9.793,-0.01,-0.01,0.0
1777319011.293411,-22.58,0.02,0.81,0.017,0.166,9.784,0.0,0.0,0.0
1777319011.3034236,-22.58,0.02,0.81,0.017,0.168,9.785,-0.01,0.0,-0.01
1777319011.3134303,-22.57,0.02,0.81,0.013,0.162,9.782,-0.01,-0.01,-0.01
1777319011.3233936,-22.57,0.02,0.8,0.012,0.125,9.78,0.0,0.0,-0.01
1777319011.3333967,-22.57,0.02,0.8,0.007,0.11,9.784,-0.01,0.0,-0.01
1777319011.3434129,-22.58,0.02,0.8,-0.005,0.099,9.785,0.0,0.0,0.0
1777319011.353413,-22.58,0.02,0.8,-0.011,0.089,9.784,0.0,-0.01,0.0
1777319011.3634343,-22.58,0.02,0.8,-0.025,0.11,9.791,0.0,0.0,0.0
1777319011.3734798,-22.58,0.01,0.8,-0.013,0.107,9.794,0.0,-0.01,0.0
1777319011.383525,-22.58,0.02,0.8,-0.01,0.12,9.792,0.0,-0.01,-0.01
1777319011.3934062,-22.58,0.02,0.8,0.01,0.138,9.791,0.0,-0.01,-0.01
1777319011.4033926,-22.58,0.02,0.8,0.007,0.144,9.793,0.0,-0.01,-0.01
1777319011.4133823,-22.58,0.03,0.81,0.022,0.169,9.798,0.0,-0.01,0.0
1777319011.4233584,-22.58,0.03,0.81,0.02,0.181,9.802,-0.01,-0.01,0.0
1777319011.4333344,-22.58,0.03,0.81,0.026,0.19,9.804,-0.01,0.0,-0.01
1777319011.4433544,-22.58,0.02,0.81,0.024,0.171,9.802,-0.01,0.0,-0.01
1777319011.4533095,-22.57,0.02,0.81,0.016,0.14,9.804,-0.01,0.0,-0.01
1777319011.4633567,-22.57,0.02,0.8,0.008,0.119,9.793,-0.01,0.0,-0.01
1777319011.4733303,-22.57,0.02,0.8,-0.007,0.093,9.785,0.0,0.0,-0.01
1777319011.483302,-22.58,0.02,0.8,-0.018,0.087,9.776,0.0,0.0,0.0
1777319011.4933672,-22.58,0.01,0.8,-0.031,0.103,9.784,-0.01,-0.01,0.0
1777319011.5033398,-22.58,0.01,0.8,-0.024,0.117,9.781,0.0,-0.01,0.0
1777319011.5133262,-22.58,0.01,0.8,-0.017,0.131,9.787,0.0,-0.01,-0.01
1777319011.5233452,-22.58,0.01,0.8,-0.004,0.15,9.784,0.0,-0.01,-0.01
1777319011.533326,-22.58,0.02,0.81,0.011,0.147,9.791,0.0,-0.01,-0.01
1777319011.5433433,-22.58,0.02,0.8,0.03,0.162,9.79,0.0,-0.01,0.0
1777319011.5533314,-22.58,0.03,0.81,0.029,0.176,9.796,-0.01,0.0,0.0
1777319011.563328,-22.58,0.02,0.81,0.028,0.16,9.792,-0.01,-0.01,0.0
1777319011.5733104,-22.58,0.02,0.81,0.028,0.157,9.793,-0.01,0.0,-0.01
1777319011.5833097,-22.58,0.02,0.8,0.01,0.137,9.794,-0.01,0.0,-0.01
