timestamp,yaw,pitch,roll,accel_x,accel_y,accel_z,gyro_x,gyro_y,gyro_z
1777318190.5634193,-15.49,0.31,0.69,0.091,0.09,9.797,0.0,0.0,0.0
1777318190.5731359,-15.48,0.29,0.7,0.11,0.089,9.772,0.0,0.0,0.0
1777318190.583245,-15.48,0.31,0.7,0.172,0.011,9.762,0.0,0.0,0.0
1777318190.5931547,-15.49,0.32,0.68,0.098,0.078,9.774,-0.01,-0.01,-0.01
1777318190.6030674,-15.49,0.32,0.68,0.08,0.128,9.736,-0.02,-0.01,0.0
1777318190.6130855,-15.49,0.32,0.69,0.096,0.126,9.72,-0.01,0.0,-0.01
1777318190.6230695,-15.49,0.33,0.69,0.055,0.101,9.744,0.0,-0.01,-0.01
1777318190.6334565,-15.48,0.3,0.69,-0.024,0.115,9.762,0.0,0.0,-0.01
1777318190.643954,-15.48,0.25,0.71,-0.069,0.156,9.689,0.0,0.01,-0.01
1777318190.6543598,-15.48,0.22,0.76,-0.041,0.141,9.585,0.01,0.02,-0.01
1777318190.6631973,-15.49,0.23,0.77,0.291,0.092,9.491,0.02,0.01,0.0
1777318190.6738217,-15.5,0.38,0.74,0.049,-0.157,9.578,0.0,-0.02,0.01
1777318190.6833403,-15.5,0.43,0.6,0.111,-0.078,9.639,-0.02,-0.05,0.0
1777318190.6933954,-15.49,0.54,0.56,0.242,0.067,9.569,-0.06,-0.04,-0.01
1777318190.7034605,-15.49,0.64,0.51,0.182,0.068,9.494,-0.03,-0.05,-0.01
1777318190.7138503,-15.48,0.67,0.49,0.073,0.165,9.454,-0.03,-0.05,-0.01
1777318190.7232075,-15.47,0.66,0.52,0.092,0.141,9.533,-0.02,-0.02,-0.01
1777318190.7330642,-15.49,0.66,0.52,0.16,0.069,9.597,0.01,0.01,-0.01
1777318190.743114,-15.5,0.7,0.51,0.152,-0.06,9.653,0.01,0.0,0.01
1777318190.7530375,-15.52,0.7,0.44,0.05,-0.065,9.695,-0.01,-0.02,0.01
1777318190.7630572,-15.53,0.68,0.42,0.056,0.251,9.682,-0.04,-0.01,0.0
1777318190.7730856,-15.54,0.66,0.5,-0.035,0.28,9.632,-0.02,0.0,0.0
1777318190.783069,-15.54,0.59,0.53,0.019,0.217,9.562,0.02,0.01,0.0
1777318190.7930245,-15.53,0.56,0.57,0.095,0.205,9.57,0.02,0.03,-0.01
1777318190.8031592,-15.52,0.55,0.57,0.073,0.14,9.634,0.01,0.02,-0.02
1777318190.8130689,-15.49,0.56,0.54,0.086,0.123,9.656,0.0,0.0,-0.01
1777318190.8230422,-15.47,0.6,0.49,0.083,0.114,9.659,-0.02,-0.02,-0.02
1777318190.8330388,-15.44,0.63,0.47,-0.063,0.243,9.678,-0.03,-0.03,-0.02
1777318190.843037,-15.42,0.62,0.48,-0.188,0.283,9.685,-0.02,-0.02,-0.02
1777318190.8530402,-15.41,0.57,0.49,-0.238,0.183,9.718,0.0,-0.01,-0.02
1777318190.8630443,-15.4,0.52,0.5,-0.189,0.164,9.743,0.01,0.01,-0.01
1777318190.8739069,-15.41,0.5,0.52,-0.099,0.135,9.761,0.0,0.02,-0.01
1777318190.883536,-15.42,0.51,0.52,-0.069,0.098,9.768,0.01,0.01,0.0
1777318190.8930643,-15.44,0.51,0.51,-0.09,0.126,9.72,0.0,-0.01,0.0
1777318190.903025,-15.44,0.52,0.52,-0.087,0.211,9.632,-0.02,-0.02,0.0
1777318190.913035,-15.44,0.52,0.53,-0.116,0.198,9.638,-0.01,-0.02,0.0
1777318190.922152,-15.44,0.52,0.53,-0.083,0.186,9.683,0.0,-0.01,0.0
1777318190.9321437,-15.44,0.52,0.53,-0.043,0.165,9.717,-0.01,0.0,-0.01
1777318190.9430463,-15.44,0.52,0.53,-0.005,0.143,9.741,0.0,-0.01,-0.01
1777318190.9521294,-15.43,0.53,0.54,0.007,0.151,9.76,0.0,-0.01,-0.01
1777318190.9630375,-15.43,0.53,0.54,0.002,0.131,9.738,0.0,-0.01,-0.01
1777318190.973116,-15.43,0.53,0.54,0.051,0.144,9.69,0.0,0.0,-0.01
1777318190.9821148,-15.43,0.53,0.55,0.089,0.103,9.693,0.0,0.0,0.0
1777318190.9930189,-15.44,0.53,0.54,0.11,0.093,9.723,0.0,0.0,0.0
1777318191.0030086,-15.44,0.55,0.54,0.101,0.09,9.745,-0.01,-0.01,0.0
1777318191.0130117,-15.45,0.54,0.53,0.067,0.099,9.763,-0.01,-0.01,0.0
1777318191.0221593,-15.46,0.53,0.54,0.047,0.132,9.775,-0.01,0.0,0.0
1777318191.0330203,-15.47,0.51,0.55,0.023,0.154,9.769,0.0,0.0,0.0
1777318191.0421584,-15.47,0.49,0.57,0.032,0.169,9.738,0.0,0.0,0.0
1777318191.0530248,-15.47,0.49,0.58,0.034,0.152,9.733,0.0,0.0,0.0
1777318191.0621836,-15.46,0.49,0.56,0.02,0.163,9.749,0.0,0.0,-0.01
1777318191.072194,-15.44,0.49,0.56,-0.016,0.183,9.764,-0.01,-0.01,-0.01
1777318191.0830135,-15.44,0.48,0.56,-0.068,0.169,9.776,-0.01,-0.01,-0.01
1777318191.0930161,-15.42,0.47,0.57,-0.063,0.171,9.786,-0.01,0.0,-0.01
1777318191.1021569,-15.42,0.45,0.57,-0.051,0.141,9.791,0.0,0.0,-0.01
1777318191.1121442,-15.42,0.45,0.57,-0.016,0.12,9.763,0.0,0.0,-0.01
1777318191.1221592,-15.42,0.46,0.57,0.007,0.116,9.744,0.0,-0.01,-0.01
1777318191.1321478,-15.42,0.46,0.57,0.0,0.095,9.749,-0.01,-0.01,0.0
1777318191.142168,-15.43,0.46,0.57,0.017,0.097,9.763,-0.01,-0.01,0.0
1777318191.152161,-15.44,0.46,0.57,0.016,0.084,9.774,-0.01,-0.01,0.0
1777318191.1621604,-15.47,0.46,0.57,0.051,0.123,9.785,0.0,-0.01,0.01
1777318191.1721609,-15.47,0.47,0.58,0.046,0.138,9.791,0.0,-0.01,0.01
1777318191.182161,-15.47,0.47,0.59,0.056,0.159,9.786,0.0,-0.01,0.0
1777318191.1922057,-15.47,0.47,0.59,0.061,0.166,9.769,0.0,0.0,0.0
1777318191.202308,-15.47,0.46,0.59,0.051,0.147,9.779,0.0,0.0,-0.01
1777318191.212117,-15.46,0.46,0.6,0.057,0.145,9.786,0.0,0.0,-0.01
1777318191.222164,-15.46,0.46,0.6,0.044,0.133,9.792,0.0,0.0,-0.01
1777318191.232145,-15.46,0.45,0.6,0.044,0.169,9.792,-0.01,0.0,-0.01
1777318191.242148,-15.45,0.45,0.61,0.023,0.168,9.797,0.0,0.0,-0.01
1777318191.2521365,-15.44,0.44,0.61,0.022,0.18,9.785,0.0,0.0,-0.01
1777318191.262145,-15.44,0.44,0.62,0.011,0.177,9.773,-0.01,0.0,-0.01
1777318191.272147,-15.44,0.43,0.61,-0.001,0.157,9.782,-0.01,-0.01,-0.01
1777318191.2821596,-15.44,0.42,0.61,0.004,0.15,9.787,-0.01,-0.01,-0.01
1777318191.2921603,-15.44,0.42,0.61,-0.008,0.117,9.792,-0.01,0.0,0.0
1777318191.302128,-15.44,0.42,0.61,0.005,0.123,9.785,-0.01,-0.01,0.0
1777318191.3121254,-15.44,0.42,0.61,0.016,0.116,9.786,-0.01,0.0,0.0
1777318191.3221488,-15.45,0.42,0.61,0.025,0.115,9.779,0.0,-0.01,0.0
1777318191.3321376,-15.45,0.42,0.61,0.035,0.098,9.764,0.0,-0.01,0.0
1777318191.342122,-15.46,0.42,0.61,0.037,0.079,9.776,0.0,-0.01,0.0
1777318191.3522375,-15.46,0.42,0.61,0.041,0.081,9.768,-0.01,-0.01,0.0
1777318191.3621433,-15.47,0.42,0.61,0.03,0.071,9.779,0.0,0.0,0.0
1777318191.3721275,-15.47,0.41,0.61,0.04,0.102,9.769,0.0,-0.01,0.0
1777318191.3821986,-15.47,0.42,0.61,0.036,0.127,9.775,0.0,0.0,0.0
1777318191.3921533,-15.47,0.41,0.62,0.031,0.163,9.781,0.0,-0.01,0.0
1777318191.4021423,-15.47,0.41,0.64,0.037,0.178,9.77,0.0,0.0,-0.01
1777318191.412124,-15.45,0.41,0.64,0.006,0.184,9.781,0.0,-0.01,-0.01
1777318191.4221256,-15.44,0.4,0.64,0.0,0.175,9.769,-0.01,-0.01,-0.01
1777318191.4321268,-15.44,0.4,0.64,-0.013,0.158,9.776,-0.01,0.0,-0.01
1777318191.4421506,-15.44,0.39,0.64,0.007,0.15,9.762,0.0,-0.01,-0.01
1777318191.4521432,-15.44,0.39,0.65,0.007,0.133,9.774,-0.01,0.0,0.0
1777318191.462137,-15.44,0.39,0.64,0.018,0.126,9.778,0.0,-0.01,0.0
1777318191.4721408,-15.45,0.39,0.64,0.029,0.119,9.768,-0.01,0.0,0.0
1777318191.4820976,-15.46,0.39,0.63,0.022,0.098,9.779,0.0,-0.01,0.0
1777318191.4921536,-15.47,0.39,0.63,0.03,0.103,9.77,-0.01,-0.01,0.0
1777318191.5021632,-15.47,0.39,0.63,0.028,0.086,9.781,-0.01,0.0,0.0
1777318191.5121422,-15.49,0.38,0.63,0.04,0.093,9.779,0.0,-0.01,0.0
1777318191.522135,-15.49,0.38,0.63,0.042,0.12,9.787,-0.01,0.0,0.0
1777318191.532125,-15.48,0.38,0.63,0.043,0.129,9.785,0.0,-0.01,0.0
1777318191.542139,-15.47,0.38,0.64,0.025,0.144,9.782,-0.01,0.0,-0.01
1777318191.5521104,-15.46,0.37,0.64,0.028,0.135,9.79,0.0,-0.01,-0.01
1777318191.562111,-15.44,0.37,0.64,0.014,0.127,9.79,0.0,0.0,-0.01
1777318191.572157,-15.44,0.36,0.64,0.026,0.119,9.787,0.0,0.0,-0.01
1777318191.5821466,-15.44,0.36,0.65,0.023,0.091,9.79,0.0,0.0,-0.01
1777318191.592916,-15.45,0.36,0.64,0.042,0.113,9.776,0.0,-0.01,0.0
1777318191.6028554,-15.46,0.37,0.65,0.031,0.115,9.784,0.0,-0.01,0.0
1777318191.6121657,-15.47,0.36,0.65,0.032,0.144,9.791,0.0,-0.01,0.0
1777318191.6221266,-15.47,0.36,0.66,0.038,0.157,9.794,-0.01,-0.01,0.0
1777318191.6321146,-15.47,0.36,0.65,0.081,0.196,9.798,0.0,-0.01,0.0
1777318191.6421041,-15.48,0.38,0.66,0.248,0.357,9.708,-0.01,0.0,0.0
1777318191.6521118,-15.49,0.41,0.72,0.299,0.449,9.673,-0.01,0.0,0.0
1777318191.6621091,-15.5,0.41,0.76,0.396,0.522,9.623,0.01,-0.01,0.0
1777318191.6721635,-15.5,0.43,0.75,0.448,0.441,9.604,0.0,0.0,0.0
1777318191.68216,-15.5,0.44,0.69,0.502,0.491,9.658,-0.02,0.0,-0.01
1777318191.6921136,-15.5,0.45,0.61,0.48,0.51,9.699,-0.05,0.0,-0.01
1777318191.702125,-15.51,0.43,0.53,0.39,0.519,9.729,-0.05,0.01,0.0
1777318191.7121272,-15.51,0.37,0.47,0.299,0.529,9.75,-0.05,0.02,0.0
1777318191.7221248,-15.51,0.27,0.4,0.2,0.497,9.764,-0.05,0.03,-0.01
1777318191.7321122,-15.5,0.15,0.36,0.2,0.587,9.701,-0.05,0.05,-0.01
1777318191.7421281,-15.48,0.06,0.33,0.245,0.348,9.713,-0.04,0.06,-0.01
1777318191.7521436,-15.47,-0.02,0.25,0.2,0.226,9.739,-0.03,0.05,-0.02
1777318191.762108,-15.48,-0.11,0.16,0.192,0.16,9.628,-0.04,0.05,-0.01
1777318191.772118,-15.5,-0.16,0.08,0.175,0.018,9.478,-0.05,0.05,0.0
1777318191.7821286,-15.53,-0.2,0.03,0.028,0.026,9.41,-0.04,0.02,0.02
1777318191.792109,-15.58,-0.26,-0.01,-0.159,-0.062,9.477,-0.03,0.02,0.02
1777318191.8020895,-15.6,-0.32,-0.03,-0.25,-0.113,9.539,-0.02,0.02,0.02
1777318191.8121486,-15.63,-0.35,-0.06,-0.229,-0.307,9.576,0.0,0.02,0.02
1777318191.8220978,-15.63,-0.33,-0.11,-0.207,-0.34,9.585,-0.01,0.0,0.01
1777318191.8320682,-15.64,-0.28,-0.14,-0.229,-0.183,9.529,-0.02,-0.02,0.0
1777318191.8420694,-15.64,-0.25,-0.11,-0.262,-0.054,9.452,-0.01,-0.03,0.0
1777318191.852244,-15.64,-0.22,-0.05,-0.183,0.054,9.429,0.01,-0.02,-0.01
1777318191.86206,-15.64,-0.18,0.02,-0.065,0.085,9.511,0.02,-0.02,-0.01
1777318191.87206,-15.64,-0.12,0.07,0.031,0.114,9.59,0.02,-0.02,0.0
1777318191.8820581,-15.63,-0.04,0.1,0.121,0.177,9.648,0.02,-0.03,-0.01
1777318191.892068,-15.63,0.06,0.15,0.175,0.317,9.69,0.01,-0.04,-0.01
1777318191.9020894,-15.62,0.13,0.19,0.178,0.444,9.721,0.01,-0.05,-0.01
1777318191.9120412,-15.61,0.17,0.25,0.242,0.577,9.745,0.0,-0.03,-0.01
1777318191.922049,-15.61,0.21,0.32,0.353,0.625,9.762,0.01,-0.02,-0.01
1777318191.9320524,-15.62,0.25,0.36,0.393,0.647,9.775,0.01,-0.02,0.0
1777318191.9420705,-15.63,0.28,0.39,0.424,0.642,9.785,0.0,-0.01,0.0
1777318191.9520607,-15.63,0.3,0.4,0.432,0.65,9.791,-0.01,-0.01,0.0
1777318191.96278,-15.63,0.31,0.4,0.419,0.678,9.797,-0.02,0.0,0.0
1777318191.971229,-15.62,0.3,0.41,0.351,0.63,9.8,-0.02,0.0,-0.01
1777318191.9811745,-15.61,0.26,0.4,0.303,0.596,9.802,-0.02,0.01,-0.01
1777318191.991152,-15.6,0.22,0.41,0.29,0.511,9.803,-0.02,0.02,-0.01
1777318192.0011678,-15.6,0.18,0.39,0.254,0.381,9.805,-0.01,0.02,-0.01
1777318192.0120637,-15.6,0.14,0.36,0.212,0.301,9.796,-0.02,0.02,0.0
1777318192.022052,-15.63,0.11,0.34,0.165,0.241,9.761,-0.02,0.02,0.0
1777318192.0320497,-15.65,0.08,0.33,0.11,0.207,9.679,-0.02,0.02,0.01
1777318192.0420465,-15.67,0.06,0.32,0.051,0.172,9.641,-0.01,0.01,0.01
1777318192.0520482,-15.68,0.04,0.31,0.01,0.163,9.624,-0.01,0.01,0.01
1777318192.0611913,-15.69,0.02,0.31,-0.025,0.153,9.648,-0.01,0.0,0.01
1777318192.0711691,-15.68,0.03,0.31,-0.048,0.133,9.681,-0.01,0.0,0.0
1777318192.0811925,-15.67,0.04,0.32,-0.069,0.121,9.691,-0.01,-0.01,-0.01
1777318192.0911727,-15.65,0.05,0.32,-0.049,0.123,9.678,0.0,-0.02,-0.02
1777318192.101181,-15.63,0.07,0.34,-0.022,0.119,9.657,0.0,-0.02,-0.02
1777318192.1112015,-15.63,0.1,0.37,0.04,0.146,9.648,0.01,-0.02,-0.01
1777318192.1211994,-15.62,0.14,0.4,0.079,0.162,9.685,0.01,-0.02,-0.01
1777318192.131185,-15.61,0.18,0.42,0.134,0.202,9.719,0.01,-0.02,-0.01
1777318192.1412034,-15.61,0.22,0.45,0.151,0.248,9.742,0.01,-0.02,-0.01
1777318192.1512022,-15.61,0.26,0.47,0.176,0.268,9.76,0.01,-0.02,-0.01
1777318192.1611989,-15.62,0.28,0.5,0.216,0.34,9.774,0.0,-0.02,0.0
1777318192.171204,-15.63,0.3,0.52,0.249,0.362,9.784,0.0,-0.02,0.0
1777318192.1811843,-15.63,0.33,0.55,0.301,0.429,9.788,0.0,-0.01,0.0
1777318192.1912029,-15.63,0.34,0.57,0.297,0.473,9.794,0.0,-0.01,0.0
1777318192.2017236,-15.63,0.35,0.59,0.314,0.487,9.798,-0.01,0.0,-0.01
1777318192.2112215,-15.62,0.34,0.61,0.287,0.462,9.802,-0.01,0.0,-0.01
1777318192.2211905,-15.61,0.34,0.61,0.261,0.436,9.804,-0.01,0.0,-0.01
1777318192.231172,-15.61,0.32,0.61,0.226,0.407,9.805,-0.01,0.01,-0.01
1777318192.2411869,-15.61,0.3,0.61,0.195,0.353,9.798,-0.01,0.01,-0.01
1777318192.2511542,-15.63,0.28,0.6,0.171,0.304,9.785,-0.01,0.01,0.0
1777318192.261192,-15.64,0.26,0.59,0.15,0.267,9.772,-0.01,0.01,0.0
1777318192.271181,-15.65,0.24,0.59,0.133,0.224,9.753,-0.01,0.01,0.01
1777318192.2811751,-15.67,0.23,0.58,0.098,0.213,9.735,-0.01,0.01,0.01
1777318192.2911825,-15.68,0.22,0.58,0.073,0.201,9.7,-0.01,0.0,0.01
1777318192.3012228,-15.69,0.21,0.58,0.05,0.198,9.697,-0.01,0.0,0.0
1777318192.311224,-15.68,0.21,0.58,0.02,0.199,9.714,-0.01,-0.01,0.0
1777318192.3212035,-15.67,0.21,0.58,0.002,0.192,9.729,-0.01,-0.01,-0.01
1777318192.3311522,-15.65,0.22,0.59,0.01,0.174,9.735,0.0,-0.01,-0.02
1777318192.3411553,-15.63,0.23,0.6,0.029,0.15,9.726,0.0,-0.01,-0.02
1777318192.3511457,-15.63,0.25,0.61,0.055,0.145,9.727,0.0,-0.01,-0.02
1777318192.3611276,-15.62,0.27,0.62,0.091,0.159,9.724,0.0,-0.02,-0.01
1777318192.3711329,-15.62,0.29,0.63,0.114,0.175,9.744,0.0,-0.02,-0.01
1777318192.3811548,-15.63,0.31,0.65,0.131,0.202,9.762,0.0,-0.02,0.0
1777318192.3911636,-15.63,0.33,0.67,0.156,0.237,9.774,0.0,-0.02,0.0
1777318192.4011395,-15.64,0.35,0.68,0.181,0.269,9.784,0.0,-0.01,0.0
1777318192.4111123,-15.65,0.36,0.7,0.205,0.303,9.79,0.0,-0.01,0.0
1777318192.4211621,-15.66,0.37,0.72,0.223,0.339,9.796,0.0,-0.01,0.0
1777318192.4311347,-15.66,0.38,0.74,0.23,0.366,9.799,0.0,-0.01,0.0
1777318192.4411182,-15.66,0.38,0.74,0.229,0.381,9.803,0.0,0.0,0.0
1777318192.4511232,-15.66,0.39,0.76,0.211,0.388,9.804,-0.01,0.0,-0.01
1777318192.4611447,-15.65,0.39,0.76,0.181,0.376,9.805,-0.01,0.0,-0.01
1777318192.47115,-15.64,0.37,0.76,0.156,0.354,9.806,-0.01,0.0,-0.01
1777318192.4811409,-15.63,0.36,0.76,0.138,0.315,9.799,-0.01,0.0,-0.01
1777318192.4911308,-15.63,0.34,0.76,0.129,0.263,9.787,-0.01,0.01,-0.01
1777318192.5011232,-15.64,0.34,0.75,0.123,0.212,9.764,-0.01,0.0,0.0
1777318192.511129,-15.65,0.34,0.74,0.123,0.181,9.759,-0.01,0.0,0.0
1777318192.5211475,-15.67,0.34,0.74,0.104,0.158,9.759,-0.01,0.0,0.0
1777318192.5311518,-15.68,0.33,0.73,0.087,0.152,9.761,-0.01,0.0,0.01
1777318192.5411184,-15.7,0.33,0.73,0.079,0.172,9.772,-0.01,0.0,0.01
1777318192.5511456,-15.7,0.33,0.74,0.081,0.176,9.772,0.0,0.0,0.0
1777318192.5611196,-15.7,0.34,0.75,0.08,0.193,9.773,0.0,0.0,0.0
1777318192.5716343,-15.68,0.34,0.76,0.089,0.207,9.779,0.0,-0.01,-0.01
1777318192.5811372,-15.66,0.35,0.77,0.091,0.212,9.781,0.0,-0.01,-0.02
1777318192.59115,-15.63,0.36,0.78,0.093,0.214,9.782,0.0,-0.01,-0.02
1777318192.601383,-15.62,0.36,0.79,0.09,0.207,9.787,0.0,-0.01,-0.02
1777318192.6110837,-15.61,0.37,0.8,0.102,0.204,9.786,0.0,-0.01,-0.01
1777318192.6211083,-15.61,0.38,0.81,0.117,0.207,9.793,0.0,-0.01,-0.01
1777318192.631138,-15.62,0.39,0.81,0.131,0.218,9.796,0.0,-0.01,0.0
1777318192.641119,-15.63,0.4,0.82,0.145,0.225,9.799,0.0,-0.01,0.0
1777318192.6511247,-15.65,0.41,0.83,0.153,0.251,9.803,-0.01,-0.01,0.01
1777318192.6611238,-15.66,0.42,0.83,0.16,0.271,9.804,-0.01,-0.01,0.01
1777318192.6711218,-15.68,0.42,0.84,0.16,0.297,9.805,-0.01,-0.01,0.0
1777318192.6811168,-15.68,0.42,0.85,0.164,0.304,9.806,-0.01,0.0,0.0
1777318192.6911345,-15.68,0.42,0.86,0.16,0.315,9.804,-0.01,0.0,0.0
1777318192.701132,-15.66,0.41,0.86,0.151,0.308,9.797,-0.01,0.0,-0.01
1777318192.7111318,-15.65,0.41,0.86,0.122,0.292,9.802,-0.01,0.0,-0.01
1777318192.7211277,-15.63,0.41,0.85,0.109,0.259,9.802,-0.01,0.0,-0.02
1777318192.7311168,-15.63,0.4,0.86,0.095,0.217,9.799,-0.01,0.0,-0.01
1777318192.741131,-15.63,0.39,0.85,0.09,0.174,9.782,-0.01,0.0,-0.01
1777318192.7511313,-15.63,0.39,0.85,0.093,0.138,9.762,0.0,0.0,0.0
1777318192.761128,-15.64,0.39,0.84,0.098,0.127,9.754,-0.01,0.0,0.0
1777318192.7711456,-15.66,0.4,0.84,0.092,0.127,9.766,-0.01,-0.01,0.01
1777318192.7816596,-15.68,0.4,0.84,0.097,0.144,9.778,-0.01,-0.01,0.01
1777318192.7911367,-15.68,0.41,0.85,0.099,0.162,9.786,0.0,-0.01,0.01
1777318192.8011553,-15.7,0.41,0.85,0.107,0.183,9.793,0.0,-0.01,0.0
1777318192.8111415,-15.7,0.42,0.87,0.109,0.216,9.798,0.0,-0.01,0.0
1777318192.8211367,-15.69,0.42,0.88,0.127,0.245,9.787,0.0,-0.01,-0.01
1777318192.8311632,-15.68,0.43,0.89,0.122,0.268,9.791,0.0,-0.01,-0.01
1777318192.8411465,-15.66,0.44,0.9,0.113,0.286,9.797,0.0,-0.01,-0.02
1777318192.8511572,-15.63,0.44,0.91,0.101,0.285,9.799,-0.01,-0.01,-0.02
1777318192.861792,-15.62,0.44,0.91,0.093,0.28,9.803,-0.01,-0.01,-0.02
1777318192.8716,-15.61,0.44,0.92,0.105,0.244,9.802,0.0,-0.01,-0.02
1777318192.8815877,-15.61,0.44,0.92,0.121,0.214,9.79,0.0,0.0,-0.01
1777318192.891099,-15.62,0.45,0.91,0.141,0.194,9.784,-0.01,0.0,0.0
1777318192.9010913,-15.63,0.46,0.91,0.148,0.186,9.79,-0.01,-0.01,0.0
1777318192.9110954,-15.66,0.46,0.91,0.152,0.193,9.797,-0.01,-0.01,0.01
1777318192.921863,-15.68,0.46,0.91,0.151,0.201,9.799,-0.01,0.0,0.01
1777318192.9315505,-15.69,0.46,0.91,0.157,0.207,9.8,-0.01,0.0,0.01
1777318192.9415624,-15.7,0.46,0.92,0.15,0.208,9.802,-0.01,0.0,0.0
1777318192.9515505,-15.7,0.46,0.92,0.144,0.21,9.799,0.0,0.0,0.0
1777318192.9616108,-15.7,0.45,0.92,0.127,0.218,9.793,-0.01,0.0,0.0
1777318192.9716337,-15.69,0.45,0.93,0.11,0.23,9.786,0.0,0.0,-0.01
1777318192.981552,-15.68,0.44,0.94,0.096,0.232,9.776,0.0,0.0,-0.01
1777318192.9910874,-15.67,0.44,0.94,0.08,0.225,9.784,0.0,0.0,-0.01
1777318193.0010796,-15.66,0.44,0.94,0.055,0.219,9.788,-0.01,-0.01,-0.01
1777318193.0110815,-15.65,0.44,0.94,0.051,0.201,9.787,-0.01,-0.01,-0.01
1777318193.021099,-15.65,0.44,0.94,0.048,0.19,9.79,-0.01,-0.01,-0.01
1777318193.031474,-15.65,0.44,0.94,0.068,0.184,9.781,0.0,-0.01,-0.01
1777318193.0415726,-15.66,0.45,0.94,0.091,0.176,9.78,0.0,-0.01,0.0
1777318193.05178,-15.67,0.46,0.95,0.114,0.176,9.787,0.0,-0.01,0.0
1777318193.061707,-15.68,0.47,0.95,0.137,0.188,9.793,-0.01,-0.01,0.0
1777318193.0715516,-15.69,0.48,0.94,0.148,0.204,9.799,-0.01,-0.01,0.0
1777318193.0819707,-15.69,0.48,0.96,0.156,0.218,9.803,-0.01,-0.01,0.0
1777318193.0905135,-15.69,0.49,0.96,0.162,0.219,9.805,0.0,-0.01,0.0
1777318193.1019773,-15.69,0.49,0.96,0.166,0.23,9.806,0.0,0.0,-0.01
1777318193.1111042,-15.68,0.49,0.97,0.159,0.245,9.8,0.0,0.0,-0.01
1777318193.1202106,-15.67,0.49,0.98,0.145,0.237,9.797,0.0,0.0,-0.01
1777318193.1302316,-15.66,0.49,0.98,0.115,0.249,9.798,-0.01,0.0,-0.01
1777318193.1402385,-15.65,0.48,0.98,0.087,0.234,9.803,-0.01,0.0,-0.01
1777318193.1510913,-15.64,0.47,0.98,0.065,0.219,9.8,-0.01,0.0,-0.01
1777318193.1610808,-15.64,0.47,0.98,0.061,0.19,9.793,0.0,0.0,-0.01
1777318193.1702356,-15.65,0.47,0.98,0.063,0.168,9.776,0.0,0.0,0.0
1777318193.1810887,-15.66,0.47,0.97,0.075,0.16,9.768,0.0,0.0,0.0
1777318193.1910954,-15.68,0.47,0.97,0.081,0.156,9.774,-0.01,-0.01,0.0
1777318193.201133,-15.69,0.48,0.96,0.084,0.172,9.785,-0.01,-0.01,0.01
1777318193.2106514,-15.7,0.48,0.97,0.096,0.188,9.792,-0.01,-0.01,0.0
1777318193.2201996,-15.71,0.48,0.97,0.11,0.199,9.797,-0.01,-0.01,0.0
1777318193.230165,-15.71,0.49,0.98,0.116,0.216,9.799,0.0,-0.01,0.0
1777318193.2401934,-15.7,0.49,0.98,0.121,0.231,9.787,0.0,0.0,-0.01
1777318193.250201,-15.69,0.49,0.99,0.122,0.236,9.786,0.0,-0.01,-0.01
1777318193.2601688,-15.67,0.5,1.0,0.101,0.237,9.791,-0.01,-0.01,-0.02
1777318193.2710917,-15.66,0.49,1.0,0.092,0.224,9.797,0.0,-0.01,-0.02
1777318193.2801769,-15.64,0.49,1.0,0.089,0.213,9.802,0.0,0.0,-0.02
1777318193.2901685,-15.64,0.49,1.01,0.093,0.187,9.797,0.0,0.0,-0.01
1777318193.300165,-15.65,0.49,1.0,0.101,0.172,9.786,0.0,0.0,0.0
1777318193.310158,-15.66,0.49,1.0,0.107,0.17,9.785,-0.01,-0.01,0.0
1777318193.3201435,-15.68,0.5,1.0,0.109,0.175,9.791,-0.01,-0.01,0.01
1777318193.3301463,-15.7,0.5,1.0,0.114,0.194,9.797,-0.01,-0.01,0.01
1777318193.340144,-15.71,0.5,1.0,0.111,0.212,9.8,-0.01,-0.01,0.01
1777318193.3501675,-15.72,0.5,1.0,0.111,0.228,9.798,0.0,0.0,0.0
1777318193.3601623,-15.72,0.5,1.01,0.114,0.235,9.793,0.0,0.0,0.0
1777318193.370187,-15.71,0.5,1.01,0.109,0.236,9.792,0.0,0.0,-0.01
1777318193.3801584,-15.69,0.5,1.02,0.09,0.245,9.797,-0.01,0.0,-0.01
1777318193.390161,-15.68,0.49,1.02,0.081,0.222,9.799,0.0,-0.01,-0.02
1777318193.4001398,-15.66,0.49,1.02,0.073,0.195,9.804,0.0,0.0,-0.02
1777318193.4101567,-15.66,0.49,1.01,0.072,0.164,9.803,0.0,0.0,-0.01
1777318193.42016,-15.66,0.49,1.01,0.079,0.145,9.792,0.0,0.0,-0.01
1777318193.430125,-15.67,0.49,1.01,0.087,0.137,9.773,0.0,0.0,0.0
1777318193.4401572,-15.68,0.49,1.01,0.091,0.139,9.774,0.0,-0.01,0.0
1777318193.4501479,-15.7,0.5,1.0,0.099,0.153,9.785,-0.01,-0.01,0.01
1777318193.4601507,-15.71,0.5,1.01,0.099,0.183,9.792,-0.01,-0.01,0.01
1777318193.470189,-15.72,0.5,1.02,0.104,0.206,9.793,0.0,-0.01,0.0
1777318193.480161,-15.72,0.51,1.02,0.104,0.23,9.792,0.0,-0.01,0.0
1777318193.490159,-15.71,0.51,1.02,0.104,0.245,9.798,0.0,-0.01,-0.01
1777318193.5001626,-15.69,0.51,1.03,0.108,0.248,9.802,-0.01,-0.01,-0.01
1777318193.510155,-15.68,0.51,1.03,0.101,0.224,9.803,0.0,0.0,-0.02
1777318193.5201411,-15.66,0.5,1.03,0.102,0.199,9.805,0.0,0.0,-0.02
1777318193.530132,-15.66,0.5,1.03,0.101,0.184,9.802,0.0,0.0,-0.01
1777318193.5401487,-15.66,0.5,1.03,0.105,0.158,9.788,0.0,0.0,-0.01
1777318193.5501473,-15.66,0.51,1.02,0.108,0.148,9.786,-0.01,0.0,0.0
1777318193.560151,-15.68,0.51,1.02,0.11,0.146,9.791,-0.01,-0.01,0.0
1777318193.57015,-15.7,0.52,1.02,0.107,0.166,9.797,-0.01,-0.01,0.01
1777318193.5801582,-15.71,0.52,1.02,0.102,0.193,9.8,-0.01,-0.01,0.01
1777318193.5901198,-15.72,0.52,1.03,0.111,0.208,9.799,0.0,0.0,0.0
1777318193.60015,-15.72,0.52,1.04,0.105,0.225,9.802,0.0,-0.01,0.0
1777318193.6101465,-15.71,0.52,1.04,0.105,0.223,9.805,0.0,0.0,-0.01
1777318193.6201386,-15.71,0.51,1.05,0.097,0.218,9.8,0.0,0.0,-0.01
1777318193.6301677,-15.69,0.51,1.05,0.103,0.217,9.803,0.0,0.0,-0.01
1777318193.6401532,-15.68,0.5,1.05,0.099,0.194,9.79,0.0,0.0,-0.01
1777318193.6501443,-15.66,0.51,1.05,0.095,0.189,9.786,0.0,0.0,-0.02
1777318193.660166,-15.66,0.51,1.05,0.087,0.17,9.79,-0.01,-0.01,-0.01
1777318193.6701689,-15.66,0.51,1.04,0.081,0.172,9.794,-0.01,-0.01,-0.01
1777318193.6801453,-15.66,0.51,1.04,0.078,0.16,9.799,0.0,-0.01,-0.01
1777318193.6901324,-15.67,0.51,1.04,0.096,0.159,9.799,0.0,0.0,0.0
1777318193.7001834,-15.69,0.52,1.04,0.109,0.157,9.803,0.0,-0.01,0.0
1777318193.7101526,-15.7,0.52,1.04,0.116,0.168,9.804,-0.01,-0.01,0.0
1777318193.720163,-15.71,0.53,1.04,0.114,0.178,9.803,-0.01,-0.01,0.0
1777318193.7301557,-15.71,0.53,1.04,0.113,0.192,9.805,-0.01,-0.01,0.0
1777318193.740138,-15.72,0.53,1.04,0.117,0.199,9.805,0.0,0.0,0.0
1777318193.7501638,-15.71,0.53,1.05,0.117,0.202,9.808,0.0,0.0,0.0
1777318193.7601585,-15.71,0.52,1.05,0.111,0.208,9.798,0.0,0.0,-0.01
1777318193.7701416,-15.71,0.52,1.06,0.104,0.222,9.79,0.0,0.0,-0.01
1777318193.7801342,-15.7,0.52,1.06,0.099,0.22,9.794,-0.01,0.0,-0.01
1777318193.790154,-15.69,0.52,1.06,0.069,0.219,9.798,-0.01,-0.01,-0.01
1777318193.8001335,-15.68,0.51,1.06,0.062,0.208,9.8,-0.01,-0.01,-0.01
1777318193.8101337,-15.67,0.51,1.06,0.059,0.186,9.803,-0.01,0.0,-0.01
1777318193.820174,-15.68,0.51,1.05,0.075,0.166,9.803,0.0,0.0,-0.01
1777318193.830137,-15.69,0.51,1.05,0.087,0.151,9.794,0.0,0.0,0.0
1777318193.8401146,-15.69,0.52,1.04,0.093,0.159,9.79,-0.01,-0.01,0.0
1777318193.850145,-15.71,0.53,1.04,0.108,0.154,9.788,-0.01,-0.01,0.0
1777318193.8601453,-15.71,0.53,1.04,0.097,0.181,9.794,-0.01,-0.01,0.0
1777318193.8701522,-15.71,0.53,1.04,0.108,0.183,9.799,-0.01,-0.01,0.0
1777318193.8801384,-15.71,0.53,1.05,0.102,0.189,9.802,0.0,0.0,0.0
1777318193.8901203,-15.71,0.53,1.06,0.111,0.196,9.803,0.0,0.0,-0.01
1777318193.9002244,-15.71,0.53,1.06,0.121,0.188,9.798,0.0,0.0,-0.01
1777318193.9101417,-15.7,0.52,1.06,0.116,0.189,9.802,0.0,0.0,-0.01
1777318193.9201152,-15.69,0.52,1.07,0.104,0.189,9.804,0.0,0.0,-0.01
1777318193.9306514,-15.69,0.51,1.07,0.096,0.195,9.805,0.0,0.0,-0.01
1777318193.94014,-15.69,0.51,1.07,0.087,0.199,9.805,0.0,0.0,-0.01
1777318193.9501426,-15.68,0.51,1.07,0.077,0.204,9.803,-0.01,-0.01,-0.01
1777318193.9602864,-15.68,0.51,1.07,0.067,0.2,9.804,-0.01,-0.01,-0.01
1777318193.9701364,-15.68,0.51,1.07,0.068,0.196,9.804,-0.01,-0.01,-0.01
1777318193.9812617,-15.69,0.51,1.07,0.073,0.192,9.805,0.0,0.0,0.0
1777318193.990083,-15.69,0.51,1.07,0.083,0.177,9.802,0.0,0.0,0.0
1777318194.000258,-15.7,0.51,1.07,0.092,0.184,9.799,-0.01,-0.01,0.0
1777318194.0106106,-15.71,0.52,1.06,0.102,0.186,9.794,-0.01,-0.01,0.0
1777318194.0200996,-15.71,0.53,1.06,0.101,0.2,9.799,-0.01,-0.01,0.0
1777318194.0301077,-15.7,0.53,1.06,0.104,0.192,9.802,-0.01,-0.01,-0.01
1777318194.0401146,-15.7,0.53,1.06,0.096,0.196,9.804,-0.01,-0.01,-0.01
1777318194.0507402,-15.69,0.52,1.07,0.113,0.178,9.804,0.0,0.0,-0.01
1777318194.0601475,-15.69,0.52,1.07,0.098,0.186,9.797,0.0,0.0,-0.01
1777318194.0701132,-15.68,0.52,1.07,0.116,0.178,9.79,0.0,0.0,-0.01
1777318194.080123,-15.68,0.53,1.07,0.093,0.174,9.793,-0.01,0.0,-0.01
1777318194.090109,-15.67,0.53,1.06,0.095,0.177,9.791,0.0,-0.01,-0.01
1777318194.1001804,-15.67,0.52,1.07,0.091,0.166,9.796,0.0,-0.01,-0.01
1777318194.1091726,-15.68,0.52,1.07,0.095,0.174,9.798,0.0,0.0,0.0
1777318194.1200933,-15.69,0.52,1.07,0.096,0.172,9.797,0.0,0.0,0.0
1777318194.130073,-15.7,0.52,1.07,0.097,0.184,9.794,0.0,0.0,0.0
1777318194.140105,-15.71,0.52,1.07,0.096,0.19,9.796,0.0,-0.01,0.0
1777318194.1500905,-15.71,0.52,1.07,0.097,0.2,9.8,0.0,-0.01,0.0
1777318194.1600883,-15.71,0.52,1.07,0.104,0.204,9.803,0.0,0.0,0.0
1777318194.1692057,-15.71,0.52,1.08,0.108,0.201,9.805,0.0,0.0,0.0
1777318194.1800866,-15.71,0.52,1.08,0.108,0.196,9.802,0.0,0.0,0.0
1777318194.1892025,-15.71,0.52,1.08,0.104,0.199,9.796,0.0,0.0,-0.01
1777318194.1991708,-15.71,0.52,1.09,0.101,0.201,9.78,0.0,0.0,-0.01
1777318194.210103,-15.71,0.52,1.08,0.091,0.205,9.78,0.0,0.0,-0.01
1777318194.2200835,-15.71,0.52,1.09,0.081,0.199,9.788,-0.01,-0.01,-0.01
1777318194.2300828,-15.71,0.52,1.08,0.073,0.194,9.794,-0.01,-0.01,-0.01
1777318194.2392097,-15.71,0.52,1.08,0.075,0.184,9.798,0.0,-0.01,-0.01
1777318194.2491968,-15.71,0.52,1.08,0.086,0.174,9.785,0.0,0.0,-0.01
1777318194.2600834,-15.71,0.52,1.08,0.095,0.171,9.778,0.0,0.0,0.0
1777318194.26921,-15.71,0.52,1.08,0.103,0.168,9.775,-0.01,-0.01,0.0
1777318194.2792282,-15.71,0.53,1.08,0.101,0.177,9.785,-0.01,-0.01,0.0
1777318194.2891917,-15.72,0.53,1.08,0.102,0.176,9.792,-0.01,-0.01,0.0
1777318194.3000634,-15.72,0.53,1.08,0.104,0.19,9.793,0.0,0.0,0.0
1777318194.3092067,-15.72,0.53,1.08,0.117,0.19,9.788,0.0,0.0,-0.01
1777318194.3192089,-15.71,0.53,1.08,0.11,0.19,9.79,0.0,-0.01,-0.01
1777318194.3291929,-15.71,0.54,1.08,0.104,0.189,9.793,0.0,-0.01,-0.01
1777318194.3391907,-15.71,0.53,1.08,0.097,0.181,9.793,-0.01,-0.01,-0.01
1777318194.3491855,-15.71,0.53,1.08,0.09,0.194,9.798,0.0,0.0,-0.01
1777318194.359205,-15.71,0.53,1.08,0.092,0.172,9.794,0.0,-0.01,-0.01
1777318194.3692317,-15.71,0.53,1.08,0.089,0.181,9.79,0.0,0.0,0.0
1777318194.3791883,-15.71,0.53,1.08,0.091,0.175,9.787,0.0,-0.01,0.0
1777318194.3892102,-15.72,0.53,1.08,0.093,0.184,9.79,0.0,0.0,0.0
1777318194.3991926,-15.72,0.53,1.08,0.097,0.184,9.79,-0.01,-0.01,0.0
1777318194.4091818,-15.72,0.54,1.08,0.097,0.193,9.794,-0.01,0.0,0.0
1777318194.4191618,-15.72,0.53,1.08,0.099,0.188,9.799,-0.01,-0.01,-0.01
1777318194.4292037,-15.72,0.53,1.08,0.105,0.178,9.8,0.0,0.0,-0.01
1777318194.4391756,-15.72,0.53,1.08,0.115,0.175,9.799,0.0,0.0,-0.01
1777318194.4492037,-15.72,0.54,1.08,0.111,0.18,9.803,-0.01,0.0,0.0
1777318194.459196,-15.72,0.54,1.08,0.111,0.178,9.805,0.0,-0.01,0.0
1777318194.469203,-15.72,0.54,1.08,0.091,0.19,9.806,-0.01,-0.01,-0.01
1777318194.4791982,-15.71,0.54,1.08,0.091,0.189,9.804,-0.01,-0.01,-0.01
1777318194.4893563,-15.71,0.53,1.08,0.08,0.194,9.799,0.0,0.0,-0.01
1777318194.4992244,-15.71,0.53,1.08,0.093,0.183,9.793,0.0,0.0,-0.01
1777318194.509194,-15.72,0.53,1.08,0.091,0.181,9.797,0.0,0.0,0.0
1777318194.5191946,-15.72,0.53,1.08,0.105,0.175,9.788,0.0,0.0,0.0
1777318194.5291495,-15.73,0.54,1.08,0.097,0.178,9.793,-0.01,-0.01,0.0
1777318194.5391767,-15.73,0.54,1.08,0.089,0.198,9.796,-0.01,-0.01,0.0
1777318194.5491874,-15.73,0.53,1.09,0.104,0.187,9.794,0.0,0.0,0.0
1777318194.5591836,-15.73,0.54,1.09,0.098,0.205,9.799,0.0,0.0,-0.01
1777318194.5691814,-15.72,0.54,1.09,0.101,0.195,9.798,-0.01,-0.01,-0.01
1777318194.5791712,-15.71,0.54,1.09,0.105,0.193,9.799,-0.01,0.0,-0.01
1777318194.5891643,-15.71,0.54,1.09,0.097,0.188,9.8,-0.01,0.0,-0.01
1777318194.5991747,-15.71,0.54,1.09,0.093,0.178,9.803,-0.01,-0.01,-0.01
1777318194.6091633,-15.71,0.53,1.08,0.097,0.17,9.798,0.0,0.0,-0.01
1777318194.6191537,-15.71,0.54,1.08,0.101,0.166,9.794,0.0,0.0,0.0
1777318194.6291776,-15.72,0.54,1.08,0.095,0.16,9.797,0.0,-0.01,0.0
1777318194.6391573,-15.73,0.54,1.08,0.108,0.164,9.788,0.0,0.0,0.0
1777318194.6491678,-15.74,0.54,1.08,0.107,0.176,9.792,-0.01,-0.01,0.0
1777318194.6591759,-15.74,0.54,1.08,0.101,0.189,9.793,0.0,-0.01,0.0
1777318194.6691601,-15.74,0.54,1.09,0.103,0.19,9.785,0.0,-0.01,0.0
1777318194.679158,-15.74,0.54,1.09,0.103,0.205,9.791,0.0,0.0,-0.01
1777318194.6891346,-15.73,0.54,1.09,0.102,0.198,9.794,0.0,-0.01,-0.01
1777318194.6991467,-15.72,0.54,1.09,0.095,0.199,9.793,-0.01,0.0,-0.01
1777318194.709143,-15.72,0.54,1.09,0.093,0.186,9.794,0.0,-0.01,-0.01
1777318194.7191658,-15.72,0.54,1.09,0.083,0.186,9.799,0.0,0.0,-0.01
1777318194.7291439,-15.72,0.53,1.09,0.09,0.18,9.793,0.0,-0.01,0.0
1777318194.7392006,-15.73,0.54,1.09,0.095,0.181,9.787,0.0,0.0,0.0
1777318194.749169,-15.73,0.54,1.09,0.097,0.184,9.794,-0.01,-0.01,0.0
1777318194.7592793,-15.74,0.55,1.09,0.097,0.19,9.799,-0.01,-0.01,0.0
1777318194.7691517,-15.74,0.54,1.09,0.101,0.194,9.802,-0.01,-0.01,0.0
1777318194.7791505,-15.74,0.54,1.09,0.098,0.205,9.803,0.0,0.0,-0.01
1777318194.7891817,-15.73,0.54,1.1,0.113,0.196,9.793,0.0,0.0,-0.01
1777318194.799189,-15.72,0.54,1.1,0.122,0.192,9.791,0.0,0.0,-0.01
1777318194.8091755,-15.71,0.55,1.1,0.111,0.19,9.797,0.0,-0.01,-0.01
1777318194.8191555,-15.71,0.55,1.1,0.097,0.182,9.8,-0.01,-0.01,-0.01
1777318194.8291683,-15.7,0.55,1.09,0.086,0.181,9.803,-0.01,-0.01,-0.01
1777318194.839158,-15.7,0.54,1.1,0.087,0.168,9.796,0.0,0.0,-0.01
1777318194.8491616,-15.71,0.54,1.1,0.095,0.152,9.793,0.0,0.0,0.0
1777318194.859191,-15.71,0.54,1.09,0.108,0.156,9.782,0.0,0.0,0.0
1777318194.8691576,-15.72,0.54,1.09,0.113,0.162,9.787,0.0,-0.01,0.0
1777318194.8791842,-15.73,0.55,1.09,0.101,0.188,9.793,-0.01,-0.01,0.0
1777318194.8891706,-15.74,0.55,1.09,0.099,0.2,9.798,-0.01,-0.01,0.0
1777318194.8991752,-15.73,0.55,1.1,0.093,0.202,9.802,-0.01,-0.01,0.0
1777318194.9091575,-15.73,0.55,1.1,0.104,0.207,9.794,0.0,0.0,-0.01
1777318194.919147,-15.72,0.55,1.1,0.11,0.187,9.796,0.0,0.0,-0.01
1777318194.9291751,-15.71,0.55,1.1,0.117,0.186,9.793,0.0,0.0,-0.01
1777318194.9393172,-15.71,0.55,1.1,0.109,0.177,9.793,-0.01,0.0,-0.01
1777318194.9491634,-15.71,0.55,1.1,0.096,0.176,9.792,-0.01,0.0,-0.01
1777318194.9591658,-15.71,0.55,1.09,0.095,0.164,9.793,0.0,-0.01,-0.01
1777318194.969147,-15.71,0.55,1.09,0.092,0.171,9.792,0.0,0.0,0.0
1777318194.9791658,-15.72,0.55,1.09,0.103,0.166,9.788,0.0,0.0,0.0
1777318194.9891593,-15.72,0.55,1.09,0.092,0.176,9.79,-0.01,-0.01,0.0
1777318194.9991417,-15.73,0.55,1.09,0.095,0.188,9.79,0.0,-0.01,0.0
1777318195.0091417,-15.73,0.55,1.1,0.09,0.19,9.796,-0.01,-0.01,0.0
1777318195.0192444,-15.73,0.55,1.1,0.099,0.198,9.799,0.0,0.0,0.0
1777318195.0292547,-15.73,0.55,1.1,0.104,0.196,9.802,0.0,0.0,-0.01
1777318195.0391705,-15.73,0.55,1.1,0.101,0.198,9.8,-0.01,-0.01,-0.01
1777318195.0491533,-15.72,0.55,1.1,0.093,0.199,9.804,0.0,-0.01,-0.01
1777318195.0591438,-15.72,0.55,1.1,0.092,0.189,9.799,-0.01,-0.01,-0.01
1777318195.0691304,-15.72,0.55,1.1,0.084,0.178,9.802,0.0,0.0,-0.01
1777318195.0791628,-15.72,0.55,1.1,0.091,0.168,9.803,0.0,0.0,0.0
1777318195.0891259,-15.73,0.55,1.1,0.095,0.176,9.803,0.0,0.0,0.0
1777318195.0991678,-15.73,0.55,1.1,0.093,0.178,9.805,0.0,-0.01,0.0
1777318195.1095057,-15.73,0.55,1.1,0.095,0.192,9.805,-0.01,-0.01,0.0
