timestamp,yaw,pitch,roll,accel_x,accel_y,accel_z,gyro_x,gyro_y,gyro_z
1777733863.5616508,-12.3,-0.07,-1.59,-0.007,-0.271,9.812,0.0,0.0,0.0
1777733863.571586,-12.3,-0.07,-1.59,-0.013,-0.268,9.812,-0.01,0.0,0.0
1777733863.582491,-12.3,-0.07,-1.59,-0.01,-0.273,9.812,0.0,-0.01,0.0
1777733863.5916083,-12.3,-0.07,-1.59,-0.006,-0.268,9.812,0.0,0.0,0.0
1777733863.6025298,-12.3,-0.07,-1.59,-0.004,-0.275,9.812,0.0,0.0,0.0
1777733863.6120093,-12.3,-0.07,-1.59,-0.007,-0.277,9.812,0.0,0.0,-0.01
1777733863.6216586,-12.3,-0.07,-1.59,-0.01,-0.275,9.812,0.0,-0.01,-0.01
1777733863.6317856,-12.3,-0.07,-1.59,-0.046,-0.277,9.812,0.0,-0.01,-0.01
1777733863.643127,-12.3,-0.09,-1.59,-0.116,-0.286,9.812,-0.01,-0.01,-0.01
1777733863.6517124,-12.31,-0.11,-1.59,-0.195,-0.272,9.814,0.0,0.0,-0.01
1777733863.661599,-12.32,-0.14,-1.58,-0.228,-0.262,9.812,0.0,0.0,0.0
1777733863.6716309,-12.33,-0.14,-1.57,-0.245,-0.256,9.812,0.0,-0.01,0.0
1777733863.6816342,-12.34,-0.13,-1.55,-0.242,-0.219,9.812,0.0,-0.01,0.0
1777733863.6915834,-12.33,-0.11,-1.54,-0.2,-0.187,9.812,0.0,-0.02,0.0
1777733863.701572,-12.3,-0.07,-1.53,-0.177,-0.162,9.812,0.0,-0.02,-0.01
1777733863.711607,-12.27,-0.04,-1.52,-0.132,-0.144,9.812,0.0,-0.02,-0.02
1777733863.721587,-12.22,0.01,-1.51,-0.065,-0.148,9.812,0.0,-0.02,-0.03
1777733863.7315931,-12.16,0.04,-1.5,-0.047,-0.204,9.812,0.0,-0.02,-0.03
1777733863.7415805,-12.12,0.08,-1.5,0.011,-0.274,9.812,0.0,-0.02,-0.03
1777733863.7517154,-12.08,0.12,-1.52,0.072,-0.348,9.812,0.0,-0.02,-0.03
1777733863.7620764,-12.08,0.15,-1.54,0.114,-0.406,9.812,-0.01,-0.02,-0.02
1777733863.7719247,-12.08,0.17,-1.57,0.172,-0.422,9.812,-0.01,-0.02,-0.01
1777733863.7816918,-12.11,0.19,-1.57,0.196,-0.42,9.814,-0.01,-0.01,0.01
1777733863.7917175,-12.14,0.2,-1.58,0.196,-0.376,9.812,-0.01,-0.01,0.01
1777733863.8016672,-12.15,0.19,-1.58,0.182,-0.341,9.812,-0.01,0.0,0.01
1777733863.811723,-12.16,0.18,-1.58,0.14,-0.319,9.812,0.0,0.0,0.01
1777733863.8215551,-12.15,0.16,-1.58,0.072,-0.317,9.812,0.0,0.01,0.0
1777733863.8315887,-12.15,0.13,-1.58,0.001,-0.325,9.812,0.0,0.01,-0.01
1777733863.84159,-12.13,0.11,-1.58,-0.061,-0.338,9.812,0.0,0.01,-0.01
1777733863.8523328,-12.13,0.09,-1.58,-0.119,-0.358,9.812,0.0,0.0,-0.01
1777733863.862351,-12.14,0.06,-1.58,-0.16,-0.347,9.812,0.0,0.0,-0.01
1777733863.872208,-12.15,0.05,-1.57,-0.183,-0.308,9.812,0.0,0.0,0.0
1777733863.8815942,-12.16,0.04,-1.57,-0.193,-0.268,9.812,0.0,-0.01,0.0
1777733863.8921525,-12.17,0.04,-1.57,-0.169,-0.219,9.812,-0.01,-0.01,0.0
1777733863.9020197,-12.17,0.05,-1.55,-0.132,-0.196,9.812,-0.01,-0.01,0.0
1777733863.9120383,-12.16,0.05,-1.55,-0.097,-0.189,9.812,-0.01,-0.01,-0.01
1777733863.9220784,-12.15,0.06,-1.55,-0.057,-0.211,9.812,0.0,-0.01,-0.01
1777733863.9316041,-12.13,0.06,-1.55,-0.023,-0.263,9.812,-0.01,-0.01,-0.02
1777733863.9416325,-12.13,0.07,-1.57,-0.011,-0.309,9.812,-0.01,-0.01,-0.01
1777733863.9516158,-12.13,0.06,-1.58,0.0,-0.35,9.812,-0.01,0.0,-0.01
1777733863.961611,-12.14,0.06,-1.58,-0.008,-0.359,9.812,-0.01,0.0,0.0
1777733863.9716,-12.15,0.05,-1.59,-0.013,-0.345,9.812,-0.01,0.0,0.0
1777733863.9816,-12.16,0.04,-1.59,-0.041,-0.298,9.812,0.0,0.0,0.0
1777733863.9916117,-12.16,0.04,-1.58,-0.065,-0.274,9.812,0.0,0.0,0.0
1777733864.0015864,-12.15,0.03,-1.57,-0.085,-0.265,9.812,0.0,0.0,0.0
1777733864.0116105,-12.15,0.02,-1.57,-0.114,-0.26,9.812,0.0,0.0,-0.01
1777733864.0215917,-12.15,0.01,-1.57,-0.123,-0.256,9.812,0.0,-0.01,-0.01
1777733864.032074,-12.14,0.01,-1.57,-0.111,-0.263,9.812,-0.01,-0.01,-0.01
1777733864.0420756,-12.14,0.01,-1.57,-0.102,-0.272,9.812,-0.01,-0.01,-0.01
1777733864.051839,-12.14,0.01,-1.58,-0.072,-0.287,9.812,-0.01,-0.01,0.0
1777733864.0616038,-12.15,0.01,-1.58,-0.051,-0.287,9.812,-0.01,-0.01,0.0
1777733864.0715618,-12.15,0.01,-1.58,-0.032,-0.283,9.812,-0.01,-0.01,0.0
1777733864.0816066,-12.15,0.01,-1.58,-0.018,-0.304,9.812,-0.01,-0.01,0.0
1777733864.091702,-12.15,0.01,-1.58,-0.006,-0.295,9.812,-0.01,0.0,-0.01
1777733864.1020617,-12.15,0.01,-1.58,-0.008,-0.313,9.812,0.0,0.0,-0.01
1777733864.1121132,-12.15,0.01,-1.58,-0.031,-0.298,9.812,0.0,0.0,-0.01
1777733864.1215513,-12.15,0.0,-1.58,-0.048,-0.308,9.812,0.0,0.0,0.0
1777733864.1319892,-12.16,-0.01,-1.58,-0.071,-0.291,9.812,0.0,0.0,0.0
1777733864.142308,-12.16,-0.01,-1.57,-0.086,-0.274,9.812,-0.01,0.0,0.0
1777733864.1518464,-12.16,-0.02,-1.57,-0.09,-0.259,9.812,0.0,0.0,0.0
1777733864.1620991,-12.16,-0.02,-1.57,-0.087,-0.253,9.812,-0.01,-0.01,0.0
1777733864.1718624,-12.16,-0.02,-1.57,-0.08,-0.26,9.812,-0.01,-0.01,-0.01
1777733864.1818058,-12.15,-0.02,-1.58,-0.071,-0.271,9.812,-0.01,-0.01,-0.01
1777733864.1920648,-12.15,-0.02,-1.58,-0.057,-0.285,9.812,-0.01,-0.01,-0.01
1777733864.201749,-12.14,-0.02,-1.58,-0.043,-0.301,9.812,0.0,-0.01,-0.01
1777733864.211668,-12.14,-0.02,-1.59,-0.034,-0.308,9.812,-0.01,-0.01,-0.01
1777733864.2219737,-12.15,-0.02,-1.59,-0.02,-0.308,9.812,0.0,-0.01,0.0
1777733864.231047,-12.15,-0.02,-1.59,-0.022,-0.303,9.812,0.0,0.0,0.0
1777733864.241595,-12.15,-0.02,-1.59,-0.035,-0.297,9.812,-0.01,0.0,0.0
1777733864.2517915,-12.16,-0.03,-1.59,-0.044,-0.286,9.812,0.0,0.0,0.0
1777733864.2623427,-12.16,-0.04,-1.59,-0.053,-0.277,9.812,0.0,0.0,0.0
1777733864.2712317,-12.16,-0.04,-1.59,-0.062,-0.269,9.812,-0.01,0.0,0.0
1777733864.2817433,-12.16,-0.04,-1.59,-0.075,-0.259,9.812,-0.01,0.0,0.0
1777733864.2918198,-12.16,-0.05,-1.58,-0.079,-0.248,9.812,-0.01,-0.01,0.0
1777733864.3014565,-12.16,-0.05,-1.58,-0.071,-0.259,9.812,-0.01,-0.01,-0.01
1777733864.3107877,-12.16,-0.05,-1.58,-0.063,-0.269,9.812,-0.01,-0.01,-0.01
1777733864.3215737,-12.15,-0.05,-1.58,-0.054,-0.277,9.812,-0.01,-0.01,-0.01
1777733864.3323805,-12.15,-0.05,-1.58,-0.036,-0.287,9.812,-0.01,-0.01,-0.01
1777733864.3420365,-12.15,-0.05,-1.58,-0.024,-0.304,9.812,0.0,-0.01,-0.01
1777733864.3515794,-12.15,-0.05,-1.59,-0.019,-0.302,9.812,0.0,-0.01,0.0
1777733864.3608582,-12.15,-0.05,-1.59,-0.018,-0.296,9.812,0.0,0.0,0.0
1777733864.371018,-12.15,-0.05,-1.59,-0.028,-0.284,9.812,0.0,0.0,0.0
1777733864.381945,-12.15,-0.06,-1.59,-0.037,-0.278,9.812,0.0,0.0,0.0
1777733864.391681,-12.15,-0.06,-1.58,-0.047,-0.284,9.812,-0.01,0.0,-0.01
1777733864.4012856,-12.15,-0.06,-1.58,-0.061,-0.275,9.812,0.0,0.0,-0.01
1777733864.4107623,-12.15,-0.07,-1.58,-0.051,-0.291,9.812,0.0,0.0,-0.01
1777733864.4207277,-12.16,-0.06,-1.59,-0.06,-0.275,9.812,0.0,0.0,0.0
1777733864.4307263,-12.16,-0.07,-1.59,-0.053,-0.28,9.812,-0.01,-0.01,0.0
1777733864.4410357,-12.16,-0.07,-1.59,-0.054,-0.273,9.812,-0.01,-0.01,0.0
1777733864.4507372,-12.16,-0.07,-1.59,-0.057,-0.283,9.812,-0.01,-0.01,-0.01
1777733864.4607403,-12.16,-0.07,-1.59,-0.048,-0.272,9.812,-0.01,-0.01,-0.01
1777733864.470768,-12.15,-0.07,-1.59,-0.041,-0.301,9.812,0.0,-0.01,-0.01
1777733864.4808984,-12.15,-0.07,-1.59,-0.032,-0.289,9.812,-0.01,0.0,-0.01
1777733864.4911742,-12.15,-0.07,-1.6,-0.035,-0.296,9.812,0.0,-0.01,-0.01
1777733864.5007455,-12.16,-0.08,-1.6,-0.034,-0.286,9.812,-0.01,-0.01,0.0
1777733864.510732,-12.16,-0.08,-1.59,-0.038,-0.287,9.812,0.0,0.0,0.0
1777733864.5207312,-12.16,-0.08,-1.6,-0.041,-0.28,9.812,-0.01,-0.01,0.0
1777733864.5307512,-12.16,-0.08,-1.59,-0.041,-0.262,9.812,-0.01,0.0,0.0
1777733864.5414944,-12.15,-0.08,-1.59,-0.038,-0.281,9.812,0.0,-0.01,-0.01
1777733864.550723,-12.15,-0.09,-1.59,-0.047,-0.277,9.812,0.0,0.0,-0.01
1777733864.5607371,-12.15,-0.09,-1.59,-0.037,-0.303,9.812,-0.01,0.0,-0.01
1777733864.5707114,-12.16,-0.09,-1.59,-0.049,-0.299,9.812,0.0,-0.01,0.0
1777733864.5807135,-12.16,-0.09,-1.59,-0.037,-0.293,9.812,0.0,-0.01,0.0
1777733864.590764,-12.16,-0.09,-1.59,-0.034,-0.292,9.812,0.0,0.0,0.0
1777733864.6013412,-12.16,-0.09,-1.59,-0.038,-0.279,9.812,-0.01,-0.01,0.0
1777733864.6107082,-12.16,-0.09,-1.59,-0.032,-0.278,9.812,0.0,0.0,0.0
1777733864.6207511,-12.16,-0.09,-1.59,-0.043,-0.279,9.812,0.0,-0.01,-0.01
1777733864.6307125,-12.16,-0.09,-1.59,-0.005,-0.244,9.812,0.0,0.0,-0.01
1777733864.6415138,-12.16,-0.08,-1.57,0.097,-0.18,9.812,0.0,-0.01,-0.01
1777733864.6507041,-12.16,-0.06,-1.52,0.138,-0.084,9.812,0.0,-0.01,0.0
1777733864.6607163,-12.16,-0.05,-1.5,0.195,-0.12,9.812,0.01,-0.01,0.0
1777733864.670729,-12.18,-0.07,-1.5,0.304,-0.073,9.811,0.0,0.01,0.0
1777733864.6807373,-12.25,-0.16,-1.88,-0.344,-1.235,9.814,-0.01,0.02,0.01
1777733864.6907382,-12.29,-0.49,-2.25,-0.235,-0.977,9.691,-0.16,0.08,0.05
1777733864.7006872,-12.29,-0.41,-2.46,-0.478,-0.82,9.656,-0.19,0.08,0.01
1777733864.7107067,-12.31,-0.57,-2.54,-1.05,-0.674,9.361,-0.1,-0.02,0.01
1777733864.720704,-12.34,-0.59,-2.6,-0.851,-0.592,9.107,-0.04,0.02,0.0
1777733864.730722,-12.32,-0.51,-2.42,-0.674,-0.523,9.235,0.0,-0.02,0.02
1777733864.740692,-12.3,-0.38,-2.29,-0.627,-0.199,9.388,0.07,-0.07,-0.02
1777733864.7507071,-12.29,-0.3,-2.16,-0.213,-0.353,9.501,0.07,-0.07,-0.02
1777733864.7606761,-12.32,-0.18,-2.2,0.109,-0.298,9.585,0.05,-0.04,-0.01
1777733864.7706811,-12.41,-0.14,-2.27,0.31,-0.095,9.647,-0.03,-0.04,0.03
1777733864.7806802,-12.53,-0.11,-2.3,0.588,0.404,9.693,-0.06,0.0,0.05
1777733864.7910707,-12.65,-0.05,-2.19,0.753,0.748,9.724,-0.05,0.0,0.07
1777733864.8008797,-12.75,-0.01,-2.05,0.697,1.068,9.749,0.0,-0.01,0.06
1777733864.8111086,-12.8,0.0,-1.86,0.639,1.049,9.764,0.03,0.0,0.05
1777733864.8211436,-12.82,-0.02,-1.75,0.485,0.805,9.778,0.05,0.0,0.02
1777733864.831211,-12.8,-0.08,-1.77,0.332,0.671,9.787,0.02,0.02,0.0
1777733864.8409646,-12.73,-0.15,-1.83,0.2,0.653,9.796,-0.04,0.03,-0.02
1777733864.8510716,-12.63,-0.22,-1.85,0.035,0.684,9.799,-0.05,0.03,-0.05
1777733864.8606687,-12.5,-0.26,-1.83,-0.065,0.545,9.803,-0.04,0.02,-0.07
1777733864.8707213,-12.35,-0.28,-1.81,-0.205,0.274,9.806,-0.01,0.01,-0.08
1777733864.8807042,-12.21,-0.29,-1.83,-0.303,0.01,9.809,0.0,-0.01,-0.08
1777733864.8906956,-12.11,-0.3,-1.87,-0.332,-0.371,9.809,-0.01,-0.02,-0.08
1777733864.9006994,-12.07,-0.3,-1.95,-0.329,-0.68,9.811,-0.01,-0.01,-0.05
1777733864.9107118,-12.09,-0.29,-2.05,-0.303,-0.825,9.812,-0.02,-0.01,-0.02
1777733864.9210896,-12.16,-0.28,-2.12,-0.219,-0.816,9.815,-0.03,-0.02,0.02
1777733864.9311402,-12.25,-0.25,-2.13,-0.146,-0.707,9.815,-0.02,-0.02,0.04
1777733864.9411616,-12.33,-0.21,-2.1,-0.044,-0.592,9.814,0.0,-0.02,0.05
1777733864.951236,-12.4,-0.18,-2.06,0.04,-0.507,9.814,0.02,-0.02,0.04
1777733864.9611068,-12.44,-0.16,-2.03,0.083,-0.407,9.816,0.02,-0.02,0.03
1777733864.9706447,-12.45,-0.16,-2.0,0.15,-0.237,9.815,0.0,-0.01,0.02
1777733864.9806259,-12.45,-0.15,-1.96,0.186,-0.091,9.815,0.0,0.0,0.0
1777733864.9906483,-12.44,-0.15,-1.9,0.193,0.036,9.814,0.01,0.0,-0.01
1777733865.0006225,-12.44,-0.15,-1.85,0.188,0.115,9.814,0.01,0.0,-0.01
1777733865.010766,-12.45,-0.16,-1.8,0.138,0.186,9.814,0.01,0.0,0.0
1777733865.0206857,-12.46,-0.17,-1.77,0.066,0.241,9.814,0.01,0.0,0.0
1777733865.030375,-12.47,-0.19,-1.74,-0.01,0.254,9.814,0.0,0.0,0.01
1777733865.0411308,-12.46,-0.21,-1.74,-0.072,0.262,9.814,-0.01,0.0,0.0
1777733865.0511372,-12.43,-0.22,-1.74,-0.116,0.237,9.814,-0.02,0.0,-0.02
1777733865.0606146,-12.38,-0.22,-1.73,-0.134,0.187,9.814,-0.02,-0.01,-0.02
1777733865.0706336,-12.32,-0.22,-1.74,-0.144,0.041,9.814,-0.02,-0.01,-0.03
1777733865.0806413,-12.26,-0.2,-1.76,-0.12,-0.097,9.814,-0.01,-0.01,-0.04
1777733865.090671,-12.21,-0.19,-1.8,-0.068,-0.237,9.815,-0.02,-0.01,-0.04
1777733865.1003814,-12.2,-0.17,-1.82,-0.016,-0.338,9.814,-0.02,-0.01,-0.02
1777733865.1106665,-12.21,-0.16,-1.85,0.038,-0.447,9.815,-0.01,-0.01,-0.01
1777733865.1206403,-12.24,-0.14,-1.87,0.087,-0.499,9.814,-0.01,-0.01,0.01
1777733865.1306846,-12.29,-0.14,-1.87,0.101,-0.471,9.815,0.0,-0.01,0.02
1777733865.139949,-12.32,-0.14,-1.86,0.087,-0.402,9.814,0.0,0.0,0.02
1777733865.1502728,-12.35,-0.16,-1.84,0.05,-0.334,9.814,0.0,0.0,0.02
1777733865.1603703,-12.35,-0.17,-1.82,0.022,-0.248,9.814,0.0,0.01,0.01
1777733865.17017,-12.34,-0.19,-1.79,-0.03,-0.141,9.815,0.0,0.0,-0.01
1777733865.179815,-12.32,-0.2,-1.76,-0.06,-0.068,9.814,0.0,0.0,-0.02
1777733865.1898568,-12.31,-0.2,-1.72,-0.079,-0.029,9.814,0.01,0.0,-0.02
1777733865.1997929,-12.31,-0.2,-1.7,-0.09,-0.017,9.814,0.01,-0.01,-0.01
1777733865.20981,-12.31,-0.2,-1.69,-0.066,0.008,9.814,0.0,-0.01,-0.01
1777733865.2198298,-12.33,-0.19,-1.68,-0.041,0.036,9.814,-0.01,-0.01,0.0
1777733865.2301745,-12.34,-0.18,-1.68,-0.004,0.048,9.812,-0.01,-0.01,0.01
1777733865.2404113,-12.35,-0.17,-1.67,0.013,0.03,9.812,-0.01,-0.01,0.0
1777733865.2497785,-12.34,-0.16,-1.66,0.035,-0.012,9.812,-0.01,-0.01,0.0
1777733865.2600517,-12.32,-0.15,-1.67,0.041,-0.071,9.814,-0.01,-0.01,-0.01
1777733865.269764,-12.3,-0.15,-1.68,0.026,-0.14,9.814,-0.01,0.0,-0.02
1777733865.2797933,-12.28,-0.16,-1.69,0.013,-0.207,9.812,-0.01,0.0,-0.02
1777733865.2897522,-12.26,-0.16,-1.7,-0.014,-0.278,9.814,-0.01,0.0,-0.02
1777733865.2998013,-12.25,-0.17,-1.71,-0.038,-0.328,9.814,0.0,0.0,-0.02
1777733865.309801,-12.25,-0.17,-1.71,-0.06,-0.357,9.814,0.0,-0.01,-0.01
1777733865.3197901,-12.27,-0.18,-1.7,-0.075,-0.339,9.812,0.0,-0.01,0.0
1777733865.3297613,-12.29,-0.18,-1.7,-0.055,-0.304,9.814,0.0,0.0,0.01
1777733865.339796,-12.32,-0.18,-1.69,-0.043,-0.23,9.814,-0.01,-0.01,0.01
1777733865.3498435,-12.34,-0.17,-1.68,-0.012,-0.156,9.812,0.0,-0.01,0.01
1777733865.3598413,-12.35,-0.16,-1.65,-0.004,-0.089,9.812,0.0,-0.01,0.01
1777733865.370208,-12.35,-0.15,-1.62,0.007,-0.044,9.812,0.0,-0.01,0.0
1777733865.3800113,-12.33,-0.15,-1.6,0.014,-0.025,9.812,0.0,-0.01,-0.01
1777733865.3907914,-12.32,-0.15,-1.59,0.028,-0.028,9.812,0.0,-0.01,-0.02
1777733865.3997517,-12.31,-0.15,-1.59,0.041,-0.037,9.814,-0.01,0.0,-0.02
1777733865.4104016,-12.3,-0.14,-1.6,0.043,-0.05,9.812,-0.01,0.0,-0.01
1777733865.4200287,-12.31,-0.14,-1.59,0.024,-0.079,9.814,-0.01,0.0,-0.01
1777733865.4301426,-12.31,-0.14,-1.59,-0.001,-0.111,9.814,-0.01,0.0,0.0
1777733865.4402149,-12.32,-0.15,-1.59,-0.035,-0.152,9.812,-0.01,-0.01,0.0
1777733865.4502547,-12.31,-0.16,-1.59,-0.06,-0.183,9.814,-0.01,0.0,0.0
1777733865.4597366,-12.3,-0.16,-1.59,-0.078,-0.216,9.812,-0.01,0.0,-0.01
1777733865.4697416,-12.28,-0.17,-1.6,-0.075,-0.248,9.812,-0.01,0.0,-0.01
1777733865.479742,-12.27,-0.16,-1.59,-0.069,-0.271,9.812,0.0,-0.01,-0.02
1777733865.4897473,-12.26,-0.16,-1.59,-0.05,-0.284,9.812,0.0,-0.01,-0.02
1777733865.4997466,-12.27,-0.15,-1.59,-0.019,-0.274,9.812,0.0,-0.01,-0.01
1777733865.509739,-12.28,-0.15,-1.59,0.006,-0.245,9.812,0.0,-0.01,0.0
1777733865.5197968,-12.31,-0.14,-1.58,0.046,-0.193,9.814,-0.01,0.0,0.01
1777733865.5297585,-12.33,-0.14,-1.57,0.061,-0.141,9.812,-0.01,0.0,0.01
1777733865.539763,-12.35,-0.14,-1.55,0.055,-0.097,9.812,0.0,0.0,0.01
1777733865.549852,-12.35,-0.14,-1.53,0.03,-0.06,9.812,0.0,0.0,0.0
1777733865.5597959,-12.34,-0.14,-1.52,0.0,-0.047,9.812,0.0,0.0,0.0
1777733865.569746,-12.32,-0.15,-1.52,-0.034,-0.056,9.812,-0.01,0.0,-0.01
1777733865.5797496,-12.29,-0.16,-1.52,-0.054,-0.09,9.812,-0.01,0.0,-0.02
1777733865.5897505,-12.27,-0.16,-1.52,-0.069,-0.122,9.812,-0.01,0.0,-0.02
1777733865.599732,-12.26,-0.16,-1.52,-0.067,-0.18,9.812,-0.01,-0.01,-0.02
1777733865.6097524,-12.26,-0.15,-1.52,-0.047,-0.234,9.812,-0.01,-0.01,-0.01
1777733865.6197512,-12.27,-0.14,-1.53,-0.026,-0.261,9.812,-0.01,-0.01,0.0
1777733865.6297584,-12.28,-0.14,-1.54,0.0,-0.265,9.812,-0.01,-0.01,0.0
1777733865.6397555,-12.3,-0.14,-1.54,0.024,-0.244,9.812,-0.01,-0.01,0.01
1777733865.6498017,-12.31,-0.13,-1.53,0.032,-0.211,9.811,-0.01,0.0,0.01
1777733865.659726,-12.31,-0.13,-1.52,0.028,-0.188,9.811,0.0,0.0,0.0
1777733865.6697042,-12.3,-0.13,-1.51,0.008,-0.176,9.812,0.0,0.0,-0.01
1777733865.6797593,-12.28,-0.14,-1.5,-0.019,-0.164,9.812,0.0,0.0,-0.01
1777733865.6897554,-12.28,-0.15,-1.49,-0.03,-0.164,9.812,0.0,0.0,-0.02
1777733865.69974,-12.27,-0.15,-1.49,-0.043,-0.159,9.812,0.0,0.0,-0.01
1777733865.7097962,-12.27,-0.15,-1.48,-0.04,-0.158,9.812,-0.01,0.0,-0.01
1777733865.7197595,-12.28,-0.15,-1.48,-0.032,-0.154,9.812,-0.01,-0.01,0.0
1777733865.7296925,-12.3,-0.15,-1.48,-0.024,-0.146,9.811,-0.01,-0.01,0.01
1777733865.7397041,-12.32,-0.14,-1.48,-0.017,-0.139,9.811,-0.01,-0.01,0.01
1777733865.7497365,-12.32,-0.14,-1.47,-0.011,-0.135,9.811,-0.01,-0.01,0.0
1777733865.759714,-12.3,-0.14,-1.47,-0.008,-0.139,9.811,-0.01,-0.01,-0.01
1777733865.7697837,-12.29,-0.14,-1.46,-0.005,-0.166,9.812,-0.01,0.0,-0.01
1777733865.7797003,-12.27,-0.14,-1.46,-0.008,-0.2,9.812,0.0,0.0,-0.02
1777733865.7896805,-12.26,-0.14,-1.46,-0.008,-0.229,9.812,0.0,0.0,-0.02
1777733865.799737,-12.26,-0.14,-1.47,-0.014,-0.248,9.812,0.0,0.0,-0.01
1777733865.8097324,-12.27,-0.14,-1.47,-0.013,-0.256,9.812,-0.01,0.0,0.0
1777733865.8197143,-12.29,-0.14,-1.47,-0.006,-0.231,9.812,-0.01,0.0,0.01
1777733865.8302252,-12.3,-0.14,-1.46,-0.008,-0.194,9.811,-0.01,0.0,0.01
1777733865.839728,-12.32,-0.14,-1.46,-0.007,-0.158,9.812,0.0,0.0,0.01
1777733865.8501399,-12.32,-0.13,-1.44,-0.019,-0.131,9.811,0.0,-0.01,0.0
1777733865.8597755,-12.3,-0.13,-1.43,-0.026,-0.125,9.811,0.0,-0.01,-0.01
1777733865.8702335,-12.28,-0.13,-1.43,-0.035,-0.131,9.812,0.0,-0.01,-0.02
1777733865.8793068,-12.27,-0.13,-1.43,-0.026,-0.151,9.812,-0.01,-0.01,-0.02
1777733865.8901706,-12.26,-0.13,-1.43,-0.023,-0.174,9.812,-0.01,-0.01,-0.02
1777733865.9001667,-12.26,-0.13,-1.43,-0.004,-0.198,9.812,-0.01,-0.01,-0.01
1777733865.909731,-12.28,-0.13,-1.43,0.0,-0.207,9.812,-0.01,-0.01,0.0
1777733865.9188879,-12.29,-0.13,-1.43,0.004,-0.193,9.812,-0.01,-0.01,0.01
1777733865.9288733,-12.3,-0.13,-1.43,-0.002,-0.188,9.811,-0.01,-0.01,0.01
1777733865.939484,-12.3,-0.13,-1.42,-0.011,-0.171,9.811,-0.01,0.0,0.0
1777733865.949199,-12.3,-0.13,-1.42,-0.023,-0.163,9.811,-0.01,0.0,-0.01
1777733865.958872,-12.28,-0.13,-1.41,-0.036,-0.174,9.812,0.0,0.0,-0.01
1777733865.9688606,-12.26,-0.13,-1.41,-0.041,-0.194,9.812,0.0,-0.01,-0.02
1777733865.9792354,-12.26,-0.13,-1.41,-0.037,-0.218,9.811,0.0,-0.01,-0.02
1777733865.9893146,-12.26,-0.13,-1.41,-0.025,-0.236,9.811,0.0,-0.01,-0.01
1777733865.999335,-12.28,-0.13,-1.41,-0.007,-0.228,9.812,-0.01,-0.01,0.0
1777733866.008895,-12.3,-0.12,-1.41,0.012,-0.199,9.811,-0.01,-0.01,0.01
1777733866.0189397,-12.31,-0.12,-1.41,0.014,-0.168,9.811,-0.01,-0.01,0.01
1777733866.0288665,-12.32,-0.12,-1.4,0.02,-0.148,9.811,0.0,0.0,0.01
1777733866.0388331,-12.32,-0.12,-1.39,0.004,-0.134,9.811,0.0,0.0,0.0
1777733866.0488842,-12.31,-0.13,-1.39,-0.014,-0.134,9.811,0.0,0.0,-0.01
1777733866.0589077,-12.28,-0.13,-1.39,-0.031,-0.148,9.812,0.0,0.0,-0.02
1777733866.068884,-12.26,-0.13,-1.39,-0.046,-0.178,9.812,0.0,0.0,-0.02
1777733866.0788395,-12.26,-0.13,-1.39,-0.047,-0.205,9.811,-0.01,0.0,-0.02
1777733866.0888577,-12.26,-0.13,-1.39,-0.049,-0.229,9.811,-0.01,-0.01,-0.01
1777733866.0988507,-12.26,-0.13,-1.39,-0.034,-0.237,9.812,-0.01,-0.01,0.0
1777733866.1088526,-12.28,-0.12,-1.39,-0.022,-0.232,9.812,-0.01,-0.01,0.0
1777733866.1188955,-12.3,-0.12,-1.39,-0.006,-0.211,9.811,-0.01,-0.01,0.01
1777733866.128951,-12.3,-0.12,-1.39,0.011,-0.186,9.811,-0.01,0.0,0.01
1777733866.1388328,-12.31,-0.12,-1.38,0.016,-0.16,9.811,0.0,0.0,0.0
1777733866.1494455,-12.3,-0.12,-1.37,0.012,-0.153,9.811,0.0,0.0,-0.01
1777733866.1591067,-12.29,-0.12,-1.37,-0.007,-0.159,9.812,0.0,0.0,-0.01
1777733866.168996,-12.28,-0.13,-1.37,-0.029,-0.174,9.812,0.0,0.0,-0.02
1777733866.179369,-12.26,-0.13,-1.37,-0.035,-0.19,9.811,0.0,0.0,-0.01
1777733866.189049,-12.26,-0.13,-1.37,-0.043,-0.201,9.811,-0.01,-0.01,-0.01
1777733866.1989496,-12.27,-0.13,-1.37,-0.037,-0.208,9.812,-0.01,-0.01,0.0
1777733866.2090373,-12.28,-0.13,-1.37,-0.029,-0.211,9.812,-0.01,-0.01,0.0
1777733866.218839,-12.29,-0.12,-1.37,-0.022,-0.2,9.812,-0.01,-0.01,0.0
1777733866.228958,-12.31,-0.12,-1.37,-0.004,-0.182,9.811,-0.01,-0.01,0.0
1777733866.2388194,-12.31,-0.12,-1.36,-0.004,-0.175,9.811,-0.01,-0.01,0.0
1777733866.2488377,-12.29,-0.12,-1.36,-0.004,-0.174,9.811,-0.01,-0.01,-0.01
1777733866.2588358,-12.28,-0.12,-1.35,-0.012,-0.193,9.812,0.0,0.0,-0.01
1777733866.2688272,-12.26,-0.12,-1.35,-0.014,-0.211,9.811,0.0,0.0,-0.02
1777733866.2788215,-12.26,-0.12,-1.35,-0.02,-0.231,9.811,0.0,0.0,-0.01
1777733866.2888188,-12.26,-0.12,-1.36,-0.023,-0.241,9.811,0.0,0.0,-0.01
1777733866.2988145,-12.27,-0.12,-1.36,-0.019,-0.234,9.812,-0.01,0.0,0.0
1777733866.308894,-12.28,-0.13,-1.36,-0.022,-0.216,9.812,-0.01,-0.01,0.0
1777733866.3188155,-12.3,-0.12,-1.35,-0.02,-0.199,9.811,-0.01,0.0,0.01
1777733866.3289607,-12.31,-0.12,-1.35,-0.016,-0.168,9.811,-0.01,0.0,0.01
1777733866.3388,-12.31,-0.12,-1.35,-0.023,-0.151,9.811,-0.01,-0.01,0.0
1777733866.3488011,-12.29,-0.12,-1.34,-0.018,-0.154,9.811,-0.01,-0.01,-0.01
1777733866.3589194,-12.28,-0.12,-1.34,-0.022,-0.175,9.812,0.0,-0.01,-0.02
1777733866.3687809,-12.26,-0.12,-1.34,-0.025,-0.193,9.811,0.0,-0.01,-0.02
1777733866.3790123,-12.25,-0.12,-1.34,-0.019,-0.214,9.811,-0.01,0.0,-0.02
1777733866.3887892,-12.26,-0.12,-1.34,-0.008,-0.236,9.811,0.0,-0.01,-0.01
1777733866.3987653,-12.26,-0.12,-1.35,-0.002,-0.24,9.811,-0.01,-0.01,0.0
1777733866.4087546,-12.28,-0.11,-1.35,0.001,-0.225,9.812,-0.01,-0.01,0.0
1777733866.4187577,-12.3,-0.12,-1.35,0.005,-0.201,9.811,-0.01,0.0,0.01
1777733866.4288557,-12.3,-0.12,-1.34,0.002,-0.181,9.811,0.0,0.0,0.0
1777733866.4387906,-12.3,-0.12,-1.33,-0.007,-0.171,9.811,0.0,0.0,0.0
1777733866.4488597,-12.28,-0.12,-1.33,-0.023,-0.171,9.812,0.0,0.0,-0.01
1777733866.4587853,-12.27,-0.12,-1.32,-0.036,-0.186,9.811,0.0,0.0,-0.02
1777733866.4688292,-12.25,-0.12,-1.32,-0.044,-0.2,9.811,0.0,0.0,-0.02
1777733866.4788337,-12.25,-0.12,-1.33,-0.046,-0.222,9.811,0.0,-0.01,-0.01
1777733866.4889562,-12.25,-0.11,-1.33,-0.04,-0.234,9.811,-0.01,-0.01,-0.01
1777733866.4988875,-12.26,-0.12,-1.34,-0.016,-0.234,9.811,-0.01,-0.01,0.0
1777733866.5087998,-12.28,-0.11,-1.34,0.0,-0.225,9.812,-0.01,-0.01,0.0
1777733866.5187788,-12.29,-0.11,-1.33,0.016,-0.207,9.811,-0.01,-0.01,0.01
1777733866.5287802,-12.3,-0.11,-1.33,0.023,-0.192,9.811,0.0,0.0,0.0
1777733866.5387836,-12.3,-0.11,-1.33,0.02,-0.175,9.811,-0.01,0.0,0.0
1777733866.5495245,-12.28,-0.11,-1.32,0.006,-0.174,9.812,0.0,0.0,-0.01
1777733866.5588028,-12.27,-0.11,-1.32,-0.014,-0.188,9.811,0.0,0.0,-0.01
1777733866.5688322,-12.26,-0.11,-1.32,-0.037,-0.204,9.811,0.0,0.0,-0.02
1777733866.5787408,-12.25,-0.12,-1.32,-0.055,-0.219,9.811,0.0,0.0,-0.01
1777733866.588744,-12.25,-0.12,-1.32,-0.055,-0.23,9.811,-0.01,-0.01,-0.01
1777733866.5988133,-12.26,-0.11,-1.32,-0.049,-0.242,9.811,0.0,-0.01,0.0
1777733866.6088555,-12.26,-0.11,-1.33,-0.028,-0.247,9.811,-0.01,-0.01,0.0
1777733866.6190631,-12.28,-0.11,-1.33,-0.013,-0.23,9.812,-0.01,-0.01,0.0
1777733866.6293936,-12.29,-0.11,-1.33,0.002,-0.214,9.811,-0.01,-0.01,0.0
1777733866.638762,-12.29,-0.11,-1.33,0.02,-0.198,9.811,-0.01,0.0,0.0
1777733866.6478624,-12.28,-0.11,-1.32,0.02,-0.19,9.812,0.0,0.0,0.0
1777733866.6578534,-12.28,-0.11,-1.32,0.007,-0.189,9.812,0.0,0.0,-0.01
1777733866.668767,-12.26,-0.11,-1.31,-0.011,-0.198,9.811,0.0,0.0,-0.01
1777733866.6787305,-12.26,-0.11,-1.31,-0.034,-0.206,9.811,0.0,0.0,-0.01
1777733866.6887257,-12.25,-0.12,-1.32,-0.053,-0.217,9.811,0.0,0.0,-0.01
1777733866.6987298,-12.25,-0.12,-1.32,-0.057,-0.23,9.811,-0.01,0.0,-0.01
1777733866.7087297,-12.26,-0.12,-1.32,-0.05,-0.226,9.811,-0.01,-0.01,0.0
1777733866.7190206,-12.26,-0.11,-1.32,-0.031,-0.224,9.811,-0.01,-0.01,0.0
1777733866.728752,-12.28,-0.11,-1.32,-0.007,-0.213,9.812,-0.01,-0.01,0.0
1777733866.7387483,-12.28,-0.11,-1.32,0.011,-0.208,9.812,-0.01,-0.01,0.0
1777733866.7478702,-12.28,-0.11,-1.32,0.02,-0.196,9.812,-0.01,-0.01,0.0
1777733866.7578728,-12.28,-0.11,-1.31,0.011,-0.192,9.812,0.0,0.0,-0.01
1777733866.767852,-12.26,-0.11,-1.31,-0.001,-0.196,9.811,0.0,0.0,-0.01
1777733866.7778656,-12.25,-0.11,-1.31,-0.016,-0.206,9.811,0.0,0.0,-0.01
1777733866.7878535,-12.24,-0.11,-1.31,-0.029,-0.219,9.811,0.0,0.0,-0.01
1777733866.7978742,-12.24,-0.11,-1.31,-0.032,-0.235,9.811,-0.01,-0.01,-0.01
1777733866.8078594,-12.25,-0.11,-1.32,-0.028,-0.24,9.811,-0.01,0.0,0.0
1777733866.8178685,-12.26,-0.11,-1.32,-0.02,-0.229,9.811,-0.01,-0.01,0.0
1777733866.8278863,-12.28,-0.11,-1.32,-0.012,-0.213,9.812,-0.01,-0.01,0.0
1777733866.838262,-12.28,-0.11,-1.31,-0.006,-0.189,9.812,-0.01,-0.01,0.0
1777733866.8482633,-12.28,-0.11,-1.31,-0.002,-0.171,9.812,0.0,-0.01,0.0
1777733866.8578846,-12.27,-0.11,-1.3,-0.007,-0.171,9.812,0.0,-0.01,-0.01
1777733866.8678958,-12.26,-0.1,-1.3,-0.01,-0.181,9.811,0.0,0.0,-0.01
1777733866.8778653,-12.25,-0.1,-1.3,-0.013,-0.196,9.811,0.0,0.0,-0.02
1777733866.88785,-12.24,-0.1,-1.3,-0.018,-0.223,9.811,0.0,0.0,-0.01
1777733866.8978536,-12.24,-0.1,-1.3,-0.019,-0.236,9.811,0.0,-0.01,-0.01
1777733866.9078653,-12.26,-0.11,-1.31,-0.016,-0.234,9.811,-0.01,-0.01,0.0
1777733866.9178698,-12.27,-0.11,-1.31,-0.01,-0.222,9.812,-0.01,-0.01,0.01
1777733866.9278493,-12.28,-0.11,-1.3,-0.001,-0.205,9.812,-0.01,-0.01,0.01
1777733866.938207,-12.29,-0.11,-1.3,-0.004,-0.19,9.811,-0.01,0.0,0.0
1777733866.9478717,-12.29,-0.1,-1.3,-0.016,-0.174,9.811,-0.01,0.0,0.0
1777733866.9579043,-12.28,-0.1,-1.3,-0.026,-0.181,9.812,0.0,0.0,-0.01
1777733866.9678533,-12.26,-0.1,-1.3,-0.032,-0.193,9.811,0.0,0.0,-0.02
1777733866.9783387,-12.25,-0.1,-1.3,-0.04,-0.207,9.811,0.0,-0.01,-0.02
1777733866.9878726,-12.24,-0.1,-1.3,-0.03,-0.224,9.811,0.0,-0.01,-0.01
1777733866.9978614,-12.24,-0.1,-1.3,-0.026,-0.241,9.811,0.0,-0.01,-0.01
1777733867.0079284,-12.25,-0.1,-1.3,-0.017,-0.24,9.811,-0.01,-0.01,0.0
1777733867.0178764,-12.26,-0.1,-1.3,-0.004,-0.226,9.811,-0.01,-0.01,0.0
1777733867.0278337,-12.28,-0.1,-1.3,0.005,-0.202,9.812,-0.01,-0.01,0.01
1777733867.0379536,-12.28,-0.1,-1.3,0.011,-0.186,9.811,-0.01,0.0,0.0
1777733867.0479827,-12.28,-0.1,-1.29,0.004,-0.174,9.811,-0.01,0.0,0.0
1777733867.0578332,-12.27,-0.1,-1.29,-0.006,-0.175,9.811,0.0,0.0,-0.01
1777733867.067837,-12.26,-0.1,-1.28,-0.025,-0.19,9.811,0.0,0.0,-0.01
1777733867.0778306,-12.25,-0.11,-1.29,-0.041,-0.206,9.811,0.0,0.0,-0.02
1777733867.0878353,-12.24,-0.11,-1.29,-0.047,-0.22,9.811,-0.01,0.0,-0.01
1777733867.0978663,-12.24,-0.11,-1.3,-0.047,-0.234,9.811,-0.01,-0.01,-0.01
1777733867.1078823,-12.26,-0.11,-1.3,-0.032,-0.236,9.811,-0.01,-0.01,0.0
1777733867.1178744,-12.27,-0.1,-1.3,-0.022,-0.226,9.811,-0.01,-0.01,0.0
1777733867.1279085,-12.28,-0.1,-1.3,-0.007,-0.208,9.812,-0.01,-0.01,0.01
1777733867.1383047,-12.29,-0.1,-1.3,0.002,-0.192,9.811,-0.01,-0.01,0.0
1777733867.1482646,-12.28,-0.1,-1.29,0.002,-0.189,9.812,0.0,0.0,0.0
1777733867.157847,-12.27,-0.1,-1.29,-0.004,-0.192,9.811,0.0,0.0,-0.01
1777733867.167862,-12.25,-0.1,-1.29,-0.007,-0.202,9.811,0.0,0.0,-0.01
1777733867.1778576,-12.24,-0.1,-1.29,-0.026,-0.222,9.811,0.0,0.0,-0.02
1777733867.1878607,-12.24,-0.11,-1.29,-0.036,-0.234,9.811,0.0,0.0,-0.01
1777733867.1982827,-12.24,-0.11,-1.29,-0.037,-0.241,9.811,0.0,0.0,-0.01
1777733867.2080138,-12.26,-0.11,-1.3,-0.03,-0.238,9.811,-0.01,-0.01,0.0
1777733867.2182653,-12.27,-0.1,-1.3,-0.022,-0.223,9.811,-0.01,-0.01,0.0
1777733867.2282486,-12.28,-0.1,-1.3,-0.007,-0.204,9.812,-0.01,-0.01,0.01
1777733867.2378628,-12.29,-0.1,-1.29,-0.002,-0.181,9.811,-0.01,-0.01,0.0
1777733867.247851,-12.28,-0.1,-1.28,-0.007,-0.175,9.812,0.0,-0.01,0.0
1777733867.2582572,-12.26,-0.1,-1.28,-0.012,-0.18,9.811,0.0,0.0,-0.01
1777733867.2679002,-12.25,-0.1,-1.28,-0.025,-0.199,9.811,0.0,0.0,-0.02
1777733867.2783062,-12.24,-0.11,-1.28,-0.029,-0.228,9.811,-0.01,0.0,-0.02
1777733867.287867,-12.24,-0.11,-1.29,-0.035,-0.247,9.811,-0.01,-0.01,-0.01
1777733867.2978826,-12.24,-0.11,-1.3,-0.029,-0.25,9.811,-0.01,-0.01,-0.01
1777733867.3078177,-12.26,-0.11,-1.3,-0.016,-0.249,9.811,-0.01,-0.01,0.0
1777733867.3178594,-12.28,-0.1,-1.3,-0.014,-0.225,9.812,-0.01,-0.01,0.01
1777733867.327844,-12.29,-0.1,-1.29,-0.007,-0.199,9.811,-0.01,-0.01,0.01
1777733867.337837,-12.29,-0.1,-1.29,-0.008,-0.175,9.811,0.0,0.0,0.0
1777733867.347828,-12.27,-0.1,-1.28,-0.014,-0.175,9.811,0.0,0.0,-0.01
1777733867.3578134,-12.26,-0.1,-1.28,-0.025,-0.183,9.811,0.0,0.0,-0.01
1777733867.3680637,-12.24,-0.1,-1.28,-0.026,-0.204,9.811,0.0,-0.01,-0.02
1777733867.3778322,-12.24,-0.11,-1.28,-0.029,-0.229,9.811,0.0,-0.01,-0.01
1777733867.3870184,-12.24,-0.11,-1.29,-0.023,-0.235,9.811,0.0,0.0,-0.01
1777733867.3969944,-12.25,-0.1,-1.29,-0.011,-0.238,9.811,-0.01,0.0,0.0
1777733867.407506,-12.26,-0.1,-1.29,-0.004,-0.223,9.811,-0.01,-0.01,0.01
1777733867.417092,-12.28,-0.1,-1.29,-0.001,-0.211,9.812,-0.01,-0.01,0.01
1777733867.4270232,-12.29,-0.1,-1.29,-0.007,-0.182,9.811,-0.01,0.0,0.0
1777733867.4378448,-12.28,-0.1,-1.28,-0.011,-0.174,9.812,-0.01,0.0,0.0
1777733867.4482346,-12.26,-0.1,-1.28,-0.017,-0.182,9.811,0.0,0.0,-0.01
1777733867.4578354,-12.25,-0.11,-1.28,-0.03,-0.2,9.811,0.0,0.0,-0.02
1777733867.467838,-12.24,-0.11,-1.28,-0.046,-0.222,9.811,0.0,0.0,-0.02
1777733867.477838,-12.23,-0.11,-1.28,-0.048,-0.24,9.811,-0.01,-0.01,-0.01
1777733867.4878514,-12.24,-0.11,-1.29,-0.043,-0.248,9.811,0.0,-0.01,-0.01
1777733867.4978418,-12.25,-0.11,-1.29,-0.029,-0.25,9.811,-0.01,-0.01,0.0
1777733867.5078485,-12.26,-0.1,-1.3,-0.014,-0.23,9.811,-0.01,-0.01,0.0
1777733867.5169997,-12.28,-0.1,-1.29,0.0,-0.206,9.812,-0.01,-0.01,0.01
1777733867.527355,-12.29,-0.1,-1.28,0.007,-0.189,9.811,-0.01,0.0,0.0
1777733867.5369728,-12.28,-0.1,-1.28,0.004,-0.178,9.812,0.0,0.0,0.0
1777733867.547367,-12.27,-0.1,-1.28,-0.007,-0.18,9.811,0.0,0.0,-0.01
1777733867.557006,-12.26,-0.1,-1.28,-0.023,-0.194,9.811,0.0,0.0,-0.01
1777733867.5670018,-12.24,-0.11,-1.28,-0.037,-0.217,9.811,0.0,0.0,-0.02
1777733867.576988,-12.24,-0.11,-1.28,-0.05,-0.23,9.811,-0.01,0.0,-0.01
1777733867.5869753,-12.24,-0.11,-1.28,-0.056,-0.24,9.811,-0.01,-0.01,-0.01
1777733867.5969565,-12.24,-0.11,-1.29,-0.041,-0.241,9.811,0.0,-0.01,0.0
1777733867.6069827,-12.25,-0.11,-1.29,-0.025,-0.238,9.811,-0.01,-0.01,0.0
1777733867.6169734,-12.26,-0.1,-1.29,-0.014,-0.222,9.811,-0.01,-0.01,0.0
1777733867.6269822,-12.27,-0.1,-1.29,0.001,-0.208,9.811,-0.01,-0.01,0.0
1777733867.6370206,-12.27,-0.1,-1.28,0.005,-0.192,9.811,-0.01,0.0,0.0
1777733867.6474996,-12.26,-0.1,-1.28,0.006,-0.187,9.811,0.0,0.0,0.0
1777733867.657428,-12.26,-0.1,-1.28,-0.005,-0.187,9.811,0.0,0.0,-0.01
1777733867.6673586,-12.24,-0.11,-1.28,-0.028,-0.199,9.811,0.0,0.0,-0.01
1777733867.6769676,-12.24,-0.11,-1.28,-0.043,-0.217,9.811,0.0,0.0,-0.01
1777733867.6869948,-12.24,-0.12,-1.27,-0.051,-0.22,9.811,-0.01,-0.01,-0.01
1777733867.6969564,-12.24,-0.12,-1.28,-0.054,-0.225,9.811,-0.01,-0.01,-0.01
1777733867.7069714,-12.25,-0.11,-1.28,-0.041,-0.222,9.811,-0.01,-0.01,0.0
1777733867.7169726,-12.26,-0.11,-1.28,-0.023,-0.208,9.811,-0.01,-0.01,0.0
1777733867.726993,-12.27,-0.1,-1.28,-0.006,-0.195,9.811,-0.01,-0.01,0.0
1777733867.736972,-12.27,-0.1,-1.28,0.004,-0.187,9.811,-0.01,-0.01,0.0
1777733867.7474966,-12.26,-0.1,-1.28,0.0,-0.181,9.811,-0.01,-0.01,0.0
1777733867.7572963,-12.26,-0.1,-1.28,0.002,-0.182,9.811,-0.01,0.0,-0.01
1777733867.76743,-12.24,-0.1,-1.28,-0.007,-0.196,9.811,0.0,0.0,-0.01
1777733867.776985,-12.24,-0.1,-1.28,-0.018,-0.223,9.811,0.0,0.0,-0.01
1777733867.7869658,-12.23,-0.11,-1.28,-0.026,-0.247,9.811,0.0,0.0,-0.01
1777733867.7970827,-12.24,-0.11,-1.28,-0.028,-0.25,9.811,-0.01,0.0,-0.01
1777733867.8069901,-12.25,-0.11,-1.29,-0.022,-0.244,9.811,-0.01,0.0,0.0
1777733867.8169882,-12.26,-0.11,-1.28,-0.017,-0.231,9.811,-0.01,-0.01,0.01
1777733867.826995,-12.27,-0.11,-1.28,-0.018,-0.2,9.811,-0.01,0.0,0.0
1777733867.8369744,-12.27,-0.11,-1.28,-0.018,-0.187,9.811,-0.01,-0.01,0.0
1777733867.8473675,-12.26,-0.11,-1.28,-0.017,-0.176,9.811,0.0,-0.01,-0.01
1777733867.8569725,-12.24,-0.11,-1.28,-0.017,-0.187,9.811,0.0,0.0,-0.01
1777733867.867494,-12.24,-0.11,-1.28,-0.01,-0.207,9.811,-0.01,0.0,-0.02
1777733867.8775964,-12.23,-0.11,-1.28,-0.014,-0.223,9.811,-0.01,0.0,-0.01
1777733867.8869967,-12.23,-0.1,-1.28,-0.013,-0.235,9.811,0.0,0.0,-0.01
1777733867.8969772,-12.24,-0.1,-1.28,-0.004,-0.231,9.811,-0.01,-0.01,0.0
1777733867.9074173,-12.26,-0.1,-1.28,0.0,-0.218,9.811,-0.01,-0.01,0.0
1777733867.9169807,-12.27,-0.1,-1.28,0.004,-0.196,9.811,-0.01,0.0,0.01
1777733867.9270012,-12.27,-0.1,-1.28,0.0,-0.188,9.811,-0.01,-0.01,0.0
1777733867.936983,-12.26,-0.1,-1.27,-0.012,-0.174,9.811,0.0,0.0,-0.01
1777733867.94749,-12.25,-0.1,-1.27,-0.023,-0.19,9.811,0.0,0.0,-0.01
1777733867.9574835,-12.23,-0.11,-1.27,-0.032,-0.213,9.811,0.0,-0.01,-0.02
1777733867.9669847,-12.22,-0.11,-1.28,-0.037,-0.231,9.811,0.0,0.0,-0.02
1777733867.9769573,-12.22,-0.11,-1.28,-0.035,-0.254,9.811,-0.01,-0.01,-0.01
1777733867.9870057,-12.24,-0.1,-1.28,-0.018,-0.255,9.811,-0.01,0.0,0.0
1777733867.9969542,-12.25,-0.1,-1.28,-0.007,-0.242,9.811,-0.01,-0.01,0.01
1777733868.007393,-12.27,-0.1,-1.28,-0.004,-0.212,9.811,-0.01,-0.01,0.01
1777733868.016958,-12.28,-0.1,-1.28,-0.008,-0.187,9.812,-0.01,0.0,0.01
1777733868.0273628,-12.27,-0.1,-1.27,-0.018,-0.172,9.811,0.0,0.0,0.0
1777733868.0369654,-12.26,-0.11,-1.27,-0.028,-0.17,9.811,0.0,0.0,-0.01
1777733868.0469635,-12.24,-0.11,-1.26,-0.031,-0.178,9.811,0.0,0.0,-0.02
1777733868.0569248,-12.22,-0.11,-1.26,-0.041,-0.202,9.811,0.0,0.0,-0.02
1777733868.0673192,-12.22,-0.11,-1.27,-0.041,-0.228,9.812,0.0,-0.01,-0.01
1777733868.0771394,-12.22,-0.11,-1.27,-0.034,-0.244,9.811,0.0,-0.01,-0.01
1777733868.0869362,-12.24,-0.11,-1.28,-0.019,-0.245,9.811,-0.01,-0.01,0.0
1777733868.096912,-12.26,-0.1,-1.28,-0.011,-0.229,9.811,-0.01,-0.01,0.01
1777733868.1073177,-12.26,-0.1,-1.28,-0.002,-0.205,9.811,-0.01,-0.01,0.01
