timestamp,yaw,pitch,roll,accel_x,accel_y,accel_z,gyro_x,gyro_y,gyro_z
1777319771.8267791,-115.67,0.26,-0.49,0.022,-0.083,9.809,0.0,0.0,0.0
1777319771.8368423,-115.67,0.27,-0.49,0.042,-0.09,9.81,-0.01,-0.01,0.0
1777319771.8468258,-115.67,0.27,-0.49,0.065,-0.096,9.81,-0.01,-0.01,0.0
1777319771.8567166,-115.66,0.28,-0.49,0.079,-0.101,9.809,-0.01,-0.01,-0.01
1777319771.866733,-115.66,0.28,-0.49,0.089,-0.115,9.809,0.0,-0.01,-0.01
1777319771.8767467,-115.67,0.28,-0.49,0.083,-0.111,9.81,0.0,0.0,0.0
1777319771.8867393,-115.67,0.28,-0.49,0.072,-0.11,9.81,0.0,0.0,0.0
1777319771.8967338,-115.68,0.28,-0.49,0.05,-0.067,9.809,0.0,0.0,0.0
1777319771.9067183,-115.68,0.28,-0.48,-0.01,-0.044,9.806,-0.01,0.0,0.0
1777319771.9167266,-115.67,0.27,-0.48,-0.14,-0.043,9.788,0.0,-0.01,-0.01
1777319771.9267309,-115.66,0.25,-0.48,-0.201,-0.049,9.75,0.0,-0.01,-0.01
1777319771.9367487,-115.65,0.26,-0.48,-0.261,-0.061,9.76,-0.01,-0.02,-0.01
1777319771.9467127,-115.64,0.27,-0.48,-0.257,-0.077,9.767,0.0,-0.02,-0.01
1777319771.956729,-115.62,0.3,-0.48,-0.192,-0.08,9.778,-0.01,-0.02,-0.01
1777319771.9667852,-115.61,0.34,-0.48,-0.126,-0.095,9.787,-0.01,-0.02,-0.01
1777319771.9767044,-115.58,0.37,-0.5,-0.049,-0.127,9.792,0.0,-0.02,-0.02
1777319771.986724,-115.55,0.4,-0.52,-0.017,-0.08,9.786,-0.02,-0.02,-0.02
1777319771.9967432,-115.5,0.42,-0.55,0.063,-0.111,9.685,-0.02,-0.02,-0.03
1777319772.0067463,-115.48,0.46,-0.55,0.141,-0.095,9.672,-0.02,-0.02,-0.02
1777319772.01672,-115.49,0.48,-0.54,0.17,-0.175,9.709,0.0,-0.02,-0.01
1777319772.0267358,-115.51,0.49,-0.56,0.242,-0.162,9.736,0.01,-0.01,0.0
1777319772.036733,-115.52,0.51,-0.56,0.256,-0.018,9.755,-0.01,0.0,0.0
1777319772.0467496,-115.52,0.5,-0.53,0.247,0.047,9.669,-0.01,0.0,0.0
1777319772.0567882,-115.51,0.5,-0.52,0.183,0.049,9.642,0.0,0.0,-0.01
1777319772.0667076,-115.5,0.47,-0.52,0.071,0.044,9.687,-0.01,0.0,-0.01
1777319772.076712,-115.51,0.45,-0.52,0.007,-0.005,9.72,-0.01,0.0,-0.01
1777319772.0867298,-115.52,0.43,-0.53,-0.081,-0.054,9.738,-0.01,0.0,0.0
1777319772.0967202,-115.52,0.4,-0.55,-0.11,-0.056,9.67,-0.01,0.0,0.0
1777319772.1067474,-115.53,0.4,-0.54,-0.147,-0.074,9.653,-0.01,0.0,0.0
1777319772.116756,-115.53,0.39,-0.55,-0.138,-0.128,9.695,0.0,-0.01,0.0
1777319772.1267514,-115.52,0.4,-0.55,-0.11,-0.145,9.726,0.0,-0.01,-0.01
1777319772.1367257,-115.52,0.4,-0.56,-0.065,-0.156,9.738,-0.01,-0.01,-0.01
1777319772.1468515,-115.51,0.41,-0.55,-0.005,-0.141,9.717,0.0,-0.01,-0.01
1777319772.1567354,-115.51,0.42,-0.55,0.03,-0.099,9.713,0.0,-0.01,-0.01
1777319772.1667464,-115.51,0.42,-0.54,0.06,-0.063,9.739,0.0,-0.01,-0.01
1777319772.1767206,-115.51,0.42,-0.53,0.066,-0.023,9.757,0.0,-0.01,0.0
1777319772.1867313,-115.52,0.41,-0.52,0.047,0.025,9.766,-0.01,0.0,0.0
1777319772.1967318,-115.52,0.4,-0.52,0.023,0.05,9.736,-0.01,0.0,0.0
1777319772.206731,-115.52,0.39,-0.51,-0.006,0.042,9.738,-0.01,0.0,0.0
1777319772.2167296,-115.51,0.38,-0.51,-0.036,-0.011,9.756,-0.01,0.0,-0.01
1777319772.226731,-115.52,0.37,-0.52,-0.057,-0.065,9.772,-0.01,0.0,0.0
1777319772.23673,-115.52,0.37,-0.53,-0.062,-0.116,9.776,-0.01,0.0,0.0
1777319772.2467313,-115.52,0.36,-0.53,-0.062,-0.129,9.769,-0.01,-0.01,0.0
1777319772.256733,-115.52,0.36,-0.53,-0.042,-0.129,9.775,-0.01,-0.01,0.0
1777319772.2667317,-115.52,0.36,-0.53,-0.038,-0.122,9.785,0.0,-0.01,-0.01
1777319772.2767308,-115.51,0.36,-0.53,-0.014,-0.102,9.79,0.0,-0.01,-0.01
1777319772.2867053,-115.51,0.36,-0.52,0.012,-0.092,9.792,0.0,-0.01,-0.01
1777319772.296719,-115.51,0.36,-0.52,0.024,-0.056,9.785,0.0,-0.01,-0.01
1777319772.3067648,-115.52,0.37,-0.51,0.038,-0.026,9.786,0.0,0.0,0.0
1777319772.3167536,-115.52,0.36,-0.51,0.036,-0.006,9.793,0.0,0.0,0.0
1777319772.3267472,-115.52,0.36,-0.5,0.029,0.014,9.797,-0.01,0.0,0.0
1777319772.3367317,-115.52,0.35,-0.5,0.006,0.007,9.79,-0.01,0.0,0.0
1777319772.3468826,-115.52,0.34,-0.5,-0.014,-0.025,9.772,-0.01,0.0,-0.01
1777319772.3574295,-115.52,0.34,-0.51,-0.038,-0.074,9.778,-0.01,0.0,-0.01
1777319772.366737,-115.52,0.33,-0.51,-0.05,-0.127,9.786,-0.01,-0.01,-0.01
1777319772.3766859,-115.52,0.33,-0.52,-0.044,-0.152,9.792,0.0,-0.01,0.0
1777319772.3866804,-115.52,0.32,-0.52,-0.029,-0.14,9.792,-0.01,-0.01,0.0
1777319772.396737,-115.52,0.33,-0.52,-0.004,-0.127,9.787,0.0,-0.01,0.0
1777319772.4067204,-115.52,0.32,-0.51,0.0,-0.084,9.793,0.0,-0.01,0.0
1777319772.416752,-115.52,0.33,-0.51,0.017,-0.051,9.798,0.0,-0.01,-0.01
1777319772.4267387,-115.52,0.33,-0.51,0.014,-0.034,9.802,0.0,-0.01,-0.01
1777319772.4366853,-115.52,0.32,-0.5,0.011,-0.02,9.791,-0.01,0.0,-0.01
1777319772.4466898,-115.52,0.32,-0.49,0.002,-0.019,9.793,-0.01,0.0,-0.01
1777319772.4566808,-115.52,0.31,-0.5,-0.008,-0.022,9.797,-0.01,0.0,0.0
1777319772.466732,-115.52,0.31,-0.49,-0.014,-0.034,9.8,-0.01,0.0,0.0
1777319772.4767892,-115.52,0.31,-0.5,-0.016,-0.068,9.803,-0.01,0.0,0.0
1777319772.48671,-115.52,0.3,-0.5,-0.01,-0.109,9.791,-0.01,0.0,0.0
1777319772.4967074,-115.52,0.3,-0.51,-0.007,-0.144,9.793,0.0,-0.01,0.0
1777319772.5067098,-115.52,0.3,-0.51,-0.006,-0.132,9.797,0.0,-0.01,0.0
1777319772.5166888,-115.52,0.3,-0.51,-0.008,-0.116,9.8,0.0,0.0,0.0
1777319772.5266733,-115.52,0.29,-0.5,-0.02,-0.078,9.799,0.0,0.0,0.0
1777319772.5366766,-115.52,0.29,-0.5,-0.022,-0.04,9.802,0.0,0.0,-0.01
1777319772.546675,-115.52,0.28,-0.49,-0.028,-0.022,9.804,0.0,-0.01,-0.01
1777319772.5566852,-115.52,0.28,-0.48,-0.022,-0.013,9.804,0.0,-0.01,-0.01
1777319772.5667102,-115.52,0.28,-0.48,-0.01,-0.017,9.805,-0.01,-0.01,-0.01
1777319772.576707,-115.52,0.28,-0.48,0.001,-0.038,9.806,-0.01,-0.01,0.0
1777319772.5858786,-115.52,0.28,-0.49,0.011,-0.066,9.806,-0.01,-0.01,-0.01
1777319772.5958426,-115.52,0.28,-0.49,0.029,-0.099,9.806,-0.01,-0.01,0.0
1777319772.606688,-115.52,0.28,-0.49,0.032,-0.134,9.808,0.0,0.0,0.0
1777319772.6166694,-115.53,0.28,-0.5,0.023,-0.129,9.808,0.0,0.0,0.0
1777319772.6266727,-115.53,0.27,-0.5,0.02,-0.109,9.806,-0.01,0.0,0.0
1777319772.63583,-115.53,0.26,-0.5,-0.014,-0.09,9.806,0.0,0.0,0.0
1777319772.6458497,-115.52,0.26,-0.49,-0.036,-0.067,9.808,0.0,0.0,-0.01
1777319772.6566916,-115.52,0.26,-0.48,-0.048,-0.053,9.809,0.0,0.0,-0.01
1777319772.6667035,-115.52,0.26,-0.48,-0.047,-0.038,9.809,0.0,-0.01,-0.01
1777319772.676669,-115.52,0.26,-0.48,-0.031,-0.031,9.808,-0.01,-0.01,-0.01
1777319772.6866696,-115.52,0.26,-0.48,-0.01,-0.048,9.809,-0.01,-0.01,0.0
1777319772.6966956,-115.52,0.26,-0.48,0.017,-0.066,9.808,-0.01,-0.01,-0.01
1777319772.7066925,-115.52,0.27,-0.49,0.046,-0.107,9.808,-0.01,-0.01,0.0
1777319772.716693,-115.52,0.26,-0.5,0.053,-0.116,9.809,0.0,-0.01,0.0
1777319772.7266803,-115.52,0.26,-0.5,0.056,-0.116,9.808,-0.01,0.0,0.0
1777319772.7358704,-115.52,0.26,-0.5,0.03,-0.111,9.808,0.0,0.0,0.0
1777319772.7458212,-115.52,0.25,-0.49,0.007,-0.095,9.805,0.0,0.0,0.0
1777319772.7558143,-115.52,0.24,-0.49,-0.014,-0.081,9.806,0.0,0.0,-0.01
1777319772.7666762,-115.52,0.24,-0.49,-0.031,-0.066,9.808,0.0,0.0,0.0
1777319772.7766767,-115.52,0.24,-0.49,-0.025,-0.048,9.8,0.0,-0.01,0.0
1777319772.7858357,-115.53,0.24,-0.49,-0.03,-0.041,9.803,0.0,-0.01,0.0
1777319772.7966595,-115.52,0.24,-0.48,-0.006,-0.036,9.804,-0.01,-0.01,0.0
1777319772.8058324,-115.52,0.24,-0.48,0.002,-0.051,9.806,-0.01,-0.01,-0.01
1777319772.8158133,-115.52,0.24,-0.49,0.025,-0.075,9.808,-0.01,-0.01,-0.01
1777319772.8258507,-115.52,0.25,-0.48,0.032,-0.093,9.808,-0.01,-0.01,-0.01
1777319772.8358161,-115.52,0.25,-0.48,0.047,-0.107,9.804,0.0,0.0,0.0
1777319772.845867,-115.53,0.24,-0.49,0.05,-0.109,9.805,0.0,0.0,0.0
1777319772.8558288,-115.54,0.24,-0.49,0.034,-0.071,9.806,-0.01,0.0,0.0
1777319772.8658307,-115.54,0.24,-0.48,0.02,-0.051,9.808,0.0,0.0,0.0
1777319772.8757732,-115.53,0.23,-0.48,-0.007,-0.036,9.808,0.0,0.0,-0.01
1777319772.8858006,-115.53,0.22,-0.47,-0.023,-0.026,9.805,-0.01,0.0,-0.01
1777319772.89578,-115.52,0.22,-0.47,-0.037,-0.013,9.806,0.0,-0.01,-0.01
1777319772.9057963,-115.52,0.22,-0.46,0.012,0.04,9.763,0.0,-0.01,-0.01
1777319772.9158068,-115.52,0.24,-0.41,0.081,0.097,9.706,0.0,-0.01,0.0
1777319772.9261835,-115.52,0.25,-0.38,0.195,-0.038,9.714,0.02,-0.01,-0.01
1777319772.935817,-115.52,0.25,-0.44,0.144,-0.383,9.741,0.02,0.0,-0.01
1777319772.9458997,-115.53,0.19,-0.56,0.302,-0.362,9.757,-0.03,0.02,0.01
1777319772.9557796,-115.53,0.18,-0.59,0.128,-0.175,9.654,-0.05,0.02,0.0
1777319772.9657829,-115.52,0.12,-0.58,0.092,-0.255,9.349,-0.02,0.01,-0.01
1777319772.9757862,-115.52,0.12,-0.58,0.001,-0.304,9.305,0.01,0.02,-0.02
1777319772.9859104,-115.53,0.07,-0.57,-0.061,-0.279,9.438,0.01,0.0,0.0
1777319772.995785,-115.59,0.07,-0.54,-0.008,-0.196,9.537,0.01,0.01,0.02
1777319773.005798,-115.64,0.06,-0.49,-0.115,-0.102,9.609,0.02,0.0,0.03
1777319773.0157843,-115.67,0.04,-0.48,-0.026,0.046,9.629,0.02,0.0,0.02
1777319773.0257902,-115.66,0.03,-0.47,-0.051,0.21,9.676,-0.02,0.0,0.01
1777319773.0357926,-115.64,0.03,-0.45,-0.006,0.352,9.652,-0.02,0.0,-0.01
1777319773.0459273,-115.6,0.05,-0.42,-0.005,0.278,9.606,-0.01,0.0,-0.02
1777319773.055802,-115.57,0.05,-0.41,-0.018,0.163,9.645,0.0,-0.02,-0.02
1777319773.0660572,-115.55,0.07,-0.42,0.022,0.072,9.688,0.0,-0.01,-0.02
1777319773.0758004,-115.55,0.08,-0.44,0.043,0.0,9.72,-0.01,-0.01,-0.01
1777319773.085809,-115.56,0.09,-0.46,0.071,-0.083,9.744,-0.01,-0.01,0.0
1777319773.0957913,-115.56,0.1,-0.48,0.08,-0.148,9.747,-0.01,-0.01,0.0
1777319773.105773,-115.55,0.1,-0.51,0.121,-0.163,9.731,-0.02,0.0,0.0
1777319773.115807,-115.54,0.11,-0.51,0.127,-0.181,9.747,-0.01,0.0,-0.01
1777319773.1257896,-115.53,0.12,-0.5,0.115,-0.245,9.763,0.0,-0.01,-0.01
1777319773.1357913,-115.54,0.12,-0.51,0.105,-0.277,9.776,0.01,0.0,-0.01
1777319773.1457922,-115.55,0.11,-0.52,0.092,-0.229,9.785,0.0,0.0,0.0
1777319773.1558082,-115.57,0.11,-0.51,0.084,-0.15,9.787,-0.01,0.0,0.01
1777319773.1657915,-115.58,0.1,-0.51,0.066,-0.046,9.751,0.0,0.0,0.01
1777319773.17578,-115.58,0.1,-0.48,0.043,0.056,9.741,-0.01,0.0,0.0
1777319773.1857595,-115.58,0.1,-0.46,0.025,0.111,9.756,0.0,0.0,0.0
1777319773.1957521,-115.57,0.1,-0.44,0.01,0.105,9.769,0.0,-0.01,-0.01
1777319773.20576,-115.57,0.1,-0.44,-0.004,0.06,9.78,0.0,-0.01,-0.01
1777319773.2157655,-115.56,0.1,-0.45,0.007,0.008,9.787,-0.01,-0.01,-0.01
1777319773.2259462,-115.56,0.1,-0.46,0.03,-0.031,9.786,-0.01,-0.01,-0.01
1777319773.235818,-115.56,0.12,-0.47,0.05,-0.077,9.781,-0.01,-0.01,-0.01
1777319773.2457814,-115.56,0.12,-0.48,0.075,-0.129,9.787,-0.01,-0.01,-0.01
1777319773.2557874,-115.55,0.13,-0.49,0.089,-0.175,9.793,0.0,-0.01,-0.01
1777319773.2658,-115.55,0.14,-0.49,0.096,-0.207,9.798,0.0,-0.01,-0.01
1777319773.2757528,-115.55,0.13,-0.5,0.095,-0.202,9.8,0.0,0.0,-0.01
1777319773.2857513,-115.56,0.13,-0.5,0.091,-0.15,9.785,-0.01,0.0,0.0
1777319773.2958126,-115.56,0.13,-0.5,0.084,-0.079,9.774,-0.01,0.0,0.0
1777319773.3059332,-115.57,0.13,-0.48,0.071,-0.016,9.772,0.0,0.0,0.0
1777319773.3157635,-115.57,0.13,-0.46,0.056,0.018,9.781,0.0,0.0,0.0
1777319773.3258977,-115.57,0.13,-0.46,0.034,0.042,9.788,0.0,-0.01,0.0
1777319773.3357506,-115.57,0.13,-0.45,0.028,0.032,9.794,-0.01,0.0,-0.01
1777319773.3457851,-115.57,0.13,-0.46,0.022,0.004,9.793,-0.01,-0.01,-0.01
1777319773.3558037,-115.57,0.13,-0.46,0.029,-0.028,9.787,-0.01,-0.01,-0.01
1777319773.365766,-115.56,0.13,-0.46,0.032,-0.063,9.786,-0.01,-0.01,-0.01
1777319773.375765,-115.56,0.14,-0.46,0.048,-0.111,9.792,-0.01,-0.01,-0.01
1777319773.3857727,-115.56,0.15,-0.48,0.059,-0.156,9.797,0.0,-0.01,-0.01
1777319773.3957894,-115.56,0.15,-0.49,0.071,-0.175,9.8,0.0,-0.01,-0.01
1777319773.4057548,-115.56,0.15,-0.49,0.075,-0.165,9.803,-0.01,0.0,0.0
1777319773.415768,-115.56,0.15,-0.49,0.072,-0.143,9.8,-0.01,0.0,0.0
1777319773.4257534,-115.57,0.15,-0.48,0.071,-0.105,9.798,0.0,0.0,0.0
1777319773.4357898,-115.56,0.15,-0.48,0.063,-0.055,9.799,0.0,0.0,0.0
1777319773.4457555,-115.57,0.16,-0.47,0.053,-0.02,9.802,0.0,0.0,0.0
1777319773.455759,-115.57,0.15,-0.47,0.049,0.006,9.804,0.0,-0.01,0.0
1777319773.4657502,-115.57,0.16,-0.46,0.041,0.012,9.805,-0.01,0.0,-0.01
1777319773.4757533,-115.57,0.16,-0.46,0.041,0.008,9.806,-0.01,-0.01,-0.01
1777319773.4857714,-115.57,0.16,-0.46,0.037,-0.019,9.808,-0.01,-0.01,-0.01
1777319773.4957573,-115.57,0.16,-0.46,0.04,-0.053,9.808,-0.01,-0.01,-0.01
1777319773.5057516,-115.56,0.17,-0.46,0.048,-0.095,9.808,-0.01,-0.01,-0.01
1777319773.5157564,-115.56,0.17,-0.47,0.054,-0.126,9.808,-0.01,-0.01,-0.01
1777319773.5257673,-115.56,0.17,-0.48,0.062,-0.135,9.808,-0.01,-0.01,0.0
1777319773.5357509,-115.57,0.17,-0.48,0.065,-0.128,9.809,-0.01,0.0,0.0
1777319773.5457523,-115.57,0.17,-0.48,0.066,-0.11,9.809,0.0,0.0,0.0
1777319773.5557578,-115.57,0.17,-0.47,0.059,-0.092,9.809,0.0,0.0,0.0
1777319773.5657213,-115.56,0.17,-0.47,0.055,-0.066,9.808,0.0,0.0,0.0
1777319773.5757535,-115.57,0.17,-0.46,0.047,-0.037,9.804,0.0,0.0,0.0
1777319773.5857527,-115.57,0.17,-0.45,0.038,-0.01,9.804,0.0,0.0,0.0
1777319773.5957391,-115.57,0.17,-0.45,0.035,0.006,9.802,-0.01,0.0,0.0
1777319773.6057541,-115.57,0.17,-0.45,0.034,-0.002,9.804,-0.01,-0.01,-0.01
1777319773.615761,-115.57,0.18,-0.45,0.028,-0.028,9.806,-0.01,-0.01,-0.01
1777319773.625708,-115.57,0.17,-0.45,0.028,-0.057,9.808,-0.01,-0.01,-0.01
1777319773.6357265,-115.56,0.17,-0.46,0.035,-0.091,9.806,-0.01,-0.01,-0.01
1777319773.6457543,-115.56,0.18,-0.47,0.043,-0.113,9.808,-0.01,-0.01,-0.01
1777319773.6557562,-115.56,0.18,-0.47,0.048,-0.126,9.808,-0.01,-0.01,-0.01
1777319773.6657548,-115.56,0.18,-0.47,0.05,-0.131,9.808,0.0,0.0,0.0
1777319773.6757305,-115.57,0.18,-0.47,0.056,-0.122,9.809,0.0,0.0,0.0
1777319773.6857543,-115.57,0.18,-0.47,0.056,-0.104,9.81,0.0,0.0,0.0
1777319773.6957445,-115.57,0.19,-0.47,0.055,-0.081,9.81,0.0,0.0,0.0
1777319773.7057076,-115.57,0.18,-0.46,0.053,-0.054,9.809,0.0,0.0,0.0
1777319773.7156925,-115.57,0.18,-0.46,0.049,-0.03,9.809,0.0,0.0,0.0
1777319773.7259023,-115.57,0.19,-0.45,0.047,-0.018,9.81,-0.01,0.0,0.0
1777319773.7357159,-115.57,0.19,-0.45,0.04,-0.017,9.81,-0.01,-0.01,-0.01
1777319773.7457278,-115.56,0.19,-0.45,0.04,-0.035,9.809,-0.01,-0.01,-0.01
1777319773.7557633,-115.56,0.19,-0.45,0.049,-0.055,9.809,-0.01,-0.01,-0.01
1777319773.7657506,-115.56,0.19,-0.46,0.051,-0.084,9.809,-0.01,0.0,-0.01
1777319773.7756934,-115.56,0.19,-0.46,0.057,-0.104,9.809,-0.01,-0.01,-0.01
1777319773.785691,-115.56,0.19,-0.46,0.054,-0.111,9.809,0.0,-0.01,0.0
1777319773.795724,-115.56,0.19,-0.46,0.055,-0.113,9.809,0.0,0.0,0.0
1777319773.8057072,-115.56,0.19,-0.46,0.049,-0.102,9.808,0.0,0.0,0.0
1777319773.8156948,-115.57,0.19,-0.46,0.049,-0.087,9.808,0.0,0.0,0.0
1777319773.8257265,-115.57,0.19,-0.46,0.043,-0.072,9.805,0.0,0.0,0.0
1777319773.8357077,-115.57,0.2,-0.46,0.037,-0.051,9.806,0.0,0.0,0.0
1777319773.8456767,-115.57,0.19,-0.45,0.038,-0.034,9.808,0.0,0.0,0.0
1777319773.855725,-115.57,0.19,-0.45,0.034,-0.024,9.809,0.0,0.0,0.0
1777319773.8658628,-115.57,0.19,-0.45,0.038,-0.024,9.809,-0.01,-0.01,0.0
1777319773.8747687,-115.57,0.2,-0.45,0.041,-0.035,9.809,-0.01,-0.01,-0.01
1777319773.8856769,-115.57,0.2,-0.45,0.044,-0.054,9.809,-0.01,-0.01,-0.01
1777319773.895693,-115.56,0.2,-0.45,0.047,-0.072,9.809,-0.01,-0.01,-0.01
1777319773.905706,-115.56,0.2,-0.45,0.051,-0.091,9.809,-0.01,-0.01,-0.01
1777319773.915695,-115.56,0.2,-0.45,0.057,-0.108,9.809,0.0,-0.01,0.0
1777319773.9249024,-115.57,0.21,-0.46,0.059,-0.11,9.81,0.0,0.0,0.0
1777319773.9357095,-115.57,0.21,-0.46,0.054,-0.104,9.809,0.0,0.0,0.0
1777319773.946078,-115.57,0.21,-0.46,0.044,-0.09,9.81,0.0,0.0,0.0
1777319773.9548705,-115.57,0.2,-0.45,0.038,-0.079,9.81,0.0,0.0,0.0
1777319773.9656925,-115.56,0.2,-0.45,0.036,-0.067,9.809,0.0,0.0,0.0
1777319773.9749007,-115.56,0.2,-0.45,0.029,-0.055,9.809,0.0,0.0,0.0
1777319773.984854,-115.56,0.2,-0.45,0.028,-0.046,9.809,-0.01,0.0,0.0
1777319773.9948566,-115.56,0.2,-0.45,0.032,-0.047,9.809,0.0,-0.01,0.0
1777319774.0048504,-115.57,0.2,-0.45,0.038,-0.053,9.81,-0.01,-0.01,-0.01
1777319774.0148692,-115.57,0.2,-0.44,0.04,-0.06,9.81,-0.01,-0.01,-0.01
1777319774.0256748,-115.57,0.21,-0.45,0.041,-0.078,9.81,-0.01,-0.01,-0.01
1777319774.0356958,-115.57,0.2,-0.45,0.047,-0.098,9.81,-0.01,-0.01,-0.01
1777319774.0456944,-115.57,0.2,-0.45,0.048,-0.105,9.81,-0.01,-0.01,0.0
1777319774.055682,-115.57,0.21,-0.46,0.05,-0.105,9.81,0.0,0.0,0.0
1777319774.0648549,-115.57,0.21,-0.46,0.047,-0.098,9.81,0.0,0.0,0.0
1777319774.0748422,-115.56,0.21,-0.46,0.041,-0.087,9.808,0.0,0.0,0.0
1777319774.0856833,-115.56,0.2,-0.45,0.037,-0.073,9.809,0.0,0.0,0.0
1777319774.0948439,-115.56,0.2,-0.45,0.04,-0.065,9.809,0.0,0.0,0.0
1777319774.1048207,-115.56,0.21,-0.45,0.037,-0.056,9.809,0.0,0.0,0.0
1777319774.114809,-115.56,0.2,-0.44,0.04,-0.05,9.809,0.0,-0.01,-0.01
1777319774.1248226,-115.56,0.2,-0.44,0.04,-0.044,9.809,0.0,-0.01,0.0
1777319774.1349573,-115.56,0.2,-0.44,0.04,-0.05,9.809,0.0,-0.01,0.0
1777319774.1448262,-115.57,0.2,-0.44,0.047,-0.057,9.81,-0.01,-0.01,-0.01
1777319774.15484,-115.57,0.21,-0.45,0.043,-0.071,9.81,-0.01,-0.01,-0.01
1777319774.1648352,-115.57,0.21,-0.45,0.049,-0.085,9.81,-0.01,-0.01,-0.01
1777319774.1748354,-115.57,0.21,-0.45,0.051,-0.087,9.81,0.0,-0.01,0.0
1777319774.1848042,-115.57,0.21,-0.45,0.05,-0.091,9.81,0.0,0.0,0.0
1777319774.1948342,-115.56,0.21,-0.45,0.051,-0.091,9.809,0.0,0.0,0.0
1777319774.204806,-115.57,0.21,-0.45,0.043,-0.08,9.809,0.0,0.0,0.0
1777319774.2148197,-115.57,0.21,-0.44,0.042,-0.072,9.809,0.0,0.0,0.0
1777319774.224809,-115.57,0.21,-0.44,0.037,-0.066,9.809,0.0,0.0,0.0
1777319774.2348213,-115.57,0.21,-0.44,0.037,-0.055,9.809,0.0,0.0,0.0
1777319774.2447844,-115.57,0.21,-0.44,0.041,-0.05,9.809,0.0,0.0,0.0
1777319774.2548099,-115.57,0.21,-0.44,0.04,-0.053,9.809,0.0,-0.01,-0.01
1777319774.2647974,-115.57,0.21,-0.44,0.04,-0.062,9.809,-0.01,-0.01,0.0
1777319774.274826,-115.56,0.21,-0.44,0.049,-0.069,9.809,0.0,0.0,-0.01
1777319774.2847855,-115.56,0.21,-0.44,0.048,-0.08,9.809,-0.01,0.0,-0.01
1777319774.2948544,-115.56,0.21,-0.44,0.047,-0.09,9.809,-0.01,0.0,-0.01
1777319774.3048103,-115.56,0.22,-0.45,0.048,-0.098,9.809,0.0,-0.01,0.0
1777319774.3148286,-115.57,0.22,-0.45,0.043,-0.097,9.809,0.0,0.0,0.0
1777319774.3248086,-115.57,0.22,-0.45,0.042,-0.098,9.809,0.0,0.0,0.0
1777319774.334808,-115.57,0.22,-0.45,0.041,-0.087,9.809,0.0,0.0,0.0
1777319774.3447828,-115.57,0.22,-0.45,0.036,-0.074,9.809,-0.01,0.0,0.0
1777319774.3547847,-115.57,0.21,-0.44,0.042,-0.061,9.809,-0.01,0.0,0.0
1777319774.364822,-115.57,0.21,-0.44,0.046,-0.057,9.809,0.0,0.0,0.0
1777319774.3748188,-115.57,0.21,-0.44,0.044,-0.063,9.809,-0.01,0.0,-0.01
1777319774.3847783,-115.57,0.21,-0.44,0.037,-0.068,9.809,-0.01,-0.01,-0.01
1777319774.3948238,-115.57,0.21,-0.44,0.032,-0.071,9.809,-0.01,-0.01,-0.01
1777319774.4048274,-115.57,0.21,-0.44,0.03,-0.084,9.809,0.0,-0.01,0.0
1777319774.4148254,-115.57,0.22,-0.45,0.03,-0.092,9.809,0.0,-0.01,0.0
1777319774.4247768,-115.57,0.22,-0.45,0.035,-0.097,9.809,0.0,-0.01,0.0
1777319774.4347792,-115.57,0.22,-0.45,0.041,-0.096,9.809,0.0,-0.01,0.0
1777319774.4447773,-115.57,0.22,-0.45,0.038,-0.096,9.809,-0.01,-0.01,0.0
1777319774.454776,-115.57,0.22,-0.45,0.034,-0.091,9.809,-0.01,0.0,0.0
1777319774.4648087,-115.57,0.22,-0.45,0.038,-0.081,9.809,0.0,0.0,0.0
1777319774.4747815,-115.57,0.22,-0.45,0.043,-0.073,9.809,0.0,0.0,0.0
1777319774.4847734,-115.57,0.22,-0.45,0.044,-0.071,9.809,0.0,-0.01,0.0
1777319774.49478,-115.57,0.22,-0.45,0.04,-0.062,9.809,0.0,-0.01,0.0
1777319774.5047646,-115.57,0.22,-0.45,0.043,-0.061,9.809,0.0,0.0,-0.01
1777319774.514784,-115.57,0.22,-0.45,0.046,-0.059,9.809,-0.01,-0.01,-0.01
1777319774.5247877,-115.57,0.22,-0.45,0.044,-0.061,9.809,-0.01,-0.01,-0.01
1777319774.5347762,-115.57,0.22,-0.45,0.044,-0.071,9.809,-0.01,0.0,0.0
1777319774.5447652,-115.57,0.22,-0.45,0.043,-0.079,9.809,0.0,-0.01,0.0
1777319774.5547512,-115.57,0.22,-0.45,0.046,-0.083,9.809,0.0,-0.01,0.0
1777319774.5648105,-115.57,0.22,-0.45,0.044,-0.084,9.809,-0.01,0.0,0.0
1777319774.5747778,-115.57,0.22,-0.45,0.047,-0.078,9.809,0.0,0.0,0.0
1777319774.5848067,-115.57,0.22,-0.45,0.048,-0.077,9.808,0.0,0.0,0.0
1777319774.594812,-115.57,0.22,-0.45,0.044,-0.069,9.808,-0.01,0.0,0.0
1777319774.6047635,-115.57,0.22,-0.45,0.044,-0.072,9.808,0.0,0.0,0.0
1777319774.6148322,-115.57,0.22,-0.45,0.041,-0.067,9.808,0.0,0.0,0.0
1777319774.6247945,-115.57,0.22,-0.45,0.034,-0.063,9.803,0.0,0.0,0.0
1777319774.6347766,-115.57,0.22,-0.44,0.035,-0.065,9.804,0.0,-0.01,0.0
1777319774.6447592,-115.57,0.22,-0.44,0.037,-0.065,9.805,-0.01,0.0,0.0
1777319774.6547587,-115.57,0.22,-0.44,0.037,-0.069,9.806,0.0,0.0,0.0
1777319774.6647735,-115.57,0.22,-0.44,0.038,-0.072,9.806,-0.01,-0.01,-0.01
1777319774.6747644,-115.57,0.22,-0.45,0.04,-0.078,9.808,0.0,-0.01,0.0
1777319774.6847908,-115.57,0.22,-0.45,0.04,-0.08,9.808,-0.01,0.0,0.0
1777319774.6947572,-115.57,0.22,-0.45,0.032,-0.084,9.808,0.0,0.0,0.0
1777319774.7047434,-115.58,0.22,-0.45,0.034,-0.085,9.806,-0.01,-0.01,0.0
1777319774.7147655,-115.58,0.22,-0.45,0.038,-0.083,9.808,0.0,0.0,0.0
1777319774.724795,-115.57,0.22,-0.45,0.043,-0.085,9.804,-0.01,0.0,0.0
1777319774.7348115,-115.57,0.22,-0.45,0.044,-0.081,9.805,0.0,-0.01,-0.01
1777319774.7447748,-115.57,0.22,-0.45,0.043,-0.078,9.806,0.0,0.0,-0.01
1777319774.7547662,-115.57,0.22,-0.45,0.041,-0.075,9.808,0.0,0.0,0.0
1777319774.7647667,-115.58,0.22,-0.45,0.037,-0.073,9.809,0.0,-0.01,0.0
1777319774.7747355,-115.58,0.22,-0.45,0.035,-0.078,9.809,0.0,-0.01,0.0
1777319774.784756,-115.58,0.22,-0.45,0.037,-0.077,9.809,-0.01,-0.01,0.0
1777319774.7947633,-115.57,0.22,-0.45,0.036,-0.071,9.809,-0.01,-0.01,0.0
1777319774.8047633,-115.57,0.22,-0.45,0.036,-0.078,9.809,-0.01,0.0,-0.01
1777319774.8147645,-115.57,0.22,-0.45,0.036,-0.08,9.809,-0.01,-0.01,-0.01
1777319774.824759,-115.57,0.22,-0.45,0.042,-0.078,9.809,0.0,-0.01,0.0
1777319774.83476,-115.57,0.22,-0.45,0.04,-0.074,9.809,-0.01,-0.01,0.0
1777319774.8447697,-115.58,0.22,-0.45,0.04,-0.074,9.81,0.0,0.0,0.0
1777319774.8547635,-115.58,0.22,-0.45,0.04,-0.073,9.81,0.0,0.0,0.0
1777319774.8647327,-115.58,0.23,-0.44,0.041,-0.071,9.81,0.0,0.0,0.0
1777319774.87477,-115.58,0.22,-0.45,0.035,-0.077,9.81,0.0,0.0,0.0
1777319774.8847675,-115.58,0.22,-0.45,0.036,-0.078,9.81,-0.01,-0.01,0.0
1777319774.8947685,-115.58,0.22,-0.45,0.036,-0.077,9.81,-0.01,0.0,0.0
1777319774.9047387,-115.58,0.22,-0.45,0.038,-0.078,9.81,0.0,0.0,0.0
1777319774.914765,-115.58,0.22,-0.45,0.032,-0.083,9.81,0.0,0.0,0.0
1777319774.9247158,-115.58,0.22,-0.45,0.034,-0.089,9.81,-0.01,-0.01,-0.01
1777319774.9347374,-115.58,0.22,-0.45,0.032,-0.089,9.81,-0.01,-0.01,-0.01
1777319774.9447703,-115.58,0.22,-0.45,0.035,-0.085,9.81,-0.01,-0.01,0.0
1777319774.9547572,-115.58,0.22,-0.45,0.034,-0.085,9.81,0.0,0.0,-0.01
1777319774.9652557,-115.58,0.22,-0.45,0.038,-0.08,9.81,0.0,-0.01,-0.01
1777319774.974716,-115.58,0.22,-0.45,0.044,-0.079,9.81,0.0,-0.01,0.0
1777319774.9847505,-115.58,0.22,-0.45,0.048,-0.073,9.81,0.0,0.0,0.0
1777319774.9947367,-115.58,0.22,-0.45,0.047,-0.068,9.81,0.0,0.0,0.0
1777319775.004724,-115.58,0.22,-0.45,0.043,-0.067,9.81,0.0,0.0,0.0
1777319775.0147724,-115.58,0.22,-0.45,0.041,-0.063,9.81,0.0,0.0,0.0
1777319775.0247502,-115.58,0.22,-0.45,0.037,-0.065,9.809,-0.01,0.0,0.0
1777319775.034731,-115.58,0.22,-0.45,0.031,-0.068,9.809,-0.01,0.0,0.0
1777319775.044735,-115.58,0.22,-0.44,0.03,-0.073,9.809,-0.01,0.0,0.0
1777319775.0547035,-115.58,0.22,-0.44,0.034,-0.08,9.809,0.0,0.0,0.0
1777319775.0647404,-115.58,0.22,-0.44,0.031,-0.081,9.809,0.0,0.0,0.0
1777319775.0747194,-115.58,0.22,-0.45,0.03,-0.081,9.805,0.0,0.0,0.0
1777319775.084705,-115.58,0.22,-0.45,0.031,-0.081,9.804,0.0,0.0,-0.01
1777319775.0947,-115.58,0.22,-0.45,0.037,-0.078,9.804,-0.01,0.0,-0.01
1777319775.104718,-115.58,0.22,-0.45,0.044,-0.077,9.806,0.0,-0.01,-0.01
1777319775.114705,-115.58,0.23,-0.44,0.042,-0.077,9.808,0.0,-0.01,-0.01
1777319775.1246922,-115.58,0.23,-0.44,0.047,-0.067,9.806,0.0,-0.01,0.0
1777319775.1338954,-115.58,0.23,-0.44,0.043,-0.062,9.808,0.0,-0.01,0.0
1777319775.143911,-115.58,0.23,-0.44,0.041,-0.063,9.808,-0.01,-0.01,0.0
1777319775.1538997,-115.58,0.23,-0.44,0.041,-0.066,9.808,-0.01,-0.01,0.0
1777319775.1647377,-115.58,0.23,-0.44,0.038,-0.074,9.808,-0.01,0.0,0.0
1777319775.173885,-115.58,0.23,-0.44,0.035,-0.071,9.809,0.0,-0.01,-0.01
1777319775.1847246,-115.58,0.23,-0.44,0.03,-0.077,9.809,0.0,-0.01,0.0
1777319775.1947181,-115.58,0.23,-0.44,0.034,-0.079,9.809,0.0,-0.01,-0.01
1777319775.204722,-115.58,0.23,-0.44,0.03,-0.081,9.805,0.0,-0.01,0.0
1777319775.2147076,-115.58,0.23,-0.44,0.036,-0.077,9.806,-0.01,0.0,0.0
1777319775.2247126,-115.58,0.23,-0.44,0.035,-0.072,9.806,0.0,-0.01,0.0
1777319775.2339275,-115.58,0.23,-0.44,0.035,-0.072,9.809,0.0,-0.01,0.0
1777319775.2446887,-115.58,0.23,-0.44,0.04,-0.071,9.809,0.0,-0.01,-0.01
1777319775.2546873,-115.58,0.23,-0.44,0.043,-0.062,9.809,0.0,-0.01,0.0
1777319775.2638664,-115.58,0.24,-0.44,0.047,-0.059,9.81,-0.01,0.0,0.0
1777319775.273867,-115.58,0.24,-0.44,0.048,-0.061,9.808,-0.01,-0.01,0.0
1777319775.283849,-115.58,0.24,-0.44,0.043,-0.066,9.806,-0.01,0.0,0.0
1777319775.2946913,-115.58,0.23,-0.43,0.038,-0.072,9.808,0.0,0.0,0.0
1777319775.3038623,-115.58,0.23,-0.44,0.028,-0.073,9.808,0.0,0.0,0.0
1777319775.3138964,-115.58,0.23,-0.44,0.025,-0.081,9.808,-0.01,0.0,0.0
1777319775.3238459,-115.58,0.23,-0.44,0.029,-0.091,9.809,-0.01,0.0,-0.01
1777319775.3338683,-115.58,0.23,-0.44,0.02,-0.089,9.809,0.0,-0.01,0.0
1777319775.3438494,-115.58,0.23,-0.44,0.025,-0.085,9.809,0.0,-0.01,0.0
1777319775.3546944,-115.58,0.23,-0.44,0.028,-0.083,9.809,0.0,-0.01,0.0
1777319775.3638787,-115.58,0.23,-0.44,0.032,-0.078,9.809,-0.01,0.0,0.0
1777319775.373863,-115.58,0.23,-0.44,0.041,-0.077,9.809,-0.01,0.0,0.0
1777319775.3838491,-115.58,0.23,-0.44,0.046,-0.068,9.809,-0.01,0.0,0.0
1777319775.3938835,-115.58,0.23,-0.44,0.042,-0.073,9.809,-0.01,0.0,0.0
1777319775.4038649,-115.58,0.23,-0.44,0.043,-0.073,9.809,0.0,-0.01,0.0
1777319775.4138632,-115.58,0.23,-0.44,0.046,-0.078,9.809,-0.01,0.0,0.0
1777319775.4238732,-115.58,0.23,-0.44,0.048,-0.08,9.809,0.0,-0.01,0.0
1777319775.4346924,-115.59,0.23,-0.44,0.046,-0.077,9.809,0.0,0.0,0.0
1777319775.4438696,-115.59,0.23,-0.44,0.044,-0.078,9.81,0.0,0.0,0.0
1777319775.4538248,-115.59,0.23,-0.44,0.038,-0.079,9.81,0.0,0.0,0.0
1777319775.4638283,-115.59,0.23,-0.44,0.029,-0.084,9.81,0.0,-0.01,0.0
1777319775.473828,-115.59,0.23,-0.44,0.028,-0.086,9.81,0.0,0.0,-0.01
1777319775.4838412,-115.59,0.23,-0.44,0.031,-0.08,9.809,0.0,0.0,0.0
1777319775.4938288,-115.59,0.23,-0.44,0.032,-0.075,9.809,-0.01,0.0,0.0
1777319775.5038319,-115.59,0.23,-0.44,0.029,-0.071,9.809,0.0,0.0,0.0
1777319775.5138412,-115.59,0.23,-0.44,0.034,-0.075,9.809,0.0,-0.01,0.0
1777319775.523842,-115.59,0.23,-0.44,0.036,-0.077,9.81,0.0,0.0,0.0
1777319775.53382,-115.59,0.23,-0.44,0.037,-0.083,9.81,-0.01,-0.01,-0.01
1777319775.5438395,-115.59,0.23,-0.44,0.042,-0.085,9.81,0.0,-0.01,0.0
1777319775.5538177,-115.59,0.23,-0.44,0.041,-0.086,9.81,-0.01,0.0,0.0
1777319775.5638728,-115.59,0.23,-0.44,0.046,-0.083,9.809,0.0,0.0,0.0
1777319775.5738313,-115.59,0.23,-0.44,0.043,-0.078,9.809,0.0,-0.01,0.0
1777319775.5838442,-115.59,0.23,-0.44,0.036,-0.079,9.809,0.0,0.0,0.0
1777319775.59384,-115.59,0.23,-0.44,0.036,-0.077,9.81,-0.01,0.0,0.0
1777319775.6038134,-115.59,0.23,-0.44,0.034,-0.073,9.81,0.0,0.0,0.0
1777319775.6138666,-115.59,0.23,-0.44,0.03,-0.074,9.81,0.0,-0.01,0.0
1777319775.6238544,-115.59,0.23,-0.44,0.032,-0.077,9.81,0.0,-0.01,0.0
1777319775.6338255,-115.59,0.23,-0.44,0.034,-0.075,9.81,0.0,0.0,0.0
1777319775.6438434,-115.59,0.23,-0.44,0.034,-0.077,9.81,-0.01,-0.01,0.0
1777319775.6538208,-115.59,0.23,-0.44,0.035,-0.077,9.81,0.0,0.0,0.0
1777319775.6638753,-115.59,0.23,-0.44,0.034,-0.079,9.81,0.0,0.0,-0.01
1777319775.6738398,-115.59,0.23,-0.44,0.035,-0.08,9.809,0.0,0.0,0.0
1777319775.683841,-115.59,0.23,-0.44,0.036,-0.078,9.809,0.0,-0.01,0.0
1777319775.6938257,-115.59,0.23,-0.44,0.035,-0.073,9.809,0.0,0.0,0.0
1777319775.703874,-115.59,0.23,-0.44,0.034,-0.071,9.809,0.0,-0.01,0.0
1777319775.7138414,-115.59,0.23,-0.44,0.035,-0.068,9.809,0.0,-0.01,0.0
1777319775.7238436,-115.59,0.23,-0.44,0.038,-0.066,9.809,0.0,-0.01,0.0
1777319775.7338367,-115.59,0.23,-0.44,0.038,-0.067,9.809,0.0,-0.01,0.0
1777319775.743835,-115.59,0.23,-0.44,0.036,-0.071,9.809,-0.01,-0.01,0.0
1777319775.7538564,-115.59,0.23,-0.44,0.034,-0.071,9.809,0.0,-0.01,-0.01
1777319775.7638514,-115.59,0.23,-0.44,0.036,-0.078,9.809,-0.01,-0.01,0.0
1777319775.7738252,-115.59,0.23,-0.44,0.04,-0.075,9.81,0.0,0.0,-0.01
1777319775.7838557,-115.59,0.23,-0.44,0.044,-0.077,9.81,-0.01,-0.01,0.0
1777319775.7938306,-115.59,0.23,-0.44,0.047,-0.074,9.81,0.0,0.0,0.0
1777319775.8038135,-115.59,0.23,-0.44,0.044,-0.073,9.81,0.0,-0.01,0.0
1777319775.8138134,-115.59,0.23,-0.44,0.043,-0.069,9.81,0.0,0.0,-0.01
1777319775.8238144,-115.59,0.23,-0.44,0.037,-0.067,9.81,-0.01,-0.01,0.0
1777319775.8337955,-115.59,0.23,-0.44,0.035,-0.067,9.808,0.0,0.0,0.0
1777319775.8437772,-115.59,0.23,-0.43,0.031,-0.068,9.809,0.0,0.0,-0.01
1777319775.8538306,-115.59,0.23,-0.44,0.031,-0.074,9.809,0.0,-0.01,0.0
1777319775.863829,-115.59,0.23,-0.44,0.038,-0.073,9.809,-0.01,0.0,0.0
1777319775.873812,-115.59,0.23,-0.44,0.035,-0.073,9.81,-0.01,0.0,0.0
1777319775.8838103,-115.59,0.23,-0.44,0.032,-0.073,9.81,-0.01,-0.01,0.0
1777319775.8938127,-115.59,0.23,-0.44,0.036,-0.068,9.81,-0.01,0.0,0.0
1777319775.903798,-115.59,0.23,-0.44,0.036,-0.068,9.805,-0.01,0.0,0.0
1777319775.9137971,-115.59,0.23,-0.44,0.035,-0.077,9.805,0.0,-0.01,-0.01
1777319775.923782,-115.59,0.23,-0.44,0.036,-0.075,9.806,0.0,-0.01,0.0
1777319775.9337766,-115.59,0.23,-0.44,0.036,-0.073,9.804,0.0,-0.01,0.0
1777319775.9437823,-115.59,0.23,-0.44,0.041,-0.075,9.805,-0.01,0.0,0.0
1777319775.9537907,-115.6,0.23,-0.44,0.047,-0.069,9.803,0.0,-0.01,0.0
1777319775.963786,-115.6,0.23,-0.43,0.048,-0.075,9.804,0.0,-0.01,0.0
1777319775.973781,-115.6,0.23,-0.43,0.042,-0.081,9.803,0.0,0.0,0.0
1777319775.983779,-115.6,0.24,-0.44,0.046,-0.08,9.804,0.0,-0.01,0.0
1777319775.9937763,-115.6,0.24,-0.44,0.041,-0.078,9.805,-0.01,-0.01,0.0
1777319776.0037856,-115.6,0.24,-0.44,0.043,-0.075,9.806,-0.01,0.0,0.0
1777319776.013781,-115.6,0.23,-0.44,0.044,-0.075,9.806,-0.01,-0.01,0.0
1777319776.0237842,-115.6,0.24,-0.44,0.044,-0.078,9.808,0.0,0.0,-0.01
1777319776.0337818,-115.6,0.24,-0.44,0.043,-0.08,9.808,0.0,0.0,0.0
1777319776.0437832,-115.6,0.23,-0.44,0.043,-0.078,9.808,0.0,0.0,0.0
1777319776.053777,-115.6,0.23,-0.44,0.041,-0.073,9.809,-0.01,0.0,0.0
1777319776.0637684,-115.6,0.23,-0.44,0.036,-0.072,9.808,-0.01,0.0,0.0
1777319776.073781,-115.6,0.23,-0.44,0.035,-0.073,9.804,-0.01,-0.01,-0.01
1777319776.083784,-115.59,0.24,-0.44,0.038,-0.074,9.806,0.0,-0.01,-0.01
1777319776.093779,-115.59,0.24,-0.44,0.042,-0.079,9.808,-0.01,-0.01,-0.01
1777319776.103784,-115.59,0.24,-0.44,0.04,-0.081,9.809,-0.01,-0.01,0.0
1777319776.1137788,-115.6,0.24,-0.44,0.041,-0.083,9.808,-0.01,0.0,0.0
1777319776.1237664,-115.6,0.23,-0.44,0.042,-0.081,9.808,-0.01,0.0,0.0
1777319776.133783,-115.6,0.23,-0.44,0.041,-0.079,9.808,0.0,0.0,0.0
1777319776.143788,-115.6,0.24,-0.44,0.035,-0.074,9.809,0.0,0.0,-0.01
1777319776.1537807,-115.6,0.24,-0.44,0.032,-0.075,9.808,0.0,-0.01,0.0
1777319776.1637828,-115.6,0.23,-0.44,0.032,-0.074,9.808,0.0,-0.01,0.0
1777319776.1737473,-115.6,0.23,-0.44,0.034,-0.075,9.808,0.0,-0.01,0.0
1777319776.1837823,-115.6,0.23,-0.44,0.03,-0.062,9.808,0.0,0.0,0.0
1777319776.1937833,-115.6,0.24,-0.44,0.028,-0.06,9.809,-0.01,-0.01,0.0
1777319776.2037704,-115.6,0.24,-0.44,0.03,-0.062,9.809,0.0,-0.01,0.0
1777319776.2137518,-115.6,0.24,-0.44,0.038,-0.074,9.809,0.0,-0.01,-0.01
1777319776.2237566,-115.6,0.24,-0.44,0.044,-0.079,9.806,0.0,-0.01,-0.01
1777319776.2337613,-115.6,0.24,-0.44,0.05,-0.081,9.809,-0.01,0.0,-0.01
1777319776.243753,-115.6,0.24,-0.44,0.05,-0.078,9.808,-0.01,0.0,-0.01
1777319776.253734,-115.6,0.24,-0.44,0.05,-0.084,9.808,0.0,-0.01,0.0
1777319776.2637177,-115.6,0.24,-0.44,0.049,-0.081,9.806,-0.01,0.0,0.0
1777319776.2737665,-115.6,0.24,-0.44,0.041,-0.075,9.806,0.0,-0.01,0.0
1777319776.283737,-115.6,0.24,-0.44,0.036,-0.071,9.808,0.0,0.0,0.0
1777319776.2937322,-115.6,0.24,-0.44,0.03,-0.068,9.808,0.0,0.0,-0.01
1777319776.303745,-115.6,0.24,-0.44,0.034,-0.067,9.808,-0.01,0.0,-0.01
1777319776.3137383,-115.6,0.24,-0.44,0.038,-0.067,9.808,-0.01,-0.01,0.0
1777319776.3237705,-115.6,0.24,-0.44,0.041,-0.068,9.809,0.0,0.0,0.0
1777319776.3337646,-115.6,0.24,-0.44,0.041,-0.069,9.809,-0.01,-0.01,0.0
1777319776.3429353,-115.6,0.24,-0.44,0.043,-0.071,9.809,0.0,-0.01,-0.01
1777319776.3537488,-115.6,0.24,-0.44,0.044,-0.077,9.809,0.0,-0.01,-0.01
1777319776.3637526,-115.6,0.24,-0.44,0.041,-0.08,9.809,-0.01,0.0,-0.01
1777319776.3737361,-115.6,0.24,-0.44,0.044,-0.084,9.809,0.0,0.0,-0.01
1777319776.3840263,-115.6,0.24,-0.44,0.043,-0.081,9.809,-0.01,0.0,0.0
1777319776.392895,-115.6,0.24,-0.44,0.041,-0.079,9.808,0.0,0.0,0.0
1777319776.4037406,-115.6,0.24,-0.44,0.038,-0.077,9.809,0.0,0.0,0.0
1777319776.413719,-115.6,0.24,-0.44,0.035,-0.072,9.809,0.0,0.0,0.0
1777319776.4229443,-115.6,0.24,-0.44,0.03,-0.072,9.809,0.0,0.0,-0.01
1777319776.4328728,-115.6,0.24,-0.44,0.028,-0.077,9.809,0.0,-0.01,-0.01
1777319776.4442513,-115.6,0.24,-0.44,0.029,-0.08,9.809,0.0,-0.01,0.0
1777319776.453779,-115.6,0.24,-0.44,0.032,-0.074,9.809,0.0,-0.01,0.0
1777319776.4637253,-115.6,0.24,-0.44,0.038,-0.069,9.809,-0.01,-0.01,0.0
1777319776.4728937,-115.6,0.24,-0.44,0.048,-0.069,9.805,-0.01,0.0,0.0
1777319776.4829278,-115.6,0.24,-0.44,0.053,-0.071,9.806,-0.01,0.0,-0.01
1777319776.4928927,-115.6,0.24,-0.44,0.053,-0.079,9.806,0.0,0.0,-0.01
1777319776.5028958,-115.6,0.24,-0.44,0.048,-0.084,9.808,0.0,0.0,-0.01
1777319776.5137126,-115.6,0.24,-0.44,0.043,-0.083,9.808,0.0,0.0,0.0
1777319776.5237203,-115.61,0.24,-0.44,0.037,-0.078,9.809,-0.01,0.0,0.0
1777319776.53372,-115.61,0.24,-0.44,0.032,-0.072,9.81,-0.01,0.0,0.0
1777319776.542923,-115.61,0.24,-0.44,0.028,-0.062,9.81,-0.01,0.0,0.0
1777319776.5528967,-115.6,0.23,-0.43,0.022,-0.066,9.806,0.0,0.0,-0.01
1777319776.5629115,-115.6,0.23,-0.43,0.022,-0.072,9.806,0.0,-0.01,-0.01
1777319776.5728812,-115.6,0.23,-0.43,0.02,-0.074,9.808,0.0,-0.01,-0.01
1777319776.5828955,-115.6,0.23,-0.43,0.026,-0.073,9.808,0.0,-0.01,0.0
1777319776.5928347,-115.6,0.23,-0.43,0.035,-0.067,9.808,-0.01,-0.01,0.0
1777319776.6028588,-115.6,0.23,-0.43,0.046,-0.067,9.808,-0.01,-0.01,0.0
1777319776.612836,-115.6,0.24,-0.44,0.05,-0.065,9.809,-0.01,-0.01,-0.01
1777319776.6228516,-115.6,0.24,-0.44,0.049,-0.075,9.809,0.0,-0.01,-0.01
1777319776.632843,-115.6,0.24,-0.44,0.043,-0.08,9.809,0.0,0.0,-0.01
1777319776.6428711,-115.6,0.24,-0.44,0.043,-0.089,9.809,-0.01,0.0,-0.01
1777319776.6528618,-115.6,0.24,-0.44,0.041,-0.085,9.809,-0.01,0.0,0.0
1777319776.6628692,-115.61,0.24,-0.44,0.034,-0.08,9.81,-0.01,0.0,0.0
1777319776.6728384,-115.61,0.24,-0.44,0.032,-0.072,9.81,0.0,0.0,0.0
1777319776.68287,-115.61,0.23,-0.43,0.028,-0.072,9.808,0.0,-0.01,0.0
1777319776.6928618,-115.6,0.23,-0.44,0.023,-0.075,9.806,-0.01,-0.01,-0.01
1777319776.7028778,-115.6,0.23,-0.44,0.025,-0.079,9.808,0.0,0.0,-0.01
1777319776.712854,-115.6,0.23,-0.44,0.031,-0.083,9.806,-0.01,-0.01,-0.01
1777319776.7228706,-115.6,0.23,-0.44,0.037,-0.084,9.806,-0.01,-0.01,0.0
1777319776.7328477,-115.6,0.24,-0.44,0.038,-0.081,9.806,-0.01,-0.01,0.0
1777319776.7428663,-115.6,0.24,-0.44,0.041,-0.084,9.808,0.0,-0.01,0.0
1777319776.7528415,-115.6,0.24,-0.44,0.043,-0.086,9.808,-0.01,0.0,0.0
1777319776.7628763,-115.6,0.24,-0.44,0.049,-0.079,9.808,-0.01,0.0,-0.01
1777319776.772835,-115.6,0.24,-0.44,0.04,-0.075,9.808,0.0,0.0,0.0
1777319776.8055596,-115.6,0.23,-0.44,0.04,-0.073,9.809,0.0,0.0,0.0
1777319776.8159897,-115.61,0.24,-0.44,0.037,-0.074,9.81,0.0,0.0,0.0
1777319776.8225486,-115.61,0.24,-0.44,0.036,-0.079,9.81,0.0,-0.01,0.0
1777319776.8277428,-115.61,0.23,-0.44,0.034,-0.078,9.809,0.0,0.0,0.0
1777319776.8338048,-115.61,0.23,-0.44,0.031,-0.068,9.808,0.0,0.0,0.0
1777319776.8402047,-115.61,0.23,-0.44,0.034,-0.071,9.809,-0.01,0.0,-0.01
1777319776.8451688,-115.61,0.23,-0.44,0.034,-0.075,9.809,0.0,-0.01,-0.01
1777319776.8528998,-115.61,0.23,-0.44,0.035,-0.081,9.809,0.0,-0.01,0.0
1777319776.864573,-115.6,0.24,-0.44,0.043,-0.081,9.808,-0.01,-0.01,0.0
1777319776.8729002,-115.6,0.24,-0.44,0.044,-0.074,9.809,-0.01,-0.01,-0.01
1777319776.8832283,-115.6,0.24,-0.44,0.046,-0.074,9.809,0.0,0.0,0.0
1777319776.8933227,-115.6,0.24,-0.44,0.047,-0.078,9.809,0.0,0.0,0.0
1777319776.9029975,-115.6,0.24,-0.44,0.047,-0.081,9.809,0.0,-0.01,0.0
1777319776.914593,-115.61,0.24,-0.44,0.044,-0.079,9.81,0.0,0.0,0.0
1777319776.9229157,-115.61,0.24,-0.44,0.042,-0.081,9.81,0.0,0.0,0.0
1777319776.9328961,-115.61,0.24,-0.44,0.035,-0.079,9.809,-0.01,0.0,0.0
1777319776.9439623,-115.61,0.24,-0.44,0.034,-0.073,9.809,-0.01,0.0,0.0
1777319776.9537454,-115.61,0.24,-0.44,0.03,-0.073,9.809,0.0,-0.01,-0.01
1777319776.9636018,-115.6,0.24,-0.44,0.028,-0.08,9.809,0.0,-0.01,-0.01
1777319776.9733508,-115.6,0.24,-0.44,0.024,-0.079,9.809,-0.01,-0.01,-0.01
1777319776.9828691,-115.6,0.24,-0.44,0.023,-0.083,9.809,0.0,-0.01,-0.01
1777319776.9943004,-115.6,0.23,-0.44,0.03,-0.083,9.809,-0.01,-0.01,0.0
1777319777.0045469,-115.6,0.24,-0.44,0.038,-0.078,9.809,0.0,-0.01,0.0
1777319777.0137122,-115.6,0.24,-0.44,0.043,-0.078,9.809,-0.01,-0.01,0.0
1777319777.0235791,-115.6,0.24,-0.44,0.047,-0.075,9.809,0.0,-0.01,-0.01
1777319777.0332139,-115.6,0.24,-0.44,0.05,-0.074,9.809,0.0,0.0,0.0
1777319777.043848,-115.6,0.24,-0.44,0.042,-0.072,9.809,0.0,0.0,0.0
1777319777.053626,-115.6,0.24,-0.44,0.044,-0.073,9.809,-0.01,0.0,0.0
1777319777.0635428,-115.61,0.24,-0.44,0.043,-0.077,9.81,-0.01,0.0,0.0
1777319777.0728269,-115.61,0.24,-0.44,0.042,-0.073,9.81,-0.01,0.0,0.0
1777319777.082821,-115.61,0.24,-0.44,0.035,-0.069,9.81,0.0,-0.01,0.0
1777319777.093852,-115.61,0.24,-0.44,0.036,-0.071,9.81,-0.01,-0.01,0.0
1777319777.1034608,-115.61,0.24,-0.44,0.036,-0.071,9.81,0.0,-0.01,0.0
1777319777.1136842,-115.61,0.24,-0.44,0.04,-0.077,9.81,-0.01,0.0,-0.01
1777319777.1240945,-115.61,0.24,-0.44,0.042,-0.084,9.81,-0.01,-0.01,0.0
1777319777.1327949,-115.61,0.24,-0.44,0.046,-0.087,9.81,0.0,-0.01,0.0
1777319777.1435142,-115.61,0.24,-0.44,0.044,-0.092,9.81,0.0,-0.01,0.0
1777319777.152913,-115.6,0.24,-0.44,0.041,-0.087,9.809,0.0,-0.01,-0.01
1777319777.162891,-115.6,0.24,-0.44,0.037,-0.083,9.809,0.0,-0.01,0.0
1777319777.1728063,-115.6,0.24,-0.44,0.038,-0.08,9.809,-0.01,0.0,0.0
1777319777.1828053,-115.6,0.24,-0.44,0.046,-0.079,9.809,0.0,0.0,0.0
1777319777.1928356,-115.61,0.24,-0.44,0.047,-0.073,9.81,0.0,-0.01,0.0
1777319777.2028513,-115.61,0.24,-0.44,0.041,-0.072,9.81,0.0,0.0,0.0
1777319777.2127879,-115.61,0.24,-0.44,0.037,-0.074,9.81,0.0,0.0,0.0
1777319777.2228127,-115.61,0.24,-0.44,0.041,-0.078,9.81,-0.01,0.0,0.0
1777319777.2327945,-115.6,0.24,-0.44,0.037,-0.083,9.809,-0.01,-0.01,0.0
1777319777.2428086,-115.6,0.24,-0.44,0.037,-0.078,9.809,-0.01,-0.01,-0.01
1777319777.2527986,-115.6,0.24,-0.44,0.035,-0.078,9.809,0.0,0.0,-0.01
1777319777.2628174,-115.6,0.24,-0.44,0.032,-0.081,9.809,0.0,-0.01,-0.01
1777319777.2727635,-115.6,0.24,-0.44,0.036,-0.084,9.809,0.0,0.0,-0.01
1777319777.282806,-115.6,0.24,-0.44,0.038,-0.081,9.809,0.0,-0.01,0.0
1777319777.2927876,-115.6,0.24,-0.44,0.041,-0.078,9.809,0.0,-0.01,0.0
1777319777.3028173,-115.6,0.24,-0.44,0.046,-0.077,9.809,0.0,0.0,0.0
1777319777.3130887,-115.6,0.24,-0.44,0.049,-0.071,9.809,0.0,0.0,0.0
1777319777.3227875,-115.6,0.24,-0.44,0.048,-0.068,9.809,0.0,0.0,0.0
1777319777.3327932,-115.61,0.24,-0.44,0.044,-0.067,9.81,0.0,-0.01,0.0
1777319777.3500822,-115.61,0.24,-0.44,0.041,-0.071,9.81,-0.01,0.0,0.0
1777319777.3706815,-115.61,0.24,-0.44,0.04,-0.068,9.81,0.0,0.0,0.0
1777319777.3815699,-115.61,0.24,-0.44,0.036,-0.072,9.81,0.0,0.0,0.0
1777319777.3930368,-115.61,0.24,-0.44,0.037,-0.073,9.81,-0.01,0.0,0.0
1777319777.3941114,-115.61,0.24,-0.44,0.038,-0.075,9.81,-0.01,-0.01,0.0
1777319777.395176,-115.61,0.24,-0.44,0.034,-0.075,9.81,-0.01,-0.01,0.0
1777319777.4027562,-115.61,0.24,-0.44,0.038,-0.074,9.81,0.0,0.0,-0.01
1777319777.4128962,-115.61,0.24,-0.44,0.041,-0.077,9.81,0.0,0.0,0.0
1777319777.4227533,-115.61,0.24,-0.44,0.043,-0.077,9.81,-0.01,0.0,0.0
1777319777.4327364,-115.61,0.24,-0.44,0.04,-0.073,9.81,-0.01,-0.01,0.0
1777319777.4427464,-115.61,0.24,-0.44,0.042,-0.075,9.81,0.0,-0.01,0.0
1777319777.4527254,-115.61,0.24,-0.44,0.04,-0.078,9.81,0.0,-0.01,0.0
1777319777.4627373,-115.61,0.24,-0.44,0.038,-0.075,9.81,0.0,0.0,0.0
1777319777.472759,-115.61,0.24,-0.44,0.034,-0.074,9.81,0.0,0.0,0.0
1777319777.4827073,-115.61,0.24,-0.44,0.032,-0.077,9.81,0.0,0.0,0.0
1777319777.4927335,-115.61,0.24,-0.44,0.03,-0.074,9.81,-0.01,-0.01,0.0
1777319777.502702,-115.61,0.24,-0.44,0.03,-0.079,9.81,-0.01,0.0,0.0
1777319777.5127625,-115.61,0.24,-0.44,0.03,-0.083,9.81,-0.01,-0.01,0.0
1777319777.5227385,-115.61,0.24,-0.44,0.032,-0.078,9.81,0.0,-0.01,0.0
1777319777.532725,-115.61,0.24,-0.44,0.036,-0.072,9.81,0.0,0.0,-0.01
1777319777.542708,-115.61,0.24,-0.44,0.041,-0.068,9.81,0.0,-0.01,0.0
1777319777.5527298,-115.61,0.24,-0.44,0.042,-0.072,9.81,0.0,-0.01,0.0
1777319777.5627308,-115.61,0.24,-0.44,0.038,-0.068,9.81,-0.01,0.0,-0.01
1777319777.572718,-115.61,0.24,-0.44,0.04,-0.063,9.81,-0.01,0.0,0.0
1777319777.5827167,-115.61,0.24,-0.44,0.044,-0.065,9.81,0.0,0.0,0.0
1777319777.59272,-115.61,0.24,-0.44,0.044,-0.066,9.809,0.0,0.0,0.0
1777319777.6027224,-115.61,0.24,-0.44,0.042,-0.075,9.81,-0.01,0.0,0.0
1777319777.6127138,-115.61,0.24,-0.44,0.035,-0.075,9.808,0.0,0.0,-0.01
1777319777.6230216,-115.61,0.24,-0.44,0.036,-0.075,9.809,0.0,-0.01,-0.01
1777319777.6327236,-115.61,0.24,-0.44,0.036,-0.074,9.809,-0.01,-0.01,0.0
1777319777.642746,-115.61,0.24,-0.44,0.034,-0.074,9.809,0.0,0.0,0.0
1777319777.6527207,-115.61,0.24,-0.44,0.041,-0.073,9.81,-0.01,-0.01,0.0
1777319777.6627545,-115.61,0.24,-0.44,0.042,-0.069,9.81,-0.01,-0.01,0.0
1777319777.6727161,-115.61,0.24,-0.44,0.044,-0.072,9.81,-0.01,-0.01,0.0
1777319777.6827316,-115.61,0.24,-0.44,0.047,-0.078,9.81,0.0,0.0,-0.01
1777319777.692708,-115.61,0.24,-0.44,0.051,-0.073,9.809,0.0,0.0,-0.01
1777319777.7027354,-115.61,0.24,-0.44,0.046,-0.073,9.809,0.0,0.0,-0.01
1777319777.7127047,-115.61,0.24,-0.44,0.046,-0.073,9.808,0.0,0.0,0.0
1777319777.7218592,-115.61,0.24,-0.44,0.04,-0.071,9.805,0.0,0.0,0.0
1777319777.7327192,-115.61,0.24,-0.44,0.037,-0.067,9.806,0.0,0.0,0.0
1777319777.7427182,-115.61,0.24,-0.44,0.035,-0.066,9.808,-0.01,0.0,0.0
1777319777.7527087,-115.61,0.24,-0.44,0.032,-0.068,9.806,-0.01,-0.01,0.0
1777319777.762718,-115.61,0.24,-0.44,0.025,-0.073,9.808,0.0,-0.01,-0.01
1777319777.7727191,-115.61,0.24,-0.44,0.02,-0.075,9.806,0.0,-0.01,-0.01
1777319777.7827172,-115.61,0.24,-0.44,0.026,-0.077,9.808,0.0,-0.01,0.0
1777319777.792736,-115.61,0.24,-0.44,0.032,-0.079,9.808,-0.01,-0.01,0.0
1777319777.8027163,-115.61,0.24,-0.44,0.041,-0.083,9.808,-0.01,-0.01,0.0
1777319777.8127074,-115.61,0.24,-0.44,0.044,-0.078,9.808,0.0,-0.01,0.0
1777319777.8227236,-115.61,0.24,-0.44,0.044,-0.074,9.808,0.0,-0.01,-0.01
1777319777.831865,-115.61,0.24,-0.44,0.047,-0.072,9.809,0.0,0.0,0.0
1777319777.8417985,-115.61,0.24,-0.44,0.047,-0.068,9.809,0.0,0.0,-0.01
1777319777.8525932,-115.61,0.24,-0.44,0.041,-0.067,9.809,0.0,0.0,0.0
1777319777.8632166,-115.61,0.24,-0.43,0.028,-0.062,9.806,0.0,0.0,0.0
1777319777.8722515,-115.61,0.24,-0.43,0.03,-0.062,9.808,-0.01,0.0,0.0
1777319777.881828,-115.61,0.24,-0.43,0.024,-0.063,9.808,-0.01,0.0,0.0
1777319777.8918433,-115.61,0.24,-0.43,0.025,-0.062,9.808,0.0,-0.01,0.0
1777319777.9018006,-115.61,0.24,-0.43,0.026,-0.066,9.808,-0.01,-0.01,-0.01
1777319777.9127028,-115.61,0.24,-0.43,0.034,-0.068,9.808,-0.01,-0.01,-0.01
1777319777.921806,-115.61,0.24,-0.43,0.034,-0.073,9.81,0.0,0.0,-0.01
1777319777.9318268,-115.61,0.24,-0.44,0.037,-0.078,9.81,-0.01,-0.01,-0.01
1777319777.9418952,-115.61,0.24,-0.44,0.043,-0.074,9.81,0.0,-0.01,-0.01
1777319777.9518156,-115.61,0.24,-0.44,0.044,-0.075,9.81,0.0,0.0,-0.01
1777319777.961841,-115.61,0.24,-0.44,0.037,-0.078,9.81,0.0,0.0,0.0
1777319777.9718177,-115.61,0.24,-0.43,0.035,-0.078,9.81,0.0,0.0,0.0
1777319777.9818184,-115.61,0.24,-0.43,0.032,-0.074,9.81,0.0,0.0,0.0
1777319777.991828,-115.61,0.24,-0.43,0.028,-0.073,9.81,0.0,0.0,0.0
1777319778.0018158,-115.61,0.23,-0.43,0.025,-0.071,9.81,0.0,0.0,-0.01
1777319778.0118263,-115.61,0.23,-0.43,0.024,-0.069,9.81,0.0,0.0,-0.01
1777319778.021816,-115.61,0.23,-0.43,0.025,-0.067,9.81,-0.01,0.0,-0.01
1777319778.0318284,-115.61,0.23,-0.43,0.031,-0.068,9.81,-0.01,-0.01,-0.01
1777319778.0418108,-115.61,0.23,-0.43,0.032,-0.073,9.81,-0.01,-0.01,-0.01
1777319778.0517669,-115.61,0.24,-0.43,0.04,-0.074,9.81,0.0,-0.01,0.0
1777319778.061835,-115.61,0.24,-0.43,0.041,-0.075,9.81,0.0,-0.01,-0.01
1777319778.0718014,-115.61,0.24,-0.43,0.041,-0.075,9.81,0.0,-0.01,0.0
1777319778.0818322,-115.61,0.24,-0.43,0.042,-0.073,9.81,0.0,-0.01,0.0
1777319778.0918045,-115.61,0.24,-0.43,0.043,-0.072,9.81,0.0,0.0,0.0
1777319778.1017957,-115.61,0.24,-0.43,0.038,-0.074,9.81,0.0,0.0,0.0
1777319778.1118276,-115.61,0.24,-0.43,0.032,-0.071,9.81,0.0,0.0,0.0
1777319778.1218064,-115.61,0.24,-0.43,0.034,-0.074,9.81,0.0,0.0,0.0
1777319778.131868,-115.61,0.24,-0.43,0.031,-0.073,9.81,-0.01,0.0,0.0
1777319778.1417952,-115.61,0.24,-0.43,0.028,-0.075,9.81,0.0,-0.01,0.0
1777319778.151814,-115.61,0.24,-0.43,0.035,-0.072,9.81,0.0,-0.01,-0.01
1777319778.1618214,-115.61,0.24,-0.43,0.034,-0.073,9.81,0.0,0.0,0.0
1777319778.1717877,-115.61,0.24,-0.43,0.034,-0.081,9.81,0.0,-0.01,-0.01
1777319778.1817706,-115.61,0.24,-0.43,0.034,-0.087,9.81,0.0,-0.01,-0.01
1777319778.1918378,-115.61,0.24,-0.43,0.034,-0.086,9.81,0.0,0.0,0.0
1777319778.2018275,-115.61,0.24,-0.43,0.037,-0.085,9.81,-0.01,-0.01,0.0
1777319778.2118137,-115.61,0.24,-0.43,0.04,-0.081,9.81,0.0,-0.01,0.0
1777319778.221815,-115.61,0.24,-0.43,0.042,-0.077,9.81,0.0,-0.01,0.0
1777319778.231804,-115.61,0.24,-0.43,0.037,-0.077,9.81,0.0,0.0,0.0
1777319778.241826,-115.61,0.24,-0.43,0.038,-0.074,9.81,0.0,0.0,0.0
1777319778.251815,-115.61,0.24,-0.43,0.037,-0.075,9.81,0.0,0.0,0.0
1777319778.2617626,-115.61,0.24,-0.43,0.038,-0.075,9.805,-0.01,0.0,0.0
1777319778.2717915,-115.61,0.24,-0.43,0.037,-0.069,9.806,-0.01,0.0,0.0
1777319778.2818053,-115.61,0.24,-0.43,0.037,-0.069,9.808,-0.01,-0.01,0.0
1777319778.2918427,-115.61,0.24,-0.43,0.038,-0.075,9.809,0.0,0.0,0.0
1777319778.3017678,-115.61,0.24,-0.43,0.037,-0.08,9.808,0.0,0.0,0.0
1777319778.3117886,-115.61,0.23,-0.43,0.037,-0.081,9.808,0.0,0.0,0.0
1777319778.3218036,-115.61,0.23,-0.43,0.035,-0.08,9.808,0.0,0.0,0.0
1777319778.331802,-115.61,0.23,-0.43,0.028,-0.084,9.809,-0.01,0.0,0.0
1777319778.3418226,-115.61,0.23,-0.43,0.031,-0.081,9.808,0.0,-0.01,0.0
1777319778.3518193,-115.61,0.23,-0.43,0.026,-0.081,9.808,0.0,-0.01,-0.01
1777319778.361818,-115.61,0.23,-0.43,0.022,-0.083,9.808,0.0,-0.01,-0.01
1777319778.3717756,-115.61,0.23,-0.43,0.024,-0.074,9.809,0.0,0.0,0.0
1777319778.3818007,-115.61,0.23,-0.43,0.026,-0.068,9.808,-0.01,-0.01,0.0
1777319778.391801,-115.61,0.23,-0.43,0.028,-0.068,9.809,0.0,-0.01,0.0
1777319778.4018092,-115.61,0.23,-0.43,0.026,-0.073,9.809,-0.01,-0.01,0.0
1777319778.4117646,-115.61,0.23,-0.43,0.031,-0.074,9.809,0.0,-0.01,0.0
1777319778.421791,-115.61,0.23,-0.43,0.03,-0.078,9.809,0.0,-0.01,-0.01
1777319778.4317973,-115.61,0.23,-0.43,0.031,-0.084,9.809,0.0,0.0,-0.01
1777319778.4417908,-115.61,0.23,-0.43,0.034,-0.083,9.809,-0.01,-0.01,-0.01
1777319778.4520023,-115.61,0.23,-0.43,0.036,-0.085,9.809,0.0,-0.01,0.0
1777319778.4618208,-115.61,0.23,-0.43,0.04,-0.079,9.809,0.0,0.0,0.0
1777319778.4717925,-115.61,0.23,-0.43,0.034,-0.079,9.809,0.0,-0.01,0.0
1777319778.481793,-115.61,0.23,-0.43,0.034,-0.075,9.809,0.0,-0.01,0.0
1777319778.49184,-115.61,0.23,-0.43,0.036,-0.071,9.809,-0.01,-0.01,0.0
1777319778.501798,-115.61,0.23,-0.43,0.03,-0.069,9.808,0.0,-0.01,0.0
1777319778.511811,-115.61,0.23,-0.43,0.034,-0.069,9.809,-0.01,-0.01,-0.01
1777319778.5218165,-115.61,0.23,-0.43,0.032,-0.072,9.809,0.0,-0.01,0.0
1777319778.5318213,-115.62,0.24,-0.43,0.029,-0.072,9.81,0.0,-0.01,0.0
1777319778.5417554,-115.62,0.24,-0.43,0.035,-0.068,9.81,0.0,-0.01,0.0
1777319778.5517974,-115.62,0.24,-0.43,0.037,-0.069,9.81,0.0,-0.01,0.0
1777319778.5617638,-115.61,0.24,-0.43,0.043,-0.072,9.809,0.0,0.0,-0.01
1777319778.5718071,-115.61,0.24,-0.43,0.046,-0.075,9.809,-0.01,-0.01,-0.01
1777319778.5817893,-115.61,0.24,-0.43,0.043,-0.079,9.809,0.0,0.0,0.0
1777319778.591831,-115.62,0.24,-0.43,0.037,-0.073,9.81,0.0,0.0,0.0
1777319778.6018302,-115.62,0.24,-0.43,0.038,-0.068,9.81,0.0,0.0,0.0
1777319778.6117768,-115.62,0.24,-0.43,0.034,-0.066,9.81,0.0,0.0,0.0
1777319778.6218033,-115.62,0.23,-0.42,0.032,-0.066,9.81,0.0,-0.01,0.0
1777319778.6318147,-115.62,0.23,-0.42,0.031,-0.06,9.81,-0.01,0.0,0.0
1777319778.641767,-115.62,0.23,-0.42,0.029,-0.063,9.81,0.0,0.0,-0.01
1777319778.6518,-115.62,0.23,-0.42,0.028,-0.066,9.81,0.0,-0.01,-0.01
1777319778.6618237,-115.62,0.23,-0.42,0.025,-0.069,9.81,0.0,-0.01,-0.01
1777319778.6718256,-115.62,0.23,-0.42,0.025,-0.067,9.81,-0.01,-0.01,0.0
1777319778.6819744,-115.62,0.23,-0.42,0.035,-0.067,9.809,-0.01,-0.01,0.0
1777319778.6918075,-115.62,0.23,-0.42,0.038,-0.079,9.808,-0.01,-0.01,0.0
1777319778.7018118,-115.62,0.24,-0.43,0.042,-0.079,9.808,0.0,-0.01,0.0
1777319778.7118306,-115.62,0.24,-0.43,0.038,-0.077,9.809,0.0,-0.01,-0.01
1777319778.721792,-115.62,0.23,-0.42,0.036,-0.078,9.809,0.0,0.0,0.0
1777319778.7317483,-115.62,0.23,-0.42,0.036,-0.077,9.808,0.0,-0.01,0.0
1777319778.741833,-115.62,0.23,-0.43,0.037,-0.071,9.808,0.0,0.0,0.0
1777319778.7517664,-115.62,0.23,-0.43,0.032,-0.067,9.809,0.0,0.0,0.0
1777319778.7617815,-115.62,0.23,-0.42,0.031,-0.066,9.809,0.0,0.0,0.0
1777319778.7717776,-115.62,0.23,-0.42,0.028,-0.059,9.809,0.0,-0.01,0.0
1777319778.7817805,-115.62,0.23,-0.42,0.032,-0.066,9.81,0.0,-0.01,-0.01
1777319778.7917438,-115.62,0.23,-0.42,0.031,-0.069,9.81,0.0,-0.01,-0.01
1777319778.801764,-115.62,0.23,-0.42,0.031,-0.075,9.81,-0.01,-0.01,-0.01
1777319778.811885,-115.62,0.23,-0.43,0.034,-0.083,9.81,-0.01,0.0,0.0
1777319778.8217676,-115.62,0.23,-0.43,0.036,-0.085,9.81,0.0,-0.01,0.0
1777319778.8318033,-115.62,0.23,-0.43,0.035,-0.087,9.809,-0.01,-0.01,0.0
1777319778.8417962,-115.62,0.23,-0.43,0.036,-0.086,9.809,-0.01,0.0,0.0
1777319778.8518264,-115.62,0.23,-0.43,0.04,-0.085,9.81,-0.01,0.0,-0.01
1777319778.8617795,-115.62,0.23,-0.43,0.036,-0.086,9.81,0.0,-0.01,0.0
1777319778.8717752,-115.62,0.23,-0.43,0.035,-0.08,9.81,0.0,-0.01,0.0
1777319778.8817656,-115.62,0.23,-0.43,0.035,-0.077,9.81,0.0,-0.01,0.0
1777319778.891781,-115.62,0.23,-0.43,0.031,-0.077,9.81,-0.01,0.0,0.0
1777319778.901746,-115.62,0.23,-0.43,0.037,-0.069,9.81,-0.01,-0.01,0.0
1777319778.9117742,-115.62,0.23,-0.43,0.038,-0.065,9.81,-0.01,0.0,-0.01
1777319778.9218311,-115.62,0.23,-0.43,0.032,-0.067,9.81,-0.01,-0.01,-0.01
1777319778.9317696,-115.62,0.23,-0.43,0.04,-0.068,9.81,0.0,-0.01,0.0
1777319778.9408655,-115.62,0.23,-0.42,0.041,-0.072,9.81,0.0,-0.01,0.0
1777319778.9517562,-115.62,0.24,-0.43,0.04,-0.072,9.81,-0.01,-0.01,0.0
1777319778.9608839,-115.62,0.23,-0.43,0.038,-0.075,9.81,-0.01,0.0,0.0
1777319778.9717803,-115.62,0.23,-0.43,0.041,-0.08,9.81,-0.01,0.0,0.0
1777319778.9817722,-115.62,0.23,-0.43,0.037,-0.081,9.81,-0.01,0.0,0.0
1777319778.990916,-115.62,0.23,-0.43,0.04,-0.081,9.81,0.0,0.0,0.0
1777319779.001778,-115.62,0.23,-0.43,0.035,-0.078,9.81,0.0,0.0,0.0
1777319779.0117497,-115.62,0.23,-0.43,0.037,-0.078,9.81,0.0,0.0,0.0
1777319779.020865,-115.62,0.23,-0.43,0.036,-0.077,9.81,0.0,0.0,0.0
1777319779.0310016,-115.62,0.23,-0.43,0.037,-0.073,9.81,-0.01,0.0,0.0
1777319779.0408916,-115.62,0.23,-0.43,0.036,-0.072,9.81,-0.01,-0.01,-0.01
1777319779.0509043,-115.62,0.23,-0.43,0.034,-0.073,9.81,0.0,-0.01,0.0
1777319779.0609322,-115.62,0.24,-0.43,0.04,-0.08,9.81,0.0,-0.01,-0.01
1777319779.0709274,-115.62,0.23,-0.43,0.035,-0.081,9.81,-0.01,-0.01,0.0
1777319779.080863,-115.62,0.23,-0.43,0.032,-0.081,9.81,-0.01,0.0,0.0
1777319779.091762,-115.62,0.23,-0.43,0.036,-0.083,9.81,0.0,0.0,0.0
1777319779.1017513,-115.62,0.23,-0.43,0.036,-0.083,9.81,-0.01,0.0,0.0
1777319779.1109145,-115.62,0.23,-0.43,0.035,-0.077,9.81,-0.01,0.0,0.0
1777319779.1208491,-115.62,0.23,-0.43,0.038,-0.073,9.81,0.0,0.0,0.0
1777319779.1308713,-115.62,0.23,-0.43,0.036,-0.071,9.81,-0.01,0.0,0.0
1777319779.1417856,-115.62,0.23,-0.43,0.036,-0.069,9.81,-0.01,0.0,0.0
1777319779.150878,-115.62,0.23,-0.43,0.041,-0.073,9.81,0.0,-0.01,0.0
1777319779.1608634,-115.62,0.23,-0.43,0.04,-0.069,9.81,0.0,-0.01,0.0
1777319779.1708746,-115.62,0.23,-0.43,0.038,-0.073,9.81,0.0,-0.01,0.0
1777319779.180855,-115.62,0.23,-0.43,0.038,-0.074,9.81,-0.01,0.0,0.0
1777319779.1910584,-115.62,0.23,-0.43,0.034,-0.079,9.809,-0.01,-0.01,0.0
1777319779.200855,-115.62,0.23,-0.43,0.03,-0.077,9.809,-0.01,-0.01,0.0
1777319779.2108817,-115.62,0.23,-0.43,0.029,-0.084,9.809,0.0,-0.01,0.0
1777319779.2208834,-115.62,0.23,-0.43,0.032,-0.087,9.809,0.0,0.0,0.0
1777319779.2308826,-115.62,0.23,-0.43,0.034,-0.083,9.809,0.0,-0.01,0.0
1777319779.2408738,-115.62,0.23,-0.43,0.04,-0.075,9.81,0.0,-0.01,0.0
1777319779.2508814,-115.62,0.23,-0.43,0.04,-0.073,9.81,0.0,0.0,0.0
1777319779.2608662,-115.62,0.23,-0.43,0.043,-0.068,9.81,-0.01,0.0,-0.01
1777319779.2708564,-115.62,0.24,-0.43,0.046,-0.066,9.809,-0.01,-0.01,0.0
1777319779.2808597,-115.62,0.24,-0.43,0.04,-0.067,9.809,0.0,0.0,-0.01
1777319779.2908907,-115.62,0.24,-0.43,0.037,-0.074,9.809,-0.01,-0.01,0.0
1777319779.300857,-115.62,0.23,-0.43,0.031,-0.073,9.81,0.0,-0.01,0.0
1777319779.3108582,-115.62,0.23,-0.43,0.037,-0.079,9.81,0.0,-0.01,0.0
1777319779.3208714,-115.62,0.23,-0.43,0.032,-0.087,9.809,0.0,-0.01,0.0
1777319779.3308744,-115.62,0.23,-0.43,0.031,-0.09,9.809,-0.01,0.0,0.0
1777319779.3408828,-115.62,0.23,-0.43,0.03,-0.087,9.809,0.0,0.0,0.0
1777319779.3508615,-115.62,0.23,-0.43,0.024,-0.081,9.809,-0.01,0.0,0.0
1777319779.3608937,-115.62,0.23,-0.43,0.026,-0.069,9.809,0.0,0.0,0.0
1777319779.3709598,-115.62,0.23,-0.43,0.025,-0.067,9.81,0.0,0.0,0.0
1777319779.3810701,-115.62,0.23,-0.43,0.028,-0.062,9.81,0.0,-0.01,-0.01
1777319779.3908744,-115.62,0.23,-0.43,0.029,-0.067,9.81,0.0,0.0,0.0
1777319779.4008498,-115.62,0.23,-0.43,0.031,-0.066,9.81,0.0,-0.01,0.0
1777319779.4109006,-115.62,0.23,-0.43,0.037,-0.06,9.81,-0.01,-0.01,-0.01
1777319779.4208689,-115.62,0.23,-0.43,0.037,-0.067,9.81,-0.01,-0.01,-0.01
1777319779.4308953,-115.62,0.23,-0.43,0.041,-0.075,9.81,-0.01,0.0,-0.01
1777319779.4408634,-115.62,0.23,-0.43,0.042,-0.081,9.81,-0.01,0.0,-0.01
1777319779.4508762,-115.62,0.23,-0.43,0.042,-0.083,9.81,-0.01,-0.01,0.0
1777319779.4608505,-115.62,0.23,-0.43,0.043,-0.085,9.81,-0.01,0.0,0.0
1777319779.4708624,-115.62,0.23,-0.43,0.042,-0.079,9.81,0.0,-0.01,0.0
1777319779.4808815,-115.62,0.23,-0.43,0.04,-0.073,9.81,-0.01,0.0,0.0
1777319779.4908698,-115.62,0.23,-0.43,0.038,-0.063,9.81,0.0,0.0,-0.01
1777319779.5008514,-115.62,0.23,-0.43,0.034,-0.066,9.81,0.0,-0.01,0.0
1777319779.510862,-115.62,0.23,-0.43,0.03,-0.069,9.81,-0.01,0.0,0.0
1777319779.52094,-115.62,0.23,-0.43,0.037,-0.066,9.81,0.0,-0.01,-0.01
1777319779.530867,-115.62,0.23,-0.43,0.042,-0.069,9.808,-0.01,-0.01,0.0
1777319779.5408764,-115.62,0.23,-0.43,0.043,-0.069,9.808,-0.01,-0.01,-0.01
1777319779.550854,-115.62,0.24,-0.43,0.041,-0.075,9.809,0.0,-0.01,0.0
1777319779.5608609,-115.62,0.24,-0.43,0.042,-0.081,9.809,0.0,-0.01,0.0
1777319779.5708525,-115.62,0.24,-0.43,0.042,-0.083,9.809,0.0,-0.01,0.0
1777319779.5808427,-115.62,0.23,-0.43,0.04,-0.084,9.81,0.0,0.0,0.0
1777319779.5908408,-115.62,0.24,-0.44,0.038,-0.079,9.81,-0.01,-0.01,0.0
1777319779.6008284,-115.62,0.24,-0.44,0.037,-0.077,9.81,-0.01,-0.01,0.0
1777319779.6110404,-115.62,0.24,-0.43,0.031,-0.077,9.81,0.0,-0.01,0.0
1777319779.620882,-115.62,0.23,-0.43,0.029,-0.075,9.81,0.0,0.0,0.0
1777319779.6308746,-115.62,0.23,-0.43,0.028,-0.073,9.81,0.0,0.0,0.0
1777319779.640832,-115.62,0.23,-0.43,0.031,-0.068,9.81,0.0,0.0,0.0
1777319779.6508608,-115.62,0.23,-0.43,0.036,-0.071,9.809,0.0,-0.01,0.0
1777319779.6608386,-115.62,0.24,-0.43,0.04,-0.074,9.81,0.0,-0.01,0.0
1777319779.6708858,-115.62,0.24,-0.43,0.036,-0.08,9.804,0.0,-0.01,0.0
1777319779.6808581,-115.62,0.24,-0.43,0.031,-0.086,9.805,0.0,0.0,0.0
1777319779.6908715,-115.62,0.23,-0.43,0.025,-0.09,9.805,-0.01,-0.01,0.0
1777319779.700849,-115.62,0.23,-0.43,0.019,-0.089,9.806,-0.01,0.0,0.0
1777319779.7108989,-115.62,0.23,-0.43,0.018,-0.086,9.803,0.0,0.0,0.0
1777319779.7208588,-115.62,0.23,-0.43,0.022,-0.086,9.804,0.0,0.0,0.0
1777319779.7308755,-115.62,0.23,-0.43,0.019,-0.083,9.805,0.0,-0.01,0.0
1777319779.740859,-115.62,0.23,-0.43,0.02,-0.071,9.806,0.0,-0.01,0.0
1777319779.7509136,-115.62,0.23,-0.43,0.02,-0.067,9.806,0.0,0.0,0.0
1777319779.7608898,-115.62,0.23,-0.43,0.025,-0.067,9.808,0.0,-0.01,-0.01
1777319779.770868,-115.62,0.23,-0.43,0.026,-0.066,9.808,0.0,-0.01,-0.01
1777319779.780827,-115.62,0.23,-0.43,0.025,-0.066,9.806,0.0,-0.01,-0.01
1777319779.7909029,-115.62,0.23,-0.43,0.028,-0.067,9.806,0.0,0.0,-0.01
1777319779.800883,-115.62,0.23,-0.43,0.03,-0.065,9.808,-0.01,0.0,0.0
1777319779.8109002,-115.62,0.23,-0.43,0.032,-0.073,9.808,-0.01,0.0,0.0
1777319779.8208764,-115.62,0.23,-0.43,0.037,-0.081,9.808,-0.01,0.0,-0.01
1777319779.8308864,-115.62,0.23,-0.43,0.037,-0.083,9.809,0.0,-0.01,0.0
1777319779.8408828,-115.62,0.23,-0.43,0.032,-0.085,9.809,0.0,0.0,0.0
1777319779.850873,-115.62,0.23,-0.43,0.029,-0.087,9.809,0.0,-0.01,0.0
1777319779.860852,-115.62,0.23,-0.43,0.034,-0.084,9.809,0.0,-0.01,0.0
1777319779.871106,-115.62,0.23,-0.43,0.037,-0.079,9.808,0.0,-0.01,0.0
1777319779.880889,-115.62,0.23,-0.43,0.04,-0.073,9.808,0.0,-0.01,0.0
1777319779.8909094,-115.62,0.23,-0.43,0.043,-0.062,9.808,0.0,-0.01,0.0
1777319779.9008696,-115.62,0.23,-0.43,0.041,-0.062,9.809,0.0,-0.01,-0.01
1777319779.9108405,-115.62,0.24,-0.43,0.037,-0.066,9.809,0.0,-0.01,-0.01
1777319779.9208815,-115.62,0.23,-0.43,0.037,-0.069,9.806,0.0,-0.01,0.0
1777319779.930874,-115.62,0.23,-0.43,0.041,-0.074,9.806,-0.01,0.0,0.0
1777319779.9408605,-115.62,0.23,-0.43,0.042,-0.074,9.808,-0.01,0.0,0.0
1777319779.9509244,-115.62,0.23,-0.43,0.042,-0.077,9.808,-0.01,-0.01,0.0
1777319779.9608352,-115.62,0.23,-0.43,0.043,-0.083,9.805,0.0,0.0,0.0
1777319779.97085,-115.62,0.23,-0.43,0.046,-0.087,9.806,0.0,0.0,-0.01
1777319779.980838,-115.62,0.23,-0.43,0.043,-0.091,9.806,0.0,-0.01,0.0
1777319779.9908233,-115.62,0.23,-0.44,0.041,-0.086,9.808,0.0,-0.01,-0.01
1777319780.0008862,-115.62,0.23,-0.43,0.041,-0.077,9.808,0.0,-0.01,0.0
1777319780.0108755,-115.62,0.24,-0.43,0.037,-0.072,9.808,0.0,-0.01,0.0
1777319780.0208442,-115.62,0.24,-0.43,0.04,-0.068,9.808,0.0,0.0,0.0
1777319780.0308225,-115.62,0.24,-0.43,0.04,-0.071,9.808,0.0,-0.01,0.0
1777319780.0408332,-115.62,0.24,-0.43,0.046,-0.073,9.809,0.0,-0.01,-0.01
1777319780.050855,-115.62,0.24,-0.43,0.044,-0.073,9.809,-0.01,-0.01,-0.01
1777319780.0608432,-115.62,0.24,-0.43,0.047,-0.077,9.809,0.0,-0.01,-0.01
1777319780.070859,-115.62,0.24,-0.44,0.041,-0.081,9.809,0.0,-0.01,0.0
1777319780.080828,-115.62,0.24,-0.44,0.041,-0.079,9.809,-0.01,0.0,0.0
1777319780.0908616,-115.62,0.24,-0.44,0.042,-0.081,9.809,-0.01,0.0,0.0
1777319780.1008139,-115.62,0.24,-0.44,0.037,-0.084,9.809,-0.01,0.0,0.0
1777319780.111253,-115.62,0.24,-0.44,0.036,-0.085,9.809,0.0,0.0,0.0
1777319780.1210063,-115.62,0.23,-0.44,0.032,-0.083,9.809,0.0,0.0,0.0
1777319780.130834,-115.62,0.23,-0.44,0.031,-0.078,9.809,-0.01,0.0,0.0
1777319780.1408215,-115.62,0.23,-0.44,0.037,-0.072,9.809,-0.01,-0.01,0.0
1777319780.1508486,-115.62,0.24,-0.44,0.038,-0.068,9.809,0.0,-0.01,0.0
1777319780.160808,-115.62,0.24,-0.44,0.034,-0.067,9.809,0.0,0.0,0.0
1777319780.1709774,-115.62,0.24,-0.44,0.036,-0.071,9.809,0.0,0.0,0.0
1777319780.1808367,-115.62,0.24,-0.44,0.04,-0.071,9.809,-0.01,0.0,-0.01
1777319780.1908493,-115.62,0.24,-0.44,0.038,-0.069,9.809,-0.01,-0.01,0.0
1777319780.2009766,-115.62,0.24,-0.44,0.041,-0.071,9.809,0.0,0.0,0.0
1777319780.2113745,-115.62,0.24,-0.44,0.041,-0.073,9.809,0.0,-0.01,-0.01
1777319780.2211714,-115.62,0.24,-0.44,0.032,-0.078,9.809,0.0,-0.01,-0.01
1777319780.2308342,-115.62,0.24,-0.44,0.03,-0.075,9.808,0.0,-0.01,0.0
1777319780.2409396,-115.62,0.24,-0.43,0.028,-0.079,9.809,0.0,0.0,0.0
1777319780.250848,-115.62,0.24,-0.43,0.029,-0.075,9.808,0.0,0.0,0.0
1777319780.260803,-115.62,0.24,-0.43,0.026,-0.069,9.808,0.0,0.0,0.0
1777319780.270822,-115.62,0.24,-0.43,0.029,-0.066,9.808,0.0,-0.01,0.0
1777319780.2800028,-115.62,0.24,-0.43,0.034,-0.068,9.809,-0.01,0.0,0.0
1777319780.28995,-115.62,0.24,-0.43,0.035,-0.071,9.809,-0.01,0.0,0.0
1777319780.2999778,-115.62,0.23,-0.43,0.032,-0.074,9.809,-0.01,-0.01,0.0
1777319780.310871,-115.62,0.24,-0.43,0.04,-0.075,9.809,-0.01,0.0,0.0
1777319780.3208213,-115.62,0.24,-0.43,0.036,-0.074,9.809,0.0,-0.01,-0.01
1777319780.3308265,-115.62,0.24,-0.43,0.037,-0.077,9.809,-0.01,-0.01,0.0
1777319780.340003,-115.62,0.24,-0.43,0.036,-0.079,9.809,0.0,0.0,0.0
1777319780.349966,-115.62,0.23,-0.43,0.034,-0.084,9.809,0.0,-0.01,0.0
1777319780.3608346,-115.62,0.23,-0.43,0.032,-0.08,9.809,0.0,0.0,0.0
1777319780.3699517,-115.62,0.23,-0.43,0.026,-0.08,9.809,-0.01,0.0,0.0
1777319780.379979,-115.62,0.23,-0.43,0.031,-0.077,9.809,0.0,-0.01,-0.01
1777319780.3899176,-115.62,0.23,-0.43,0.035,-0.073,9.809,-0.01,-0.01,0.0
1777319780.3999631,-115.62,0.23,-0.43,0.038,-0.072,9.809,0.0,-0.01,0.0
1777319780.4099023,-115.62,0.24,-0.43,0.044,-0.071,9.809,-0.01,0.0,-0.01
1777319780.4199502,-115.62,0.24,-0.44,0.046,-0.074,9.809,-0.01,0.0,-0.01
1777319780.4298978,-115.62,0.24,-0.44,0.05,-0.078,9.809,0.0,-0.01,0.0
1777319780.4399319,-115.62,0.24,-0.44,0.048,-0.08,9.809,0.0,-0.01,0.0
1777319780.449928,-115.62,0.24,-0.44,0.041,-0.087,9.809,0.0,-0.01,0.0
1777319780.459951,-115.62,0.24,-0.44,0.034,-0.086,9.809,0.0,-0.01,0.0
1777319780.4699192,-115.62,0.24,-0.44,0.034,-0.08,9.809,0.0,-0.01,0.0
1777319780.4799273,-115.62,0.24,-0.44,0.035,-0.079,9.809,-0.01,0.0,0.0
1777319780.4899464,-115.62,0.24,-0.44,0.031,-0.084,9.809,0.0,-0.01,0.0
1777319780.4999442,-115.62,0.23,-0.44,0.034,-0.085,9.809,0.0,0.0,0.0
1777319780.5099206,-115.62,0.23,-0.44,0.034,-0.078,9.809,-0.01,-0.01,0.0
1777319780.519936,-115.62,0.24,-0.44,0.037,-0.078,9.809,0.0,0.0,0.0
1777319780.5299468,-115.62,0.24,-0.44,0.037,-0.079,9.808,0.0,-0.01,0.0
1777319780.539954,-115.63,0.24,-0.44,0.03,-0.073,9.809,-0.01,-0.01,0.0
1777319780.549894,-115.62,0.24,-0.44,0.031,-0.079,9.808,0.0,-0.01,0.0
1777319780.5599282,-115.62,0.23,-0.44,0.034,-0.081,9.808,0.0,-0.01,-0.01
1777319780.5699153,-115.62,0.23,-0.44,0.034,-0.085,9.809,-0.01,0.0,0.0
1777319780.5799074,-115.62,0.23,-0.44,0.028,-0.081,9.809,-0.01,-0.01,0.0
1777319780.5899172,-115.63,0.23,-0.44,0.026,-0.081,9.809,-0.01,0.0,0.0
1777319780.5999548,-115.63,0.23,-0.44,0.029,-0.083,9.81,0.0,0.0,0.0
1777319780.6099482,-115.63,0.23,-0.44,0.037,-0.08,9.81,0.0,-0.01,0.0
1777319780.619964,-115.62,0.23,-0.44,0.04,-0.084,9.809,0.0,-0.01,-0.01
1777319780.6300535,-115.63,0.23,-0.44,0.04,-0.075,9.806,0.0,0.0,0.0
1777319780.640012,-115.63,0.23,-0.44,0.036,-0.071,9.808,-0.01,-0.01,0.0
1777319780.6499312,-115.63,0.23,-0.44,0.032,-0.073,9.809,0.0,0.0,0.0
1777319780.6599078,-115.63,0.23,-0.44,0.034,-0.073,9.809,0.0,0.0,0.0
1777319780.6699603,-115.63,0.23,-0.44,0.038,-0.071,9.809,0.0,0.0,0.0
1777319780.6812778,-115.63,0.23,-0.44,0.038,-0.072,9.809,-0.01,-0.01,0.0
1777319780.6899686,-115.63,0.23,-0.44,0.037,-0.083,9.81,-0.01,0.0,0.0
1777319780.6999376,-115.63,0.24,-0.44,0.032,-0.086,9.81,-0.01,0.0,0.0
1777319780.7099507,-115.63,0.24,-0.44,0.029,-0.081,9.81,-0.01,-0.01,0.0
1777319780.71996,-115.63,0.24,-0.44,0.028,-0.086,9.81,0.0,-0.01,0.0
1777319780.7299402,-115.63,0.23,-0.44,0.029,-0.072,9.81,-0.01,-0.01,0.0
1777319780.739898,-115.63,0.23,-0.44,0.028,-0.079,9.81,0.0,0.0,-0.01
1777319780.7499292,-115.63,0.23,-0.44,0.029,-0.071,9.809,-0.01,-0.01,-0.01
1777319780.759926,-115.63,0.23,-0.44,0.024,-0.074,9.81,-0.01,0.0,-0.01
1777319780.7699099,-115.63,0.23,-0.44,0.026,-0.073,9.81,-0.01,-0.01,0.0
1777319780.7799141,-115.63,0.23,-0.44,0.028,-0.075,9.81,0.0,0.0,0.0
1777319780.789941,-115.63,0.23,-0.44,0.024,-0.075,9.81,0.0,-0.01,-0.01
1777319780.7998881,-115.63,0.23,-0.44,0.031,-0.078,9.809,-0.01,0.0,-0.01
1777319780.8099134,-115.63,0.23,-0.44,0.032,-0.073,9.809,-0.01,-0.01,-0.01
1777319780.819951,-115.63,0.23,-0.44,0.036,-0.078,9.81,-0.01,-0.01,-0.01
1777319780.8299258,-115.63,0.23,-0.44,0.038,-0.077,9.81,0.0,-0.01,0.0
1777319780.8398793,-115.63,0.23,-0.44,0.038,-0.074,9.81,-0.01,-0.01,0.0
1777319780.8499155,-115.63,0.23,-0.44,0.036,-0.074,9.805,0.0,-0.01,-0.01
1777319780.8599362,-115.63,0.23,-0.44,0.031,-0.075,9.806,0.0,0.0,-0.01
1777319780.8699179,-115.63,0.23,-0.44,0.035,-0.074,9.804,-0.01,0.0,-0.01
1777319780.879881,-115.63,0.23,-0.44,0.038,-0.072,9.805,0.0,0.0,-0.01
1777319780.8899057,-115.63,0.23,-0.44,0.041,-0.072,9.806,0.0,-0.01,0.0
1777319780.899905,-115.63,0.23,-0.44,0.042,-0.073,9.808,0.0,-0.01,0.0
1777319780.9098914,-115.63,0.23,-0.44,0.037,-0.071,9.808,0.0,0.0,-0.01
1777319780.9198678,-115.63,0.23,-0.44,0.041,-0.072,9.809,-0.01,-0.01,-0.01
1777319780.929929,-115.63,0.23,-0.44,0.044,-0.077,9.809,-0.01,-0.01,-0.01
1777319780.9399166,-115.63,0.23,-0.44,0.041,-0.077,9.809,0.0,0.0,-0.01
1777319780.949903,-115.63,0.23,-0.44,0.041,-0.078,9.81,0.0,-0.01,0.0
1777319780.9599266,-115.63,0.23,-0.44,0.038,-0.072,9.81,0.0,0.0,0.0
1777319780.9699059,-115.63,0.23,-0.44,0.043,-0.069,9.81,-0.01,-0.01,0.0
1777319780.979926,-115.63,0.23,-0.44,0.043,-0.069,9.81,0.0,-0.01,-0.01
1777319780.9899118,-115.63,0.23,-0.44,0.038,-0.073,9.81,0.0,-0.01,-0.01
1777319780.999926,-115.63,0.23,-0.44,0.037,-0.074,9.81,0.0,0.0,-0.01
1777319781.0099404,-115.63,0.23,-0.44,0.038,-0.074,9.81,0.0,0.0,-0.01
1777319781.0199049,-115.63,0.23,-0.44,0.034,-0.071,9.81,0.0,-0.01,-0.01
1777319781.029903,-115.63,0.23,-0.44,0.037,-0.067,9.81,0.0,-0.01,-0.01
1777319781.0399168,-115.63,0.23,-0.44,0.036,-0.072,9.81,0.0,0.0,-0.01
1777319781.0499308,-115.63,0.23,-0.44,0.037,-0.074,9.81,-0.01,0.0,-0.01
1777319781.0599046,-115.63,0.23,-0.44,0.044,-0.074,9.81,0.0,0.0,-0.01
1777319781.0699515,-115.63,0.23,-0.44,0.042,-0.075,9.81,0.0,0.0,-0.01
1777319781.0799541,-115.63,0.23,-0.44,0.041,-0.075,9.81,0.0,-0.01,-0.01
1777319781.089884,-115.63,0.23,-0.44,0.038,-0.071,9.81,0.0,-0.01,0.0
1777319781.099911,-115.63,0.23,-0.44,0.043,-0.068,9.81,0.0,0.0,-0.01
1777319781.1099167,-115.63,0.23,-0.43,0.043,-0.068,9.81,0.0,-0.01,0.0
1777319781.1199558,-115.63,0.23,-0.43,0.041,-0.066,9.81,0.0,-0.01,-0.01
1777319781.129906,-115.63,0.23,-0.44,0.031,-0.069,9.81,0.0,-0.01,-0.01
1777319781.139925,-115.63,0.23,-0.44,0.031,-0.074,9.81,-0.01,0.0,-0.01
1777319781.1499178,-115.63,0.23,-0.44,0.029,-0.079,9.81,0.0,0.0,-0.01
1777319781.1599286,-115.63,0.23,-0.44,0.026,-0.079,9.81,-0.01,0.0,-0.01
1777319781.1698573,-115.63,0.23,-0.44,0.029,-0.079,9.81,-0.01,-0.01,-0.01
1777319781.1798918,-115.63,0.23,-0.44,0.036,-0.079,9.81,-0.01,-0.01,-0.01
1777319781.1899064,-115.63,0.23,-0.44,0.041,-0.074,9.81,0.0,-0.01,-0.01
1777319781.1998994,-115.62,0.23,-0.44,0.041,-0.077,9.809,0.0,-0.01,-0.01
1777319781.209869,-115.62,0.23,-0.44,0.04,-0.078,9.806,-0.01,-0.01,-0.01
1777319781.219915,-115.63,0.23,-0.44,0.038,-0.08,9.809,0.0,-0.01,-0.01
1777319781.229898,-115.63,0.23,-0.44,0.041,-0.072,9.809,0.0,0.0,0.0
1777319781.239903,-115.63,0.23,-0.44,0.042,-0.069,9.809,-0.01,-0.01,0.0
1777319781.2498858,-115.63,0.23,-0.44,0.044,-0.071,9.808,-0.01,0.0,0.0
1777319781.2599092,-115.63,0.23,-0.44,0.044,-0.074,9.808,-0.01,0.0,-0.01
1777319781.269884,-115.63,0.23,-0.44,0.047,-0.075,9.809,0.0,0.0,-0.01
1777319781.2798705,-115.63,0.23,-0.44,0.038,-0.079,9.809,0.0,0.0,-0.01
1777319781.2898557,-115.63,0.23,-0.44,0.037,-0.084,9.806,-0.01,0.0,-0.01
1777319781.299896,-115.63,0.23,-0.44,0.041,-0.086,9.806,-0.01,-0.01,0.0
1777319781.3098733,-115.63,0.23,-0.44,0.042,-0.087,9.808,0.0,0.0,-0.01
1777319781.3198779,-115.63,0.23,-0.44,0.043,-0.085,9.809,-0.01,-0.01,-0.01
1777319781.3298655,-115.63,0.23,-0.44,0.047,-0.079,9.809,0.0,-0.01,-0.01
1777319781.3399048,-115.63,0.23,-0.44,0.044,-0.075,9.809,-0.01,-0.01,-0.01
1777319781.3499103,-115.63,0.23,-0.44,0.043,-0.078,9.809,-0.01,-0.01,-0.01
1777319781.3599184,-115.63,0.23,-0.44,0.041,-0.077,9.804,-0.01,0.0,0.0
1777319781.3701456,-115.63,0.23,-0.44,0.036,-0.079,9.805,-0.01,0.0,0.0
1777319781.3798962,-115.63,0.23,-0.44,0.037,-0.078,9.806,0.0,0.0,-0.01
1777319781.3898952,-115.63,0.23,-0.44,0.042,-0.074,9.808,-0.01,-0.01,-0.01
1777319781.3999083,-115.63,0.23,-0.44,0.041,-0.078,9.808,0.0,-0.01,-0.01
1777319781.4090557,-115.63,0.23,-0.44,0.037,-0.079,9.809,-0.01,-0.01,-0.01
1777319781.4198604,-115.63,0.23,-0.44,0.032,-0.081,9.809,-0.01,-0.01,-0.01
1777319781.4298658,-115.63,0.23,-0.44,0.034,-0.078,9.809,-0.01,-0.01,-0.01
1777319781.439887,-115.63,0.23,-0.44,0.041,-0.083,9.81,0.0,-0.01,-0.01
1777319781.449934,-115.63,0.23,-0.44,0.037,-0.074,9.809,0.0,-0.01,-0.01
1777319781.4598577,-115.63,0.23,-0.44,0.042,-0.078,9.802,0.0,0.0,-0.01
1777319781.469871,-115.63,0.23,-0.44,0.042,-0.072,9.804,0.0,-0.01,-0.01
1777319781.4794283,-115.63,0.23,-0.44,0.041,-0.072,9.805,0.0,-0.01,0.0
1777319781.4898942,-115.63,0.23,-0.44,0.043,-0.069,9.806,0.0,-0.01,0.0
1777319781.498942,-115.63,0.23,-0.44,0.04,-0.065,9.808,0.0,-0.01,-0.01
1777319781.5098705,-115.63,0.23,-0.44,0.038,-0.065,9.808,0.0,0.0,-0.01
1777319781.5198796,-115.63,0.23,-0.44,0.04,-0.067,9.809,0.0,0.0,-0.01
1777319781.5298648,-115.63,0.23,-0.44,0.04,-0.067,9.809,0.0,0.0,0.0
1777319781.5389452,-115.63,0.23,-0.44,0.041,-0.072,9.809,-0.01,0.0,0.0
1777319781.5490005,-115.63,0.23,-0.44,0.04,-0.071,9.809,-0.01,0.0,0.0
1777319781.558997,-115.63,0.23,-0.44,0.042,-0.069,9.81,-0.01,0.0,0.0
1777319781.569007,-115.63,0.23,-0.44,0.046,-0.074,9.81,0.0,-0.01,-0.01
1777319781.5789456,-115.63,0.23,-0.44,0.046,-0.077,9.81,-0.01,0.0,-0.01
1777319781.5889902,-115.63,0.23,-0.44,0.046,-0.075,9.81,0.0,-0.01,-0.01
1777319781.5990174,-115.63,0.23,-0.44,0.05,-0.077,9.81,-0.01,0.0,-0.01
1777319781.608979,-115.63,0.23,-0.44,0.05,-0.073,9.81,0.0,0.0,-0.01
1777319781.6198387,-115.63,0.23,-0.44,0.047,-0.071,9.81,0.0,0.0,0.0
1777319781.6298485,-115.63,0.23,-0.44,0.042,-0.072,9.81,0.0,-0.01,0.0
1777319781.638989,-115.63,0.23,-0.44,0.042,-0.073,9.81,0.0,0.0,0.0
1777319781.6489797,-115.63,0.23,-0.44,0.042,-0.072,9.81,-0.01,0.0,-0.01
1777319781.6590848,-115.63,0.23,-0.44,0.042,-0.072,9.81,-0.01,-0.01,-0.01
1777319781.6690097,-115.63,0.23,-0.44,0.04,-0.072,9.81,0.0,0.0,-0.01
1777319781.679022,-115.63,0.23,-0.44,0.035,-0.073,9.809,-0.01,-0.01,0.0
1777319781.6889973,-115.63,0.23,-0.44,0.035,-0.069,9.809,0.0,0.0,0.0
1777319781.6990082,-115.63,0.23,-0.44,0.035,-0.071,9.81,-0.01,-0.01,-0.01
1777319781.7090127,-115.63,0.23,-0.44,0.04,-0.072,9.81,-0.01,-0.01,-0.01
1777319781.719018,-115.63,0.23,-0.44,0.043,-0.072,9.81,0.0,-0.01,-0.01
1777319781.7290082,-115.63,0.23,-0.44,0.041,-0.077,9.809,-0.01,-0.01,0.0
1777319781.7390049,-115.63,0.23,-0.44,0.036,-0.074,9.809,0.0,-0.01,0.0
1777319781.74903,-115.63,0.23,-0.44,0.036,-0.072,9.809,0.0,-0.01,0.0
1777319781.7590313,-115.63,0.23,-0.44,0.041,-0.067,9.809,0.0,-0.01,-0.01
1777319781.7690084,-115.63,0.23,-0.44,0.043,-0.068,9.809,0.0,0.0,-0.01
1777319781.7790093,-115.63,0.23,-0.44,0.042,-0.073,9.809,0.0,0.0,-0.01
1777319781.789022,-115.63,0.23,-0.44,0.043,-0.074,9.809,-0.01,-0.01,-0.01
1777319781.7990093,-115.64,0.23,-0.44,0.038,-0.078,9.809,0.0,-0.01,0.0
1777319781.8089714,-115.64,0.23,-0.44,0.036,-0.075,9.809,-0.01,0.0,0.0
1777319781.8190327,-115.64,0.23,-0.44,0.035,-0.071,9.809,-0.01,0.0,-0.01
1777319781.8289452,-115.64,0.23,-0.44,0.035,-0.073,9.809,0.0,0.0,-0.01
1777319781.8390045,-115.63,0.23,-0.44,0.032,-0.073,9.808,0.0,-0.01,-0.01
1777319781.848963,-115.64,0.23,-0.44,0.031,-0.067,9.808,0.0,-0.01,-0.01
1777319781.858994,-115.64,0.23,-0.44,0.032,-0.065,9.808,0.0,0.0,0.0
1777319781.8689365,-115.64,0.23,-0.44,0.031,-0.061,9.808,-0.01,0.0,0.0
1777319781.8790169,-115.64,0.23,-0.44,0.035,-0.063,9.809,-0.01,0.0,0.0
1777319781.8889966,-115.64,0.23,-0.44,0.038,-0.065,9.809,0.0,0.0,0.0
1777319781.8989809,-115.64,0.23,-0.44,0.035,-0.072,9.809,0.0,0.0,-0.01
1777319781.9089282,-115.64,0.23,-0.44,0.037,-0.081,9.809,0.0,-0.01,0.0
1777319781.9189878,-115.64,0.23,-0.44,0.037,-0.083,9.809,-0.01,0.0,-0.01
1777319781.9289885,-115.64,0.23,-0.44,0.038,-0.084,9.809,-0.01,0.0,-0.01
1777319781.9389734,-115.64,0.23,-0.44,0.035,-0.081,9.806,-0.01,0.0,0.0
1777319781.9489222,-115.64,0.23,-0.44,0.035,-0.081,9.806,-0.01,0.0,-0.01
1777319781.95897,-115.64,0.23,-0.44,0.036,-0.078,9.808,0.0,-0.01,-0.01
1777319781.9689775,-115.64,0.23,-0.44,0.035,-0.075,9.808,0.0,0.0,-0.01
1777319781.9789906,-115.64,0.23,-0.44,0.04,-0.074,9.808,0.0,-0.01,-0.01
1777319781.988937,-115.64,0.23,-0.44,0.044,-0.068,9.809,0.0,-0.01,-0.01
1777319781.9989998,-115.64,0.23,-0.44,0.044,-0.072,9.809,-0.01,-0.01,-0.01
1777319782.0090027,-115.64,0.23,-0.44,0.046,-0.071,9.809,0.0,-0.01,0.0
1777319782.0189767,-115.64,0.23,-0.44,0.041,-0.065,9.808,0.0,0.0,0.0
1777319782.0289829,-115.64,0.23,-0.44,0.042,-0.072,9.808,-0.01,0.0,-0.01
1777319782.038976,-115.64,0.23,-0.44,0.041,-0.073,9.809,-0.01,0.0,0.0
1777319782.0489612,-115.64,0.23,-0.44,0.046,-0.077,9.809,0.0,0.0,-0.01
1777319782.0590107,-115.64,0.23,-0.44,0.041,-0.08,9.809,-0.01,0.0,-0.01
1777319782.0690188,-115.64,0.23,-0.44,0.038,-0.079,9.809,0.0,-0.01,-0.01
1777319782.0790095,-115.64,0.23,-0.44,0.038,-0.074,9.809,0.0,-0.01,-0.01
1777319782.0889935,-115.64,0.23,-0.44,0.036,-0.075,9.808,-0.01,0.0,-0.01
1777319782.0990489,-115.64,0.23,-0.44,0.035,-0.075,9.808,-0.01,0.0,-0.01
1777319782.108935,-115.64,0.23,-0.44,0.035,-0.073,9.809,0.0,-0.01,-0.01
1777319782.1189072,-115.64,0.23,-0.44,0.04,-0.072,9.809,0.0,-0.01,-0.01
1777319782.1289732,-115.64,0.23,-0.44,0.035,-0.078,9.809,0.0,-0.01,-0.01
1777319782.1389802,-115.64,0.23,-0.44,0.034,-0.077,9.809,0.0,-0.01,-0.01
1777319782.1489654,-115.64,0.23,-0.44,0.035,-0.073,9.806,0.0,-0.01,-0.01
1777319782.16365,-115.64,0.23,-0.44,0.031,-0.071,9.808,-0.01,0.0,-0.01
1777319782.212367,-115.64,0.23,-0.44,0.03,-0.074,9.805,0.0,0.0,-0.01
1777319782.2138762,-115.64,0.23,-0.44,0.025,-0.077,9.804,0.0,-0.01,-0.01
1777319782.2153091,-115.64,0.23,-0.44,0.023,-0.078,9.805,0.0,0.0,0.0
1777319782.2167568,-115.64,0.23,-0.44,0.028,-0.074,9.806,0.0,-0.01,-0.01
1777319782.21897,-115.64,0.23,-0.44,0.029,-0.072,9.806,-0.01,-0.01,0.0
1777319782.220549,-115.64,0.23,-0.44,0.032,-0.072,9.808,0.0,-0.01,-0.01
1777319782.229047,-115.64,0.23,-0.44,0.034,-0.072,9.808,0.0,0.0,-0.01
1777319782.239033,-115.64,0.23,-0.44,0.035,-0.075,9.808,-0.01,-0.01,-0.01
1777319782.296426,-115.64,0.23,-0.44,0.034,-0.077,9.809,0.0,-0.01,-0.01
1777319782.313239,-115.64,0.23,-0.44,0.035,-0.083,9.809,0.0,0.0,-0.01
1777319782.3148859,-115.64,0.23,-0.44,0.034,-0.079,9.809,-0.01,-0.01,-0.01
1777319782.3161361,-115.64,0.23,-0.44,0.037,-0.079,9.809,0.0,-0.01,0.0
1777319782.318554,-115.64,0.23,-0.44,0.04,-0.084,9.809,0.0,0.0,0.0
1777319782.3213875,-115.64,0.23,-0.44,0.038,-0.081,9.809,0.0,0.0,-0.01
1777319782.3225386,-115.64,0.23,-0.44,0.037,-0.079,9.809,0.0,0.0,-0.01
1777319782.323661,-115.64,0.23,-0.44,0.038,-0.078,9.809,0.0,0.0,-0.01
1777319782.3289416,-115.64,0.23,-0.44,0.04,-0.078,9.809,0.0,0.0,0.0
1777319782.338975,-115.64,0.23,-0.44,0.041,-0.073,9.806,0.0,0.0,0.0
1777319782.3490713,-115.64,0.23,-0.44,0.04,-0.072,9.806,0.0,0.0,-0.01
1777319782.3590512,-115.64,0.23,-0.44,0.036,-0.078,9.808,0.0,0.0,-0.01
1777319782.3690155,-115.64,0.23,-0.44,0.036,-0.075,9.808,0.0,0.0,-0.01
1777319782.3790052,-115.64,0.23,-0.44,0.036,-0.086,9.808,0.0,-0.01,0.0
1777319782.3889956,-115.64,0.22,-0.44,0.036,-0.079,9.809,-0.01,-0.01,-0.01
1777319782.3990448,-115.64,0.22,-0.44,0.04,-0.083,9.809,0.0,0.0,-0.01
1777319782.4089718,-115.64,0.22,-0.44,0.038,-0.081,9.809,0.0,0.0,-0.01
1777319782.4191887,-115.64,0.22,-0.44,0.035,-0.079,9.809,0.0,0.0,0.0
1777319782.428998,-115.64,0.22,-0.44,0.035,-0.08,9.809,-0.01,-0.01,0.0
1777319782.4390073,-115.64,0.22,-0.44,0.032,-0.08,9.809,0.0,-0.01,0.0
1777319782.4489758,-115.64,0.22,-0.44,0.029,-0.079,9.809,-0.01,0.0,-0.01
1777319782.4592006,-115.64,0.22,-0.44,0.028,-0.08,9.809,-0.01,0.0,-0.01
1777319782.46897,-115.64,0.22,-0.44,0.028,-0.074,9.809,0.0,0.0,-0.01
1777319782.4789732,-115.64,0.22,-0.44,0.026,-0.075,9.806,0.0,0.0,-0.01
1777319782.4889832,-115.64,0.22,-0.44,0.029,-0.069,9.808,0.0,0.0,-0.01
1777319782.4989798,-115.64,0.22,-0.44,0.034,-0.069,9.805,-0.01,0.0,-0.01
1777319782.50899,-115.64,0.22,-0.44,0.031,-0.073,9.806,-0.01,0.0,-0.01
1777319782.5189779,-115.64,0.22,-0.44,0.031,-0.073,9.806,0.0,0.0,-0.01
1777319782.528983,-115.64,0.22,-0.44,0.037,-0.073,9.808,0.0,-0.01,-0.01
1777319782.5389278,-115.64,0.22,-0.44,0.038,-0.069,9.808,0.0,-0.01,-0.01
1777319782.5489366,-115.64,0.22,-0.44,0.037,-0.073,9.808,-0.01,0.0,-0.01
1777319782.558933,-115.64,0.22,-0.44,0.036,-0.078,9.808,0.0,0.0,-0.01
1777319782.5689406,-115.64,0.22,-0.44,0.042,-0.08,9.809,0.0,-0.01,-0.01
1777319782.5791237,-115.64,0.22,-0.44,0.043,-0.081,9.809,0.0,0.0,0.0
1777319782.5889528,-115.64,0.22,-0.44,0.04,-0.079,9.809,0.0,0.0,0.0
1777319782.5989263,-115.64,0.22,-0.44,0.037,-0.077,9.809,0.0,0.0,0.0
1777319782.6089826,-115.64,0.22,-0.44,0.038,-0.078,9.809,0.0,0.0,0.0
1777319782.6190326,-115.64,0.22,-0.44,0.04,-0.078,9.809,0.0,-0.01,-0.01
1777319782.6289673,-115.64,0.22,-0.44,0.042,-0.077,9.809,-0.01,0.0,-0.01
1777319782.638967,-115.64,0.22,-0.44,0.043,-0.08,9.809,-0.01,0.0,-0.01
1777319782.6489656,-115.64,0.22,-0.44,0.038,-0.08,9.809,0.0,-0.01,-0.01
1777319782.6589322,-115.64,0.22,-0.44,0.044,-0.08,9.809,-0.01,-0.01,-0.01
1777319782.6689131,-115.64,0.22,-0.44,0.053,-0.075,9.809,0.0,-0.01,-0.01
1777319782.6789298,-115.64,0.22,-0.44,0.059,-0.078,9.809,-0.01,-0.01,-0.01
1777319782.689537,-115.64,0.22,-0.44,0.057,-0.08,9.809,0.0,0.0,-0.01
1777319782.6981225,-115.64,0.22,-0.45,0.055,-0.081,9.809,0.0,0.0,0.0
1777319782.7089477,-115.64,0.22,-0.45,0.048,-0.08,9.809,0.0,0.0,-0.01
1777319782.718949,-115.64,0.22,-0.44,0.042,-0.081,9.809,-0.01,-0.01,0.0
1777319782.7289648,-115.64,0.22,-0.45,0.043,-0.085,9.809,0.0,0.0,-0.01
1777319782.7389555,-115.64,0.22,-0.45,0.04,-0.083,9.809,-0.01,-0.01,-0.01
1777319782.7481105,-115.64,0.22,-0.45,0.034,-0.079,9.809,-0.01,-0.01,-0.01
1777319782.7589073,-115.64,0.22,-0.45,0.035,-0.078,9.809,-0.01,-0.01,-0.01
1777319782.7689314,-115.64,0.22,-0.45,0.042,-0.074,9.809,-0.01,0.0,-0.01
1777319782.7789168,-115.64,0.22,-0.45,0.04,-0.072,9.809,0.0,-0.01,-0.01
1777319782.788916,-115.64,0.22,-0.45,0.043,-0.069,9.809,0.0,0.0,-0.01
1777319782.798939,-115.64,0.22,-0.45,0.048,-0.071,9.809,0.0,-0.01,-0.01
1777319782.808128,-115.64,0.23,-0.44,0.051,-0.074,9.809,-0.01,0.0,-0.01
1777319782.818096,-115.64,0.23,-0.44,0.05,-0.08,9.809,0.0,0.0,-0.01
1777319782.8280766,-115.64,0.23,-0.44,0.044,-0.08,9.809,0.0,-0.01,-0.01
1777319782.8382227,-115.64,0.23,-0.44,0.047,-0.077,9.809,0.0,-0.01,0.0
1777319782.8490279,-115.64,0.23,-0.44,0.048,-0.071,9.809,0.0,0.0,-0.01
1777319782.8589203,-115.64,0.23,-0.44,0.049,-0.071,9.809,0.0,0.0,-0.01
1777319782.8689473,-115.64,0.23,-0.44,0.049,-0.069,9.808,-0.01,0.0,-0.01
1777319782.878964,-115.64,0.23,-0.44,0.046,-0.072,9.808,0.0,-0.01,0.0
1777319782.8880863,-115.64,0.23,-0.44,0.043,-0.075,9.808,0.0,-0.01,-0.01
1777319782.898192,-115.64,0.23,-0.44,0.043,-0.079,9.808,-0.01,-0.01,-0.01
1777319782.908113,-115.64,0.23,-0.44,0.043,-0.079,9.809,0.0,-0.01,0.0
1777319782.9180872,-115.64,0.23,-0.44,0.046,-0.083,9.809,0.0,0.0,-0.01
1777319782.9280422,-115.64,0.23,-0.44,0.047,-0.081,9.809,0.0,-0.01,-0.01
1777319782.9380744,-115.64,0.23,-0.44,0.042,-0.079,9.809,0.0,-0.01,-0.01
1777319782.9480596,-115.64,0.23,-0.44,0.041,-0.075,9.809,0.0,-0.01,-0.01
1777319782.9580417,-115.64,0.23,-0.44,0.04,-0.073,9.809,0.0,-0.01,0.0
1777319782.9680662,-115.64,0.23,-0.44,0.038,-0.078,9.809,0.0,0.0,-0.01
1777319782.9780986,-115.64,0.23,-0.44,0.035,-0.077,9.809,0.0,0.0,-0.01
1777319782.988083,-115.64,0.23,-0.44,0.031,-0.078,9.809,0.0,-0.01,-0.01
1777319782.9980628,-115.64,0.23,-0.44,0.031,-0.086,9.809,-0.01,0.0,-0.01
1777319783.0080602,-115.64,0.23,-0.44,0.035,-0.084,9.809,0.0,0.0,-0.01
1777319783.0180874,-115.64,0.23,-0.44,0.035,-0.086,9.803,0.0,-0.01,-0.01
1777319783.028056,-115.64,0.23,-0.44,0.037,-0.08,9.804,0.0,-0.01,-0.01
1777319783.0380797,-115.64,0.23,-0.44,0.04,-0.073,9.805,-0.01,0.0,-0.01
1777319783.0480785,-115.64,0.23,-0.44,0.043,-0.074,9.806,0.0,-0.01,-0.01
1777319783.0580873,-115.64,0.23,-0.44,0.042,-0.077,9.808,0.0,-0.01,-0.01
1777319783.068545,-115.64,0.23,-0.44,0.038,-0.081,9.808,-0.01,-0.01,-0.01
1777319783.0780559,-115.64,0.23,-0.44,0.04,-0.08,9.808,0.0,0.0,-0.01
1777319783.088085,-115.64,0.23,-0.44,0.041,-0.075,9.808,0.0,0.0,-0.01
1777319783.0980434,-115.64,0.23,-0.44,0.041,-0.071,9.809,0.0,0.0,0.0
1777319783.108068,-115.64,0.23,-0.44,0.036,-0.075,9.809,-0.01,-0.01,-0.01
1777319783.1180444,-115.64,0.23,-0.44,0.037,-0.077,9.809,0.0,-0.01,-0.01
1777319783.1282191,-115.64,0.23,-0.44,0.042,-0.083,9.809,0.0,-0.01,-0.01
1777319783.138137,-115.64,0.23,-0.45,0.048,-0.079,9.809,-0.01,0.0,-0.01
1777319783.148041,-115.64,0.23,-0.45,0.048,-0.079,9.809,-0.01,0.0,-0.01
1777319783.158067,-115.64,0.23,-0.45,0.049,-0.072,9.809,0.0,-0.01,-0.01
1777319783.168037,-115.64,0.23,-0.45,0.044,-0.073,9.804,-0.01,-0.01,-0.01
1777319783.1780334,-115.64,0.23,-0.45,0.043,-0.075,9.805,-0.01,0.0,-0.01
1777319783.1880345,-115.64,0.23,-0.45,0.036,-0.077,9.806,0.0,-0.01,-0.01
1777319783.1980324,-115.64,0.23,-0.45,0.037,-0.075,9.808,-0.01,-0.01,0.0
1777319783.2080452,-115.64,0.23,-0.45,0.037,-0.072,9.808,0.0,-0.01,-0.01
1777319783.218029,-115.64,0.23,-0.44,0.032,-0.071,9.808,0.0,-0.01,0.0
1777319783.2280202,-115.64,0.23,-0.44,0.035,-0.069,9.808,0.0,0.0,0.0
1777319783.238055,-115.64,0.23,-0.44,0.034,-0.069,9.809,0.0,-0.01,0.0
1777319783.2480152,-115.64,0.23,-0.44,0.037,-0.071,9.809,0.0,0.0,-0.01
1777319783.258029,-115.64,0.23,-0.44,0.036,-0.072,9.809,-0.01,-0.01,-0.01
1777319783.2680154,-115.64,0.23,-0.44,0.029,-0.072,9.806,0.0,0.0,-0.01
1777319783.278038,-115.64,0.23,-0.44,0.028,-0.072,9.808,-0.01,0.0,-0.01
1777319783.2880356,-115.64,0.23,-0.44,0.032,-0.066,9.808,0.0,-0.01,-0.01
1777319783.2980144,-115.64,0.23,-0.44,0.042,-0.071,9.808,0.0,0.0,-0.01
1777319783.3080692,-115.64,0.23,-0.44,0.043,-0.071,9.809,-0.01,-0.01,-0.01
1777319783.318044,-115.64,0.23,-0.44,0.042,-0.069,9.809,0.0,0.0,0.0
1777319783.3280628,-115.64,0.23,-0.44,0.04,-0.066,9.809,-0.01,-0.01,-0.01
1777319783.3380568,-115.64,0.23,-0.44,0.042,-0.067,9.809,0.0,-0.01,-0.01
1777319783.3480544,-115.64,0.23,-0.44,0.044,-0.066,9.809,0.0,-0.01,-0.01
1777319783.3580418,-115.64,0.23,-0.44,0.043,-0.065,9.809,0.0,0.0,0.0
1777319783.3680365,-115.64,0.23,-0.44,0.046,-0.066,9.809,0.0,-0.01,-0.01
1777319783.3780608,-115.64,0.23,-0.44,0.049,-0.061,9.806,-0.01,-0.01,0.0
1777319783.3880653,-115.64,0.23,-0.44,0.053,-0.065,9.806,0.0,0.0,-0.01
1777319783.3980293,-115.64,0.23,-0.44,0.047,-0.069,9.808,0.0,0.0,-0.01
1777319783.4081397,-115.64,0.23,-0.44,0.043,-0.072,9.808,-0.01,-0.01,-0.01
1777319783.418092,-115.64,0.23,-0.44,0.038,-0.071,9.808,-0.01,0.0,-0.01
1777319783.4282284,-115.64,0.23,-0.44,0.046,-0.075,9.808,-0.01,-0.01,-0.01
1777319783.4380078,-115.64,0.23,-0.44,0.047,-0.077,9.808,-0.01,-0.01,-0.01
1777319783.4480093,-115.64,0.23,-0.44,0.044,-0.077,9.809,0.0,0.0,-0.01
1777319783.4580173,-115.64,0.23,-0.44,0.044,-0.077,9.809,0.0,-0.01,-0.01
1777319783.4680135,-115.64,0.23,-0.44,0.04,-0.079,9.809,-0.01,-0.01,-0.01
1777319783.4780045,-115.64,0.23,-0.44,0.037,-0.079,9.809,0.0,-0.01,-0.01
1777319783.4880426,-115.64,0.23,-0.44,0.036,-0.078,9.809,0.0,0.0,0.0
1777319783.4983826,-115.64,0.23,-0.44,0.035,-0.075,9.809,-0.01,-0.01,-0.01
1777319783.5080304,-115.64,0.23,-0.44,0.03,-0.074,9.808,0.0,0.0,-0.01
1777319783.5180378,-115.64,0.23,-0.44,0.03,-0.069,9.808,-0.01,-0.01,-0.01
1777319783.528024,-115.64,0.23,-0.44,0.032,-0.069,9.808,-0.01,-0.01,-0.01
1777319783.538044,-115.64,0.23,-0.44,0.032,-0.074,9.808,-0.01,0.0,-0.01
1777319783.5480218,-115.64,0.23,-0.44,0.034,-0.079,9.809,0.0,-0.01,-0.01
1777319783.558009,-115.64,0.23,-0.44,0.04,-0.084,9.808,0.0,-0.01,0.0
1777319783.5680447,-115.64,0.23,-0.44,0.041,-0.079,9.806,0.0,-0.01,-0.01
1777319783.5780244,-115.64,0.23,-0.44,0.043,-0.075,9.808,0.0,0.0,-0.01
1777319783.588043,-115.64,0.23,-0.44,0.044,-0.071,9.808,-0.01,0.0,0.0
1777319783.5980241,-115.64,0.23,-0.44,0.043,-0.072,9.808,0.0,0.0,-0.01
1777319783.6083264,-115.64,0.23,-0.44,0.044,-0.077,9.808,-0.01,0.0,0.0
1777319783.618019,-115.64,0.23,-0.44,0.038,-0.073,9.805,0.0,-0.01,0.0
1777319783.6280348,-115.65,0.23,-0.44,0.026,-0.081,9.808,-0.01,-0.01,-0.01
1777319783.638551,-115.65,0.23,-0.44,0.032,-0.079,9.809,0.0,-0.01,0.0
1777319783.6480258,-115.65,0.23,-0.44,0.036,-0.073,9.806,-0.01,0.0,0.0
1777319783.658011,-115.66,0.23,-0.44,0.049,-0.065,9.809,-0.01,-0.01,0.0
1777319783.6680074,-115.66,0.24,-0.44,0.051,-0.059,9.809,-0.01,-0.01,0.0
1777319783.6780245,-115.66,0.23,-0.44,0.057,-0.062,9.809,-0.01,-0.01,0.0
1777319783.6879945,-115.66,0.24,-0.44,0.065,-0.069,9.81,-0.01,-0.01,-0.01
1777319783.6979942,-115.65,0.24,-0.44,0.063,-0.081,9.809,-0.01,0.0,-0.01
1777319783.7080257,-115.65,0.24,-0.44,0.061,-0.092,9.809,-0.01,0.0,-0.01
1777319783.718037,-115.66,0.24,-0.44,0.057,-0.098,9.81,0.0,0.0,-0.01
1777319783.7279706,-115.66,0.23,-0.45,0.05,-0.095,9.81,0.0,0.0,0.0
1777319783.738011,-115.66,0.23,-0.45,0.032,-0.092,9.808,0.0,0.0,0.0
1777319783.748015,-115.66,0.23,-0.45,0.023,-0.079,9.808,0.0,0.0,0.0
1777319783.7579837,-115.66,0.23,-0.45,0.017,-0.063,9.808,0.0,0.0,0.0
1777319783.767981,-115.66,0.23,-0.44,0.017,-0.06,9.809,-0.01,0.0,-0.01
1777319783.777992,-115.66,0.23,-0.44,0.017,-0.062,9.808,0.0,-0.01,-0.01
1777319783.78804,-115.66,0.23,-0.44,0.025,-0.06,9.809,-0.01,-0.01,-0.01
1777319783.7980266,-115.66,0.23,-0.44,0.031,-0.062,9.809,-0.01,-0.01,-0.01
1777319783.8079515,-115.66,0.23,-0.44,0.042,-0.068,9.809,-0.01,-0.01,-0.01
1777319783.8179686,-115.66,0.23,-0.45,0.044,-0.071,9.808,-0.01,-0.01,-0.01
1777319783.827992,-115.66,0.23,-0.45,0.054,-0.073,9.809,-0.01,-0.01,-0.01
1777319783.8380246,-115.66,0.23,-0.45,0.057,-0.079,9.809,-0.01,0.0,-0.01
1777319783.8480213,-115.66,0.23,-0.45,0.05,-0.087,9.809,0.0,0.0,-0.01
1777319783.8580003,-115.66,0.23,-0.45,0.047,-0.089,9.809,0.0,0.0,0.0
1777319783.8679843,-115.66,0.23,-0.45,0.037,-0.086,9.81,0.0,0.0,0.0
1777319783.878019,-115.66,0.23,-0.45,0.031,-0.078,9.809,0.0,0.0,0.0
1777319783.887989,-115.66,0.23,-0.44,0.024,-0.066,9.809,0.0,0.0,0.0
1777319783.897992,-115.66,0.23,-0.44,0.02,-0.056,9.804,0.0,-0.01,-0.01
1777319783.9079938,-115.66,0.23,-0.44,0.02,-0.051,9.804,0.0,-0.01,-0.01
1777319783.9179883,-115.66,0.23,-0.44,0.019,-0.063,9.805,0.0,-0.01,-0.01
1777319783.927191,-115.66,0.23,-0.44,0.022,-0.068,9.806,-0.01,-0.01,-0.01
1777319783.937993,-115.66,0.23,-0.44,0.023,-0.08,9.808,-0.01,-0.01,-0.01
1777319783.9479568,-115.66,0.23,-0.44,0.032,-0.09,9.809,-0.01,-0.01,-0.01
1777319783.9579566,-115.66,0.23,-0.45,0.036,-0.091,9.809,-0.01,0.0,0.0
1777319783.9680378,-115.66,0.23,-0.45,0.038,-0.092,9.809,0.0,-0.01,0.0
1777319783.977961,-115.66,0.23,-0.45,0.034,-0.092,9.809,0.0,-0.01,0.0
1777319783.9871402,-115.66,0.23,-0.45,0.03,-0.089,9.81,0.0,0.0,0.0
1777319783.9979815,-115.66,0.22,-0.45,0.025,-0.081,9.806,0.0,0.0,0.0
1777319784.007286,-115.66,0.22,-0.45,0.023,-0.069,9.804,0.0,0.0,0.0
1777319784.0171397,-115.66,0.22,-0.45,0.026,-0.062,9.804,-0.01,0.0,0.0
1777319784.02714,-115.66,0.22,-0.45,0.022,-0.054,9.802,-0.01,-0.01,0.0
1777319784.0379477,-115.66,0.22,-0.44,0.023,-0.054,9.803,-0.01,-0.01,-0.01
1777319784.0471442,-115.66,0.22,-0.44,0.026,-0.057,9.805,0.0,-0.01,-0.01
1777319784.0579586,-115.66,0.22,-0.44,0.034,-0.067,9.806,-0.01,-0.01,-0.01
1777319784.067958,-115.66,0.22,-0.45,0.043,-0.077,9.808,0.0,-0.01,-0.01
1777319784.0779934,-115.66,0.23,-0.44,0.048,-0.079,9.808,0.0,-0.01,-0.01
1777319784.087962,-115.66,0.23,-0.44,0.048,-0.086,9.809,0.0,-0.01,0.0
1777319784.0971506,-115.66,0.23,-0.44,0.05,-0.086,9.809,0.0,-0.01,0.0
1777319784.1071465,-115.66,0.23,-0.45,0.047,-0.09,9.809,0.0,-0.01,0.0
1777319784.1179698,-115.66,0.23,-0.45,0.046,-0.085,9.809,0.0,0.0,0.0
1777319784.1272407,-115.66,0.23,-0.44,0.042,-0.073,9.81,0.0,0.0,0.0
1777319784.1374397,-115.66,0.23,-0.44,0.037,-0.063,9.806,0.0,0.0,-0.01
1777319784.1471453,-115.66,0.23,-0.44,0.032,-0.063,9.806,0.0,-0.01,0.0
1777319784.1571558,-115.66,0.23,-0.44,0.026,-0.062,9.806,0.0,-0.01,-0.01
1777319784.167143,-115.66,0.23,-0.44,0.031,-0.063,9.805,-0.01,-0.01,0.0
1777319784.1771255,-115.66,0.23,-0.44,0.036,-0.061,9.806,-0.01,-0.01,0.0
1777319784.187155,-115.66,0.23,-0.44,0.046,-0.067,9.806,-0.01,-0.01,-0.01
1777319784.1971352,-115.66,0.23,-0.44,0.053,-0.071,9.809,0.0,-0.01,-0.01
1777319784.207216,-115.66,0.23,-0.44,0.051,-0.084,9.809,-0.01,-0.01,-0.01
1777319784.2171748,-115.66,0.23,-0.44,0.049,-0.092,9.809,0.0,-0.01,-0.01
1777319784.2272303,-115.66,0.23,-0.45,0.054,-0.093,9.81,0.0,0.0,-0.01
1777319784.2373445,-115.66,0.23,-0.45,0.054,-0.089,9.809,-0.01,0.0,0.0
1777319784.2472036,-115.66,0.23,-0.44,0.048,-0.08,9.809,0.0,0.0,0.0
1777319784.2571273,-115.66,0.23,-0.44,0.042,-0.071,9.809,0.0,0.0,0.0
1777319784.2671788,-115.66,0.23,-0.44,0.035,-0.061,9.809,-0.01,0.0,0.0
1777319784.2771044,-115.66,0.23,-0.44,0.035,-0.056,9.809,0.0,0.0,-0.01
1777319784.2870905,-115.66,0.23,-0.44,0.034,-0.057,9.809,0.0,0.0,-0.01
1777319784.2971394,-115.66,0.23,-0.44,0.038,-0.056,9.809,-0.01,-0.01,-0.01
1777319784.307124,-115.66,0.23,-0.44,0.042,-0.059,9.809,-0.01,-0.01,-0.01
1777319784.317125,-115.66,0.23,-0.44,0.044,-0.069,9.81,0.0,-0.01,-0.01
1777319784.3271801,-115.66,0.23,-0.44,0.046,-0.073,9.81,-0.01,-0.01,-0.01
1777319784.337103,-115.66,0.23,-0.44,0.051,-0.08,9.81,-0.01,0.0,-0.01
1777319784.3471274,-115.66,0.23,-0.44,0.053,-0.085,9.81,-0.01,-0.01,-0.01
1777319784.3571322,-115.66,0.23,-0.44,0.051,-0.087,9.81,0.0,0.0,-0.01
1777319784.3672154,-115.66,0.23,-0.44,0.049,-0.083,9.81,0.0,0.0,0.0
1777319784.3774562,-115.66,0.23,-0.44,0.042,-0.08,9.809,0.0,0.0,0.0
1777319784.3871841,-115.66,0.23,-0.44,0.037,-0.073,9.809,-0.01,0.0,0.0
1777319784.3971324,-115.66,0.23,-0.44,0.037,-0.066,9.809,0.0,0.0,0.0
1777319784.4071505,-115.66,0.23,-0.44,0.031,-0.062,9.809,-0.01,-0.01,-0.01
1777319784.417761,-115.66,0.23,-0.44,0.035,-0.065,9.81,0.0,-0.01,-0.01
1777319784.4277346,-115.66,0.23,-0.44,0.036,-0.066,9.81,0.0,-0.01,-0.01
1777319784.4371119,-115.66,0.23,-0.44,0.042,-0.072,9.81,0.0,-0.01,-0.01
1777319784.4471283,-115.66,0.23,-0.44,0.047,-0.08,9.81,0.0,-0.01,-0.01
1777319784.4571276,-115.66,0.23,-0.44,0.047,-0.08,9.81,-0.01,0.0,0.0
1777319784.4671283,-115.66,0.23,-0.44,0.048,-0.08,9.809,-0.01,0.0,-0.01
1777319784.477372,-115.66,0.23,-0.44,0.047,-0.081,9.809,0.0,-0.01,0.0
1777319784.4871938,-115.66,0.23,-0.44,0.044,-0.08,9.809,0.0,0.0,-0.01
1777319784.4970737,-115.66,0.23,-0.44,0.041,-0.075,9.809,0.0,0.0,0.0
1777319784.5071142,-115.66,0.23,-0.44,0.034,-0.075,9.809,0.0,0.0,0.0
1777319784.5171607,-115.66,0.23,-0.44,0.026,-0.068,9.809,0.0,0.0,0.0
1777319784.527324,-115.66,0.23,-0.44,0.022,-0.069,9.809,-0.01,0.0,0.0
1777319784.5370853,-115.66,0.23,-0.44,0.029,-0.072,9.809,0.0,-0.01,-0.01
1777319784.5471241,-115.66,0.23,-0.44,0.029,-0.069,9.809,-0.01,-0.01,-0.01
1777319784.5571024,-115.66,0.23,-0.44,0.031,-0.069,9.809,-0.01,-0.01,-0.01
1777319784.5671067,-115.66,0.23,-0.44,0.031,-0.074,9.809,-0.01,-0.01,-0.01
1777319784.5770993,-115.66,0.23,-0.44,0.03,-0.078,9.809,-0.01,0.0,-0.01
1777319784.5870907,-115.66,0.23,-0.44,0.038,-0.08,9.809,0.0,-0.01,-0.01
1777319784.597066,-115.66,0.23,-0.44,0.042,-0.078,9.809,0.0,0.0,-0.01
1777319784.6071167,-115.66,0.23,-0.44,0.043,-0.081,9.806,0.0,0.0,-0.01
1777319784.6170964,-115.66,0.23,-0.44,0.044,-0.079,9.808,0.0,0.0,0.0
1777319784.6273415,-115.66,0.23,-0.44,0.042,-0.071,9.808,0.0,0.0,0.0
1777319784.6370986,-115.66,0.23,-0.44,0.034,-0.062,9.808,0.0,0.0,-0.01
1777319784.6470952,-115.66,0.23,-0.44,0.032,-0.057,9.809,0.0,-0.01,-0.01
1777319784.6573153,-115.66,0.23,-0.44,0.029,-0.059,9.809,0.0,-0.01,-0.01
1777319784.6671064,-115.66,0.23,-0.44,0.03,-0.062,9.809,-0.01,-0.01,-0.01
1777319784.6771002,-115.66,0.23,-0.44,0.03,-0.069,9.809,-0.01,-0.01,-0.01
1777319784.6870666,-115.66,0.23,-0.44,0.031,-0.074,9.809,0.0,-0.01,-0.01
1777319784.6970508,-115.66,0.23,-0.44,0.036,-0.081,9.809,-0.01,-0.01,-0.01
1777319784.7070847,-115.66,0.23,-0.44,0.04,-0.083,9.809,-0.01,0.0,-0.01
1777319784.7170522,-115.66,0.23,-0.44,0.041,-0.085,9.809,0.0,-0.01,0.0
1777319784.7270539,-115.66,0.23,-0.44,0.047,-0.086,9.809,0.0,0.0,-0.01
1777319784.7370503,-115.66,0.23,-0.44,0.043,-0.083,9.809,-0.01,0.0,-0.01
1777319784.7470548,-115.66,0.23,-0.44,0.044,-0.078,9.808,-0.01,0.0,-0.01
1777319784.7571032,-115.66,0.23,-0.44,0.043,-0.074,9.806,-0.01,0.0,0.0
1777319784.7671437,-115.66,0.23,-0.44,0.042,-0.069,9.806,-0.01,0.0,0.0
1777319784.7770889,-115.66,0.23,-0.44,0.04,-0.072,9.808,0.0,0.0,0.0
1777319784.7870724,-115.66,0.23,-0.44,0.041,-0.073,9.808,0.0,-0.01,-0.01
1777319784.7970898,-115.66,0.23,-0.44,0.043,-0.072,9.808,-0.01,-0.01,-0.01
1777319784.807096,-115.66,0.23,-0.44,0.048,-0.081,9.808,0.0,0.0,-0.01
1777319784.8172846,-115.66,0.23,-0.44,0.047,-0.08,9.809,0.0,0.0,-0.01
1777319784.8270676,-115.66,0.23,-0.44,0.046,-0.084,9.809,0.0,-0.01,-0.01
1777319784.8370562,-115.66,0.23,-0.44,0.048,-0.083,9.809,0.0,0.0,0.0
1777319784.8472016,-115.66,0.23,-0.44,0.049,-0.075,9.809,-0.01,0.0,0.0
1777319784.8570776,-115.66,0.23,-0.44,0.05,-0.072,9.809,0.0,0.0,0.0
1777319784.8670602,-115.66,0.23,-0.44,0.048,-0.072,9.809,0.0,0.0,-0.01
1777319784.8770633,-115.66,0.23,-0.44,0.046,-0.068,9.809,0.0,0.0,-0.01
1777319784.8870997,-115.66,0.23,-0.44,0.036,-0.066,9.809,0.0,-0.01,-0.01
1777319784.8970857,-115.66,0.23,-0.44,0.03,-0.06,9.809,0.0,-0.01,-0.01
1777319784.9070635,-115.66,0.23,-0.44,0.031,-0.057,9.809,-0.01,0.0,-0.01
1777319784.9170718,-115.66,0.23,-0.44,0.035,-0.06,9.809,-0.01,-0.01,-0.01
1777319784.927099,-115.66,0.23,-0.44,0.037,-0.066,9.809,-0.01,0.0,-0.01
1777319784.9370315,-115.66,0.23,-0.44,0.044,-0.068,9.809,-0.01,-0.01,-0.01
1777319784.947077,-115.66,0.23,-0.43,0.049,-0.068,9.809,-0.01,-0.01,-0.01
1777319784.9572861,-115.66,0.23,-0.43,0.049,-0.069,9.809,0.0,0.0,-0.01
1777319784.9670444,-115.66,0.23,-0.43,0.048,-0.071,9.806,0.0,0.0,-0.01
1777319784.9770617,-115.66,0.23,-0.43,0.044,-0.074,9.806,0.0,-0.01,0.0
1777319784.9870763,-115.66,0.23,-0.43,0.043,-0.071,9.806,0.0,0.0,0.0
1777319784.9970775,-115.66,0.23,-0.43,0.037,-0.074,9.808,0.0,0.0,-0.01
1777319785.0070715,-115.66,0.23,-0.43,0.037,-0.074,9.808,-0.01,-0.01,0.0
1777319785.017036,-115.66,0.23,-0.44,0.041,-0.072,9.808,0.0,0.0,0.0
1777319785.0271237,-115.66,0.23,-0.43,0.041,-0.071,9.809,0.0,0.0,0.0
1777319785.0371075,-115.66,0.23,-0.43,0.04,-0.073,9.809,0.0,-0.01,-0.01
1777319785.0470216,-115.66,0.23,-0.43,0.037,-0.075,9.809,0.0,-0.01,-0.01
1777319785.057008,-115.67,0.23,-0.43,0.04,-0.08,9.81,-0.01,-0.01,0.0
1777319785.0671217,-115.67,0.23,-0.43,0.04,-0.078,9.81,0.0,-0.01,-0.01
1777319785.0770853,-115.67,0.23,-0.43,0.046,-0.078,9.81,-0.01,-0.01,0.0
1777319785.0870245,-115.67,0.23,-0.43,0.051,-0.078,9.81,-0.01,0.0,-0.01
1777319785.0970826,-115.67,0.23,-0.43,0.048,-0.075,9.81,0.0,0.0,0.0
1777319785.1071885,-115.67,0.23,-0.43,0.04,-0.081,9.81,0.0,-0.01,-0.01
1777319785.1170757,-115.67,0.23,-0.43,0.035,-0.084,9.81,0.0,0.0,-0.01
1777319785.1270423,-115.67,0.23,-0.43,0.04,-0.081,9.81,0.0,-0.01,0.0
1777319785.1370354,-115.67,0.23,-0.43,0.041,-0.075,9.81,0.0,-0.01,0.0
1777319785.1470435,-115.67,0.23,-0.43,0.041,-0.071,9.81,0.0,-0.01,0.0
1777319785.1570213,-115.67,0.23,-0.43,0.04,-0.069,9.81,-0.01,0.0,-0.01
1777319785.1670127,-115.67,0.23,-0.43,0.04,-0.072,9.81,-0.01,-0.01,-0.01
1777319785.1770456,-115.67,0.23,-0.43,0.044,-0.071,9.81,-0.01,0.0,-0.01
1777319785.187041,-115.67,0.23,-0.43,0.048,-0.077,9.81,-0.01,-0.01,-0.01
1777319785.1970255,-115.67,0.23,-0.44,0.046,-0.084,9.81,-0.01,0.0,-0.01
1777319785.2070687,-115.67,0.23,-0.44,0.043,-0.08,9.81,-0.01,-0.01,-0.01
1777319785.2170424,-115.67,0.23,-0.44,0.047,-0.083,9.81,0.0,-0.01,0.0
1777319785.2270126,-115.67,0.23,-0.44,0.049,-0.083,9.81,0.0,0.0,0.0
1777319785.2369895,-115.67,0.23,-0.44,0.044,-0.078,9.808,0.0,0.0,-0.01
1777319785.2470202,-115.67,0.23,-0.44,0.037,-0.073,9.809,0.0,-0.01,0.0
1777319785.257018,-115.67,0.23,-0.43,0.042,-0.068,9.809,0.0,-0.01,-0.01
1777319785.2671168,-115.67,0.23,-0.43,0.038,-0.074,9.809,0.0,0.0,-0.01
1777319785.2761679,-115.67,0.23,-0.44,0.04,-0.073,9.808,-0.01,0.0,0.0
1777319785.2863026,-115.67,0.23,-0.44,0.038,-0.075,9.809,0.0,-0.01,-0.01
1777319785.2969956,-115.67,0.23,-0.44,0.038,-0.078,9.809,0.0,-0.01,-0.01
1777319785.3069952,-115.67,0.23,-0.44,0.041,-0.081,9.809,0.0,-0.01,-0.01
1777319785.3170094,-115.67,0.23,-0.44,0.042,-0.085,9.809,-0.01,0.0,-0.01
1777319785.3270073,-115.66,0.23,-0.44,0.04,-0.091,9.809,-0.01,-0.01,-0.01
1777319785.3370101,-115.66,0.23,-0.44,0.043,-0.089,9.806,-0.01,-0.01,-0.01
1777319785.3471189,-115.66,0.23,-0.44,0.044,-0.085,9.806,0.0,-0.01,-0.01
1777319785.3570344,-115.66,0.23,-0.44,0.044,-0.086,9.808,0.0,-0.01,-0.01
1777319785.3670409,-115.67,0.23,-0.44,0.043,-0.084,9.809,-0.01,-0.01,-0.01
1777319785.3769934,-115.67,0.23,-0.44,0.043,-0.083,9.809,0.0,0.0,0.0
1777319785.3861215,-115.67,0.23,-0.44,0.037,-0.083,9.809,0.0,0.0,0.0
1777319785.3962824,-115.67,0.23,-0.44,0.031,-0.078,9.81,0.0,0.0,0.0
1777319785.407021,-115.67,0.23,-0.44,0.029,-0.077,9.81,0.0,0.0,-0.01
1777319785.4161046,-115.67,0.23,-0.44,0.029,-0.081,9.81,-0.01,-0.01,-0.01
1777319785.4261756,-115.67,0.23,-0.44,0.034,-0.073,9.809,-0.01,0.0,-0.01
1777319785.4361413,-115.67,0.23,-0.44,0.035,-0.075,9.809,-0.01,0.0,-0.01
1777319785.4461424,-115.67,0.23,-0.44,0.036,-0.072,9.809,0.0,-0.01,-0.01
1777319785.4561365,-115.66,0.23,-0.44,0.034,-0.072,9.809,0.0,-0.01,-0.01
1777319785.4662335,-115.66,0.23,-0.44,0.038,-0.073,9.809,0.0,-0.01,-0.01
1777319785.4763021,-115.66,0.23,-0.44,0.043,-0.077,9.809,0.0,-0.01,-0.01
1777319785.4861414,-115.66,0.23,-0.44,0.043,-0.075,9.809,0.0,0.0,-0.01
1777319785.4961472,-115.66,0.23,-0.44,0.043,-0.075,9.809,0.0,0.0,-0.01
1777319785.5070806,-115.66,0.23,-0.44,0.046,-0.071,9.809,0.0,0.0,0.0
1777319785.5161633,-115.67,0.23,-0.44,0.048,-0.067,9.81,0.0,-0.01,0.0
1777319785.5263255,-115.67,0.23,-0.44,0.051,-0.066,9.81,-0.01,0.0,0.0
1777319785.5361583,-115.67,0.23,-0.44,0.048,-0.063,9.81,0.0,0.0,0.0
1777319785.546157,-115.66,0.23,-0.44,0.044,-0.062,9.809,-0.01,0.0,-0.01
1777319785.5561543,-115.66,0.23,-0.44,0.043,-0.066,9.809,0.0,0.0,-0.01
1777319785.566446,-115.66,0.23,-0.44,0.044,-0.071,9.809,0.0,-0.01,-0.01
1777319785.5761561,-115.67,0.23,-0.44,0.04,-0.074,9.81,0.0,0.0,-0.01
1777319785.586354,-115.67,0.23,-0.44,0.042,-0.077,9.81,0.0,-0.01,0.0
1777319785.5961661,-115.67,0.23,-0.44,0.037,-0.073,9.809,0.0,0.0,0.0
1777319785.6063015,-115.67,0.23,-0.44,0.042,-0.069,9.81,-0.01,-0.01,-0.01
1777319785.616182,-115.67,0.23,-0.44,0.046,-0.061,9.81,0.0,0.0,-0.01
1777319785.6261728,-115.67,0.24,-0.43,0.049,-0.057,9.81,-0.01,-0.01,-0.01
1777319785.6361344,-115.67,0.24,-0.43,0.046,-0.063,9.81,-0.01,-0.01,-0.01
1777319785.6461852,-115.67,0.23,-0.43,0.043,-0.069,9.808,0.0,0.0,-0.01
1777319785.6563332,-115.67,0.23,-0.44,0.042,-0.071,9.809,0.0,0.0,0.0
1777319785.666318,-115.67,0.23,-0.43,0.044,-0.071,9.809,0.0,0.0,0.0
1777319785.6763153,-115.67,0.23,-0.43,0.041,-0.068,9.809,0.0,0.0,-0.01
1777319785.6862278,-115.67,0.23,-0.43,0.031,-0.067,9.806,0.0,0.0,-0.01
1777319785.696144,-115.67,0.23,-0.43,0.026,-0.072,9.806,0.0,0.0,-0.01
1777319785.7081099,-115.67,0.23,-0.43,0.03,-0.071,9.808,0.0,-0.01,-0.01
1777319785.7253823,-115.67,0.23,-0.43,0.037,-0.074,9.808,0.0,0.0,-0.01
1777319785.7270544,-115.67,0.23,-0.43,0.038,-0.075,9.809,-0.01,-0.01,-0.01
1777319785.7362041,-115.67,0.23,-0.43,0.043,-0.079,9.809,-0.01,-0.01,-0.01
1777319785.7462068,-115.67,0.23,-0.43,0.051,-0.081,9.809,0.0,0.0,-0.01
1777319785.7561774,-115.67,0.23,-0.43,0.049,-0.075,9.81,0.0,-0.01,-0.01
1777319785.7663722,-115.67,0.23,-0.43,0.047,-0.075,9.81,0.0,-0.01,-0.01
1777319785.776159,-115.67,0.23,-0.43,0.047,-0.078,9.805,0.0,0.0,0.0
1777319785.7861438,-115.67,0.23,-0.43,0.047,-0.079,9.806,0.0,-0.01,0.0
1777319785.7961447,-115.67,0.23,-0.43,0.043,-0.078,9.808,0.0,0.0,0.0
1777319785.806131,-115.67,0.23,-0.43,0.035,-0.081,9.809,-0.01,0.0,-0.01
1777319785.8161693,-115.67,0.23,-0.43,0.03,-0.081,9.809,0.0,0.0,-0.01
1777319785.8261552,-115.67,0.23,-0.43,0.035,-0.084,9.808,0.0,0.0,-0.01
1777319785.8361428,-115.67,0.23,-0.44,0.031,-0.084,9.806,0.0,0.0,-0.01
1777319785.846164,-115.67,0.23,-0.44,0.035,-0.085,9.806,0.0,-0.01,-0.01
1777319785.856159,-115.67,0.23,-0.44,0.037,-0.079,9.808,-0.01,-0.01,-0.01
1777319785.8661673,-115.67,0.23,-0.44,0.04,-0.077,9.809,-0.01,0.0,-0.01
1777319785.8761199,-115.67,0.23,-0.44,0.042,-0.075,9.809,0.0,-0.01,-0.01
1777319785.8861349,-115.67,0.23,-0.44,0.038,-0.077,9.809,0.0,-0.01,-0.01
1777319785.8962414,-115.67,0.23,-0.44,0.037,-0.081,9.809,0.0,0.0,-0.01
1777319785.9061544,-115.67,0.23,-0.44,0.038,-0.073,9.81,-0.01,0.0,-0.01
1777319785.916079,-115.67,0.23,-0.43,0.037,-0.069,9.81,-0.01,0.0,0.0
1777319785.9260743,-115.67,0.23,-0.43,0.037,-0.072,9.81,0.0,0.0,0.0
1777319785.9361567,-115.67,0.23,-0.43,0.043,-0.066,9.81,0.0,-0.01,0.0
1777319785.9461453,-115.67,0.23,-0.43,0.042,-0.069,9.81,-0.01,0.0,-0.01
1777319785.9561126,-115.67,0.23,-0.43,0.043,-0.075,9.81,0.0,0.0,-0.01
1777319785.9661214,-115.67,0.23,-0.43,0.041,-0.078,9.81,-0.01,-0.01,-0.01
1777319785.9761338,-115.67,0.23,-0.44,0.044,-0.078,9.81,0.0,-0.01,-0.01
1777319785.9861236,-115.67,0.23,-0.44,0.048,-0.078,9.81,0.0,0.0,-0.01
1777319785.9961236,-115.67,0.23,-0.44,0.047,-0.079,9.81,0.0,-0.01,-0.01
1777319786.006119,-115.67,0.23,-0.44,0.051,-0.079,9.81,0.0,-0.01,-0.01
1777319786.01654,-115.67,0.23,-0.44,0.053,-0.084,9.81,0.0,-0.01,-0.01
1777319786.0261347,-115.67,0.24,-0.44,0.048,-0.084,9.808,0.0,0.0,-0.01
1777319786.0361307,-115.67,0.24,-0.44,0.051,-0.09,9.808,0.0,-0.01,0.0
1777319786.0461466,-115.67,0.24,-0.44,0.044,-0.086,9.809,0.0,-0.01,-0.01
1777319786.0561504,-115.67,0.24,-0.44,0.044,-0.084,9.809,0.0,-0.01,-0.01
1777319786.066129,-115.67,0.24,-0.44,0.041,-0.08,9.809,0.0,0.0,-0.01
1777319786.0761764,-115.67,0.24,-0.44,0.044,-0.077,9.81,0.0,0.0,-0.01
1777319786.0861402,-115.67,0.24,-0.44,0.044,-0.074,9.806,0.0,0.0,-0.01
1777319786.0962355,-115.67,0.24,-0.44,0.042,-0.072,9.808,0.0,-0.01,-0.01
1777319786.106124,-115.67,0.24,-0.44,0.036,-0.072,9.808,0.0,-0.01,0.0
1777319786.116109,-115.67,0.24,-0.44,0.035,-0.077,9.809,-0.01,-0.01,-0.01
1777319786.1261055,-115.67,0.23,-0.44,0.035,-0.069,9.806,-0.01,0.0,-0.01
1777319786.1363976,-115.67,0.23,-0.44,0.038,-0.072,9.808,-0.01,0.0,-0.01
1777319786.1461794,-115.67,0.24,-0.44,0.037,-0.079,9.808,0.0,-0.01,-0.01
1777319786.1561244,-115.67,0.24,-0.44,0.034,-0.08,9.809,0.0,-0.01,0.0
1777319786.1661382,-115.67,0.23,-0.44,0.028,-0.08,9.809,0.0,-0.01,0.0
1777319786.1761749,-115.67,0.23,-0.44,0.031,-0.078,9.809,0.0,0.0,0.0
1777319786.1861188,-115.67,0.23,-0.44,0.031,-0.074,9.81,0.0,0.0,-0.01
1777319786.1961098,-115.67,0.23,-0.44,0.031,-0.079,9.805,-0.01,0.0,-0.01
1777319786.20611,-115.67,0.23,-0.44,0.029,-0.077,9.806,0.0,-0.01,0.0
1777319786.2161202,-115.67,0.23,-0.43,0.029,-0.075,9.808,0.0,0.0,-0.01
1777319786.2261102,-115.67,0.23,-0.43,0.034,-0.073,9.808,0.0,-0.01,0.0
1777319786.236133,-115.67,0.23,-0.43,0.036,-0.078,9.806,-0.01,-0.01,-0.01
1777319786.2461174,-115.67,0.23,-0.44,0.036,-0.08,9.808,0.0,0.0,-0.01
1777319786.2562892,-115.67,0.23,-0.44,0.036,-0.084,9.809,-0.01,0.0,-0.01
1777319786.2661138,-115.67,0.23,-0.44,0.036,-0.086,9.809,0.0,0.0,-0.01
1777319786.2761073,-115.67,0.23,-0.44,0.036,-0.084,9.809,0.0,-0.01,-0.01
1777319786.2861202,-115.67,0.23,-0.44,0.03,-0.083,9.809,0.0,-0.01,0.0
1777319786.2960973,-115.67,0.23,-0.44,0.032,-0.073,9.809,-0.01,0.0,0.0
1777319786.3060825,-115.67,0.23,-0.44,0.028,-0.062,9.808,0.0,0.0,-0.01
1777319786.3160923,-115.67,0.23,-0.43,0.029,-0.061,9.803,0.0,0.0,-0.01
1777319786.3260965,-115.67,0.23,-0.44,0.025,-0.063,9.804,0.0,-0.01,-0.01
1777319786.336116,-115.67,0.23,-0.43,0.028,-0.067,9.805,-0.01,-0.01,-0.01
1777319786.3461134,-115.67,0.23,-0.44,0.031,-0.069,9.806,0.0,-0.01,0.0
1777319786.356099,-115.67,0.23,-0.43,0.041,-0.075,9.808,-0.01,-0.01,0.0
1777319786.366101,-115.67,0.23,-0.43,0.032,-0.074,9.808,0.0,0.0,-0.01
1777319786.3760579,-115.67,0.23,-0.44,0.035,-0.077,9.809,-0.01,-0.01,-0.01
1777319786.3860853,-115.67,0.23,-0.44,0.035,-0.08,9.809,0.0,-0.01,-0.01
1777319786.3960686,-115.67,0.23,-0.44,0.036,-0.08,9.809,0.0,-0.01,-0.01
1777319786.4060845,-115.67,0.23,-0.44,0.038,-0.078,9.809,-0.01,0.0,-0.01
1777319786.4160826,-115.67,0.23,-0.44,0.042,-0.078,9.805,-0.01,0.0,-0.01
1777319786.4261012,-115.67,0.23,-0.43,0.046,-0.075,9.804,0.0,-0.01,-0.01
1777319786.4360845,-115.67,0.23,-0.43,0.041,-0.071,9.805,0.0,-0.01,-0.01
1777319786.4461226,-115.67,0.23,-0.43,0.041,-0.068,9.806,0.0,-0.01,-0.01
1777319786.456148,-115.67,0.23,-0.43,0.046,-0.067,9.808,0.0,0.0,-0.01
1777319786.4660993,-115.67,0.23,-0.43,0.049,-0.068,9.809,-0.01,0.0,0.0
1777319786.4760845,-115.67,0.23,-0.43,0.051,-0.065,9.809,-0.01,0.0,0.0
1777319786.4860654,-115.67,0.23,-0.43,0.047,-0.068,9.809,0.0,0.0,-0.01
1777319786.496084,-115.67,0.23,-0.43,0.037,-0.074,9.809,-0.01,0.0,-0.01
1777319786.506082,-115.67,0.23,-0.43,0.035,-0.084,9.809,0.0,-0.01,-0.01
1777319786.515299,-115.67,0.23,-0.44,0.025,-0.083,9.809,0.0,-0.01,-0.01
1777319786.5252457,-115.67,0.23,-0.44,0.031,-0.084,9.81,-0.01,-0.01,-0.01
1777319786.5361736,-115.67,0.23,-0.44,0.037,-0.084,9.81,-0.01,-0.01,-0.01
1777319786.546098,-115.67,0.23,-0.44,0.042,-0.083,9.81,0.0,0.0,-0.01
1777319786.560285,-115.67,0.23,-0.44,0.046,-0.079,9.81,0.0,-0.01,-0.01
1777319786.566089,-115.66,0.23,-0.43,0.046,-0.075,9.805,0.0,-0.01,-0.01
1777319786.5760891,-115.66,0.23,-0.44,0.047,-0.071,9.805,0.0,-0.01,-0.01
1777319786.586078,-115.67,0.23,-0.43,0.04,-0.069,9.808,-0.01,-0.01,-0.01
1777319786.5954628,-115.67,0.23,-0.43,0.037,-0.071,9.808,-0.01,-0.01,0.0
1777319786.6060786,-115.67,0.23,-0.43,0.03,-0.069,9.806,0.0,0.0,0.0
1777319786.6160622,-115.67,0.23,-0.44,0.024,-0.068,9.808,0.0,0.0,-0.01
1777319786.626043,-115.67,0.23,-0.44,0.019,-0.074,9.808,0.0,0.0,-0.01
1777319786.6361725,-115.67,0.23,-0.44,0.017,-0.075,9.809,-0.01,0.0,-0.01
1777319786.646064,-115.67,0.23,-0.44,0.019,-0.078,9.809,-0.01,0.0,-0.01
1777319786.6560416,-115.67,0.23,-0.44,0.024,-0.083,9.809,0.0,0.0,-0.01
1777319786.6660619,-115.67,0.22,-0.44,0.023,-0.077,9.809,-0.01,-0.01,-0.01
1777319786.6762192,-115.67,0.22,-0.44,0.026,-0.079,9.809,0.0,0.0,-0.01
1777319786.6860747,-115.67,0.22,-0.44,0.026,-0.072,9.81,0.0,0.0,-0.01
1777319786.695267,-115.67,0.22,-0.43,0.031,-0.071,9.808,0.0,0.0,-0.01
1777319786.706108,-115.67,0.22,-0.43,0.035,-0.068,9.808,-0.01,0.0,-0.01
1777319786.715226,-115.67,0.22,-0.43,0.036,-0.071,9.809,0.0,0.0,0.0
1777319786.7252235,-115.67,0.22,-0.43,0.035,-0.072,9.809,0.0,0.0,-0.01
1777319786.7356863,-115.67,0.22,-0.43,0.034,-0.077,9.809,0.0,0.0,-0.01
1777319786.7456462,-115.67,0.22,-0.43,0.029,-0.077,9.809,-0.01,0.0,0.0
1777319786.7552266,-115.67,0.22,-0.43,0.025,-0.08,9.809,-0.01,-0.01,-0.01
1777319786.765266,-115.67,0.22,-0.43,0.025,-0.079,9.809,0.0,0.0,-0.01
1777319786.775504,-115.67,0.21,-0.44,0.031,-0.074,9.809,-0.01,0.0,-0.01
1777319786.7852397,-115.66,0.22,-0.43,0.032,-0.075,9.809,-0.01,-0.01,-0.01
1777319786.7952414,-115.66,0.22,-0.43,0.036,-0.067,9.809,0.0,-0.01,-0.01
1777319786.8052113,-115.66,0.22,-0.43,0.029,-0.008,9.809,0.0,-0.01,-0.01
1777319786.8152277,-115.66,0.2,-0.38,-0.043,0.091,9.673,0.0,-0.01,-0.01
1777319786.8252206,-115.65,0.2,-0.29,-0.091,0.034,9.418,0.02,0.0,-0.01
1777319786.835197,-115.62,0.23,-0.16,-0.222,0.115,9.374,0.05,-0.02,-0.02
1777319786.845222,-115.59,0.36,0.05,0.053,0.159,8.924,0.07,-0.04,-0.02
1777319786.855216,-115.54,0.6,0.34,-0.093,0.377,9.137,0.11,-0.08,-0.02
1777319786.865217,-115.4,0.55,0.54,-1.101,-1.401,9.315,0.15,-0.12,-0.04
1777319786.8752248,-115.39,0.58,-0.31,-0.926,-1.562,9.447,0.08,-0.06,-0.1
1777319786.8852136,-115.36,0.3,-0.62,-1.698,-1.54,9.543,-0.3,-0.01,0.02
1777319786.8952131,-115.34,0.15,-1.42,-0.983,-2.692,9.616,-0.21,0.08,-0.03
1777319786.90529,-115.37,-0.3,-2.23,-1.621,-3.066,9.673,-0.33,0.08,0.01
1777319786.9152005,-115.33,-0.64,-3.26,-0.905,-1.289,8.15,-0.39,0.15,0.0
1777319786.9252238,-115.26,-0.48,-3.45,1.429,0.115,5.329,-0.47,0.17,-0.04
1777319786.9352314,-115.26,-0.03,-3.09,0.722,1.214,5.633,-0.18,-0.05,-0.03
1777319786.9451919,-115.28,0.08,-2.37,0.327,1.522,6.055,0.15,-0.15,-0.01
1777319786.9552245,-115.24,0.3,-1.77,0.013,1.667,6.871,0.31,-0.09,0.01
1777319786.9658308,-115.15,0.3,-1.3,0.41,0.387,7.648,0.27,-0.09,-0.03
1777319786.9757957,-115.04,0.51,-1.0,0.395,0.655,8.221,0.22,-0.02,-0.05
1777319786.985212,-114.93,0.67,-0.91,0.479,0.535,8.644,0.14,-0.07,-0.07
1777319786.9952307,-114.85,0.67,-0.82,-0.013,-0.195,8.954,0.04,-0.05,-0.05
1777319787.0052145,-114.85,0.35,-1.45,-0.442,-0.873,9.183,-0.03,0.01,-0.05
1777319787.0152223,-114.82,-0.07,-2.28,0.583,1.207,8.254,-0.31,0.15,-0.01
1777319787.0252047,-114.72,0.23,-2.34,1.783,1.762,7.035,-0.43,0.22,-0.03
1777319787.0352612,-114.71,0.46,-2.21,1.121,2.582,6.123,-0.18,-0.05,-0.05
1777319787.0451663,-114.79,0.39,-1.8,0.667,2.708,6.261,0.01,-0.09,0.01
1777319787.055181,-114.91,0.36,-1.51,0.528,2.096,6.738,0.14,0.06,0.06
1777319787.065819,-115.04,0.11,-1.33,0.151,1.427,7.553,0.09,0.01,0.08
1777319787.0752482,-115.16,0.03,-1.38,0.489,1.526,8.153,0.05,0.11,0.07
1777319787.0852146,-115.19,0.04,-1.3,0.617,1.048,8.592,-0.04,0.05,0.05
1777319787.0952766,-115.19,0.07,-1.45,-0.259,1.159,8.915,-0.02,0.0,0.0
1777319787.1051748,-115.18,-0.08,-1.46,-0.056,1.006,8.739,-0.08,-0.02,0.0
1777319787.115198,-115.11,-0.08,-1.53,0.051,1.075,7.492,-0.05,0.02,-0.02
1777319787.1252007,-115.04,-0.06,-1.58,-0.473,1.0,7.391,-0.08,-0.01,-0.05
1777319787.135187,-114.99,-0.08,-1.7,-0.171,0.825,7.101,-0.05,-0.01,-0.05
1777319787.1452005,-114.92,-0.08,-1.59,-0.316,0.071,7.82,-0.06,-0.02,-0.02
1777319787.1551952,-114.9,-0.11,-1.67,-0.843,-0.131,8.348,0.04,-0.03,-0.05
1777319787.165196,-114.92,-0.15,-1.69,-0.123,-0.259,8.738,-0.02,0.01,-0.02
1777319787.1752152,-114.94,0.02,-1.72,-0.104,-0.424,9.023,0.01,-0.01,0.01
1777319787.1851618,-114.96,0.11,-1.75,-0.352,-0.36,9.233,0.0,-0.08,0.01
1777319787.1951838,-114.98,0.11,-1.74,0.04,-0.091,8.669,-0.02,-0.06,0.01
1777319787.205177,-114.99,0.23,-1.68,0.422,0.147,8.283,-0.01,-0.01,0.01
1777319787.2151904,-114.99,0.35,-1.6,0.376,0.17,8.537,0.01,-0.03,0.0
1777319787.2251947,-115.0,0.37,-1.59,0.328,0.178,8.875,0.02,-0.04,0.0
1777319787.2351837,-115.01,0.3,-1.53,0.401,0.538,9.124,-0.02,-0.01,0.0
1777319787.2451959,-115.05,0.35,-1.36,0.656,0.659,9.306,0.01,0.04,0.01
1777319787.2551441,-115.05,0.39,-1.21,0.401,0.411,9.439,0.05,-0.01,0.02
1777319787.2651446,-115.05,0.33,-1.21,0.346,0.316,9.307,0.05,-0.01,0.0
1777319787.2751472,-115.05,0.29,-1.26,0.42,0.484,9.093,-0.02,0.02,-0.01
1777319787.2851439,-115.07,0.28,-1.26,0.234,0.637,9.228,-0.05,0.02,0.0
1777319787.295164,-115.11,0.21,-1.2,0.12,0.847,9.382,-0.03,0.02,0.02
1777319787.3051448,-115.16,0.15,-1.08,0.014,0.886,9.496,0.0,0.02,0.02
1777319787.3151748,-115.17,0.11,-0.99,-0.108,0.704,9.579,0.03,0.02,0.02
1777319787.325144,-115.11,0.04,-1.01,-0.304,0.344,9.64,0.02,0.01,0.0
1777319787.3351643,-115.0,0.03,-1.06,-0.21,0.42,9.659,-0.02,0.01,-0.05
1777319787.3451774,-114.9,0.02,-1.0,-0.198,0.176,9.606,-0.02,0.0,-0.06
1777319787.3551874,-114.85,0.01,-1.01,-0.158,0.096,9.42,0.02,0.0,-0.06
1777319787.3651524,-114.86,0.05,-1.02,-0.217,0.19,9.393,-0.01,-0.01,-0.03
1777319787.3751771,-114.93,0.06,-0.96,-0.152,0.353,9.505,-0.01,-0.02,0.02
1777319787.385129,-115.02,0.07,-0.88,-0.15,0.42,9.507,0.01,-0.02,0.04
1777319787.3951492,-115.12,0.13,-0.87,-0.083,0.261,9.588,0.02,-0.02,0.05
1777319787.4051666,-115.21,0.16,-0.9,-0.21,0.347,9.647,-0.02,-0.03,0.05
1777319787.4151511,-115.29,0.17,-0.92,-0.024,0.416,9.648,-0.03,-0.03,0.05
1777319787.4251163,-115.34,0.25,-0.92,0.152,0.598,9.566,-0.03,-0.02,0.04
1777319787.435155,-115.32,0.32,-0.85,0.153,0.638,9.63,-0.02,-0.03,0.01
1777319787.4451556,-115.25,0.32,-0.8,0.17,0.525,9.678,0.01,-0.02,-0.02
1777319787.4551542,-115.15,0.31,-0.8,0.295,0.384,9.707,0.01,0.0,-0.05
1777319787.465148,-115.03,0.32,-0.8,0.4,0.381,9.735,-0.02,0.02,-0.06
1777319787.4751213,-114.9,0.33,-0.78,0.368,0.271,9.754,-0.01,0.01,-0.08
1777319787.485158,-114.81,0.31,-0.77,0.263,0.073,9.77,0.0,0.0,-0.07
1777319787.495121,-114.77,0.28,-0.78,0.226,-0.067,9.757,0.01,0.01,-0.05
1777319787.5051177,-114.8,0.25,-0.77,0.224,-0.098,9.58,0.0,0.02,-0.02
1777319787.5151384,-114.87,0.24,-0.76,0.195,-0.073,9.493,0.0,0.02,0.02
1777319787.5251071,-114.98,0.23,-0.73,0.046,0.012,9.576,0.0,0.0,0.04
1777319787.5351593,-115.08,0.19,-0.7,-0.04,0.087,9.638,0.0,0.0,0.05
1777319787.5451512,-115.19,0.16,-0.66,-0.069,0.245,9.683,0.0,0.01,0.06
1777319787.5551565,-115.27,0.15,-0.61,-0.055,0.395,9.672,0.01,0.01,0.05
1777319787.565156,-115.28,0.15,-0.56,-0.129,0.526,9.679,0.0,-0.01,0.03
1777319787.5751388,-115.25,0.15,-0.51,-0.204,0.61,9.713,0.0,-0.02,0.0
1777319787.5851197,-115.18,0.13,-0.47,-0.24,0.668,9.738,-0.01,-0.01,-0.03
1777319787.5951407,-115.08,0.12,-0.44,-0.182,0.655,9.748,-0.01,-0.01,-0.05
1777319787.6051068,-114.98,0.13,-0.4,-0.087,0.556,9.735,0.0,0.0,-0.06
1777319787.6151102,-114.9,0.16,-0.39,-0.047,0.387,9.753,0.0,-0.01,-0.05
1777319787.6251113,-114.86,0.18,-0.41,-0.017,0.202,9.767,0.0,-0.02,-0.04
1777319787.63513,-114.87,0.19,-0.45,0.041,0.143,9.774,-0.02,-0.02,-0.02
1777319787.6451404,-114.91,0.23,-0.47,0.18,0.138,9.735,-0.02,-0.01,0.01
1777319787.6550996,-114.97,0.27,-0.48,0.229,0.147,9.754,-0.02,-0.01,0.02
1777319787.6651034,-115.04,0.29,-0.46,0.229,0.146,9.769,-0.01,-0.02,0.03
1777319787.675112,-115.1,0.29,-0.45,0.231,0.113,9.779,-0.01,-0.01,0.04
1777319787.6850991,-115.15,0.29,-0.45,0.248,0.137,9.788,0.0,0.0,0.03
1777319787.695099,-115.17,0.29,-0.44,0.245,0.145,9.78,-0.01,0.0,0.02
1777319787.7051873,-115.15,0.28,-0.42,0.176,0.159,9.788,0.0,0.0,0.0
1777319787.7151358,-115.12,0.26,-0.4,0.091,0.178,9.794,0.0,0.0,-0.02
1777319787.7251203,-115.08,0.22,-0.37,0.054,0.199,9.776,0.0,0.01,-0.02
1777319787.7351835,-115.04,0.2,-0.33,0.036,0.205,9.723,0.01,0.01,-0.03
1777319787.7451313,-114.99,0.19,-0.29,-0.043,0.184,9.732,0.01,0.0,-0.03
1777319787.7550926,-114.97,0.17,-0.27,-0.116,0.19,9.754,0.01,0.0,-0.02
1777319787.7650833,-114.95,0.15,-0.26,-0.129,0.206,9.76,0.0,0.0,-0.02
1777319787.7750862,-114.96,0.15,-0.25,-0.078,0.272,9.748,-0.01,0.0,-0.01
1777319787.7851105,-114.99,0.17,-0.22,-0.073,0.331,9.763,-0.01,-0.01,0.01
1777319787.7942717,-115.03,0.18,-0.2,-0.054,0.352,9.775,-0.01,-0.02,0.01
1777319787.8042457,-115.06,0.19,-0.18,-0.043,0.364,9.785,-0.01,-0.02,0.02
1777319787.8151076,-115.08,0.2,-0.18,0.024,0.372,9.761,-0.01,-0.01,0.02
1777319787.8250787,-115.1,0.22,-0.19,0.044,0.369,9.773,-0.02,-0.01,0.01
1777319787.8342683,-115.1,0.23,-0.19,0.098,0.34,9.782,-0.02,-0.01,0.0
1777319787.845218,-115.08,0.24,-0.18,0.137,0.315,9.79,-0.02,-0.01,-0.01
1777319787.8551028,-115.07,0.25,-0.16,0.114,0.243,9.796,0.0,-0.01,-0.02
1777319787.864258,-115.04,0.24,-0.15,0.135,0.132,9.798,0.0,0.0,-0.02
1777319787.874413,-114.99,0.24,-0.16,0.117,0.068,9.794,0.0,0.0,-0.02
1777319787.8842762,-114.97,0.25,-0.19,0.103,0.002,9.798,-0.01,0.0,-0.02
1777319787.894402,-114.96,0.24,-0.2,0.053,0.054,9.802,-0.02,-0.01,-0.02
1777319787.9042642,-114.98,0.23,-0.18,0.065,0.079,9.794,-0.01,0.0,-0.01
1777319787.9144156,-115.01,0.21,-0.14,0.166,0.034,9.578,0.01,0.0,0.01
1777319787.924254,-115.04,0.24,-0.11,0.051,0.04,9.354,0.02,0.01,0.02
1777319787.935094,-115.1,0.31,-0.18,0.204,0.424,9.294,0.01,-0.01,0.02
1777319787.945101,-115.16,0.17,0.01,0.123,0.071,9.229,-0.04,-0.02,0.04
1777319787.9542446,-115.24,0.3,-0.11,-0.062,0.581,8.698,0.04,0.03,0.02
1777319787.9642355,-115.28,0.32,-0.12,-0.716,0.295,8.973,-0.05,-0.05,0.04
1777319787.9750948,-115.29,0.3,-0.37,-0.879,0.232,9.068,-0.05,-0.05,0.01
1777319787.9842365,-115.34,0.31,-0.62,-0.569,0.753,9.169,-0.15,-0.04,0.01
1777319787.9942577,-115.39,0.5,-0.64,-0.296,0.916,9.339,-0.15,-0.05,0.02
1777319788.0050871,-115.48,0.6,-0.68,-0.414,0.695,9.464,-0.05,-0.09,0.03
1777319788.0142517,-115.61,0.51,-0.68,-0.431,1.166,9.47,-0.04,-0.04,0.05
1777319788.0242891,-115.69,0.52,-0.52,0.244,0.954,9.359,-0.02,0.03,0.06
1777319788.0342855,-115.75,0.6,-0.56,0.216,0.412,9.325,0.03,0.01,0.04
1777319788.0442202,-115.81,0.6,-0.7,0.19,0.432,9.453,-0.04,-0.03,0.03
1777319788.0542648,-115.83,0.62,-0.71,0.243,0.522,9.548,-0.07,0.0,0.02
1777319788.0644093,-115.82,0.6,-0.66,0.114,0.194,9.574,-0.02,-0.02,0.01
1777319788.0742445,-115.79,0.58,-0.68,0.119,-0.053,9.569,0.02,0.01,-0.02
1777319788.084235,-115.75,0.58,-0.69,0.038,-0.108,9.596,0.0,0.0,-0.02
1777319788.09424,-115.71,0.57,-0.69,-0.028,-0.157,9.645,0.0,-0.01,-0.03
1777319788.104279,-115.68,0.55,-0.67,-0.091,-0.139,9.688,0.01,-0.01,-0.02
1777319788.1142254,-115.7,0.52,-0.64,-0.138,0.061,9.72,0.01,0.0,-0.01
1777319788.1242442,-115.73,0.51,-0.57,-0.135,0.256,9.715,0.01,0.0,0.01
1777319788.1342373,-115.76,0.5,-0.5,-0.151,0.528,9.703,0.01,-0.01,0.02
1777319788.1442332,-115.78,0.49,-0.43,-0.14,0.745,9.731,0.0,-0.01,0.02
1777319788.1542335,-115.78,0.49,-0.36,-0.128,0.901,9.751,0.0,-0.01,0.01
1777319788.1642413,-115.76,0.49,-0.32,-0.096,0.913,9.768,-0.01,-0.01,-0.01
1777319788.1742556,-115.73,0.48,-0.3,-0.067,0.816,9.778,-0.02,-0.01,-0.02
1777319788.1842475,-115.71,0.48,-0.3,-0.037,0.642,9.785,-0.02,-0.01,-0.02
1777319788.1942363,-115.71,0.48,-0.31,-0.032,0.444,9.791,-0.02,-0.01,-0.02
1777319788.2042272,-115.71,0.48,-0.33,-0.007,0.206,9.788,-0.01,-0.01,-0.01
1777319788.214228,-115.73,0.47,-0.35,-0.025,0.096,9.793,-0.01,0.0,0.0
1777319788.2242818,-115.74,0.46,-0.34,-0.028,0.037,9.798,0.0,0.0,0.01
1777319788.2342749,-115.74,0.45,-0.33,-0.075,0.048,9.802,0.0,0.0,0.0
1777319788.2442157,-115.72,0.43,-0.31,-0.104,0.15,9.793,0.0,0.0,-0.01
1777319788.2542558,-115.71,0.42,-0.26,-0.126,0.25,9.791,0.01,0.0,-0.01
1777319788.2642608,-115.71,0.41,-0.22,-0.131,0.372,9.796,0.01,-0.01,-0.01
1777319788.274206,-115.71,0.41,-0.17,-0.114,0.511,9.8,0.0,-0.01,-0.01
1777319788.284279,-115.72,0.41,-0.12,-0.091,0.619,9.803,0.0,-0.01,0.0
1777319788.2942195,-115.73,0.41,-0.09,-0.047,0.671,9.804,0.0,-0.01,0.0
1777319788.3042214,-115.73,0.41,-0.07,-0.022,0.641,9.805,-0.01,-0.01,0.0
1777319788.3142624,-115.72,0.41,-0.04,0.053,0.8,9.784,-0.01,-0.01,-0.01
1777319788.3241947,-115.71,0.42,-0.04,0.02,0.378,9.79,-0.01,0.0,-0.01
1777319788.334185,-115.81,0.4,-0.2,0.327,0.436,9.566,-0.03,-0.01,0.01
1777319788.3449798,-115.98,0.47,-0.42,0.426,1.136,9.629,-0.1,0.01,0.05
1777319788.3542495,-116.22,0.41,-0.49,0.575,1.789,9.606,-0.17,0.01,0.1
1777319788.3641725,-116.47,0.37,-0.53,0.684,2.203,9.538,-0.13,0.03,0.13
1777319788.3741758,-116.69,0.41,-0.47,0.78,2.407,9.569,-0.1,0.04,0.14
1777319788.3841987,-116.89,0.44,-0.48,0.411,2.418,9.578,-0.06,-0.01,0.11
1777319788.3942273,-117.03,0.39,-0.48,-0.156,2.278,9.638,-0.08,-0.02,0.11
1777319788.4041853,-117.07,0.28,-0.46,-0.4,2.824,9.323,-0.06,-0.01,0.06
1777319788.4142606,-116.98,0.28,-0.23,-0.317,1.904,9.291,-0.03,0.02,0.0
1777319788.4242194,-116.91,0.31,-0.22,-0.705,0.988,9.178,0.05,-0.02,-0.06
1777319788.4342372,-116.93,0.32,-0.37,-0.575,0.311,9.345,0.01,-0.05,-0.03
1777319788.444179,-117.01,0.31,-0.54,-0.662,0.092,9.469,-0.05,-0.04,0.02
1777319788.454205,-117.1,0.27,-0.61,-0.636,-0.168,9.559,-0.06,-0.02,0.05
