timestamp,yaw,pitch,roll,accel_x,accel_y,accel_z,gyro_x,gyro_y,gyro_z
1777734486.643059,-8.57,0.02,-1.41,0.012,-0.219,9.812,0.0,0.0,0.0
1777734486.6530795,-8.56,0.02,-1.41,0.005,-0.214,9.812,0.0,0.0,-0.01
1777734486.6631434,-8.56,0.02,-1.41,-0.012,-0.225,9.811,-0.01,0.0,-0.01
1777734486.6732879,-8.56,0.02,-1.41,-0.012,-0.238,9.811,-0.01,-0.01,-0.01
1777734486.6830668,-8.56,0.02,-1.41,-0.013,-0.248,9.812,-0.01,-0.01,0.0
1777734486.6931763,-8.56,0.02,-1.42,-0.004,-0.263,9.812,0.0,-0.01,0.0
1777734486.70305,-8.56,0.02,-1.42,-0.002,-0.26,9.811,-0.01,0.0,0.0
1777734486.713017,-8.56,0.03,-1.42,-0.025,-0.267,9.811,-0.01,-0.01,-0.01
1777734486.723022,-8.56,0.01,-1.42,-0.107,-0.268,9.811,0.0,-0.01,-0.01
1777734486.7330015,-8.56,-0.0,-1.42,-0.117,-0.255,9.812,-0.01,0.0,0.0
1777734486.7430427,-8.58,-0.0,-1.42,-0.165,-0.236,9.812,-0.01,-0.01,0.0
1777734486.7530391,-8.58,-0.02,-1.42,-0.159,-0.207,9.812,-0.01,-0.01,0.0
1777734486.7630417,-8.59,-0.01,-1.42,-0.133,-0.183,9.812,-0.01,-0.01,0.0
1777734486.7730255,-8.58,-0.0,-1.42,-0.204,-0.281,9.812,-0.01,-0.01,0.0
1777734486.7830324,-8.58,-0.04,-1.49,-0.254,-0.538,9.812,-0.01,-0.01,-0.01
1777734486.7930422,-8.61,-0.05,-1.59,-0.111,-0.37,9.812,-0.03,0.01,-0.01
1777734486.8030465,-8.67,-0.01,-1.56,-0.156,-0.271,9.812,-0.04,-0.02,0.02
1777734486.81304,-8.73,0.01,-1.52,-0.083,-0.289,9.811,0.02,-0.02,0.03
1777734486.8230457,-8.75,0.06,-1.53,0.013,-0.159,9.812,0.01,-0.02,0.02
1777734486.8330357,-8.71,0.11,-1.53,0.113,0.047,9.812,-0.03,-0.02,0.0
1777734486.8430479,-8.64,0.17,-1.47,0.229,0.061,9.812,-0.02,-0.02,-0.03
1777734486.8530343,-8.59,0.21,-1.45,0.292,-0.205,9.812,0.02,-0.02,-0.04
1777734486.8630466,-8.57,0.23,-1.49,0.319,-0.254,9.812,0.0,-0.02,-0.03
1777734486.872152,-8.59,0.24,-1.49,0.368,-0.292,9.812,-0.01,0.0,-0.01
1777734486.8821511,-8.65,0.23,-1.49,0.321,-0.257,9.812,0.0,0.01,0.02
1777734486.8930528,-8.7,0.2,-1.5,0.243,-0.156,9.812,-0.01,0.01,0.03
1777734486.9030485,-8.74,0.17,-1.47,0.127,-0.029,9.812,-0.01,0.02,0.02
1777734486.912181,-8.75,0.14,-1.43,0.0,-0.05,9.812,0.0,0.02,0.02
1777734486.9221823,-8.73,0.1,-1.45,-0.131,-0.135,9.811,0.01,0.01,-0.01
1777734486.9321685,-8.71,0.06,-1.48,-0.231,-0.189,9.812,-0.02,0.01,-0.02
1777734486.9421766,-8.69,0.05,-1.48,-0.285,-0.279,9.812,-0.02,0.0,-0.02
1777734486.9521787,-8.7,0.04,-1.48,-0.293,-0.408,9.812,0.0,-0.01,-0.01
1777734486.9630618,-8.71,0.05,-1.51,-0.224,-0.422,9.812,0.0,-0.02,0.0
1777734486.9721956,-8.73,0.07,-1.52,-0.111,-0.329,9.811,-0.01,-0.01,0.01
1777734486.9821975,-8.72,0.1,-1.5,-0.023,-0.271,9.811,0.0,-0.02,0.0
1777734486.9921908,-8.71,0.11,-1.48,0.062,-0.19,9.812,0.0,-0.01,-0.01
1777734487.00219,-8.69,0.13,-1.46,0.107,-0.146,9.812,0.0,-0.01,-0.02
1777734487.0122046,-8.68,0.13,-1.45,0.111,-0.119,9.812,0.0,-0.01,-0.02
1777734487.0221934,-8.68,0.13,-1.45,0.095,-0.133,9.812,0.0,0.0,-0.01
1777734487.0321903,-8.69,0.11,-1.45,0.056,-0.125,9.812,-0.01,0.0,0.0
1777734487.0422103,-8.71,0.1,-1.45,0.018,-0.127,9.812,-0.01,0.0,0.01
1777734487.052213,-8.72,0.09,-1.45,-0.038,-0.16,9.811,-0.01,0.0,0.01
1777734487.0622091,-8.73,0.07,-1.45,-0.068,-0.206,9.811,-0.01,0.0,0.0
1777734487.0722227,-8.72,0.06,-1.46,-0.102,-0.24,9.811,-0.01,0.0,0.0
1777734487.0822165,-8.71,0.06,-1.46,-0.119,-0.297,9.812,-0.01,0.0,-0.01
1777734487.0922053,-8.7,0.06,-1.47,-0.128,-0.323,9.812,0.0,-0.01,-0.01
1777734487.1022305,-8.7,0.06,-1.48,-0.102,-0.341,9.812,0.0,-0.01,-0.01
1777734487.1122286,-8.7,0.06,-1.48,-0.072,-0.297,9.812,0.0,-0.01,-0.01
1777734487.1221862,-8.71,0.07,-1.46,-0.022,-0.238,9.812,0.0,-0.01,0.0
1777734487.1322274,-8.71,0.08,-1.45,0.019,-0.184,9.812,0.0,-0.01,0.0
1777734487.1422012,-8.71,0.09,-1.44,0.047,-0.137,9.812,0.0,-0.01,0.0
1777734487.1521926,-8.7,0.09,-1.43,0.053,-0.125,9.812,-0.01,0.0,-0.01
1777734487.1622336,-8.7,0.08,-1.43,0.046,-0.132,9.812,-0.01,0.0,-0.01
1777734487.172227,-8.7,0.07,-1.43,0.017,-0.189,9.812,-0.01,0.0,-0.01
1777734487.1821942,-8.7,0.07,-1.44,-0.007,-0.21,9.812,-0.01,0.0,0.0
1777734487.1922374,-8.71,0.06,-1.44,-0.043,-0.25,9.812,-0.01,0.0,0.0
1777734487.2023273,-8.71,0.05,-1.45,-0.06,-0.261,9.811,-0.01,0.0,0.0
1777734487.2122006,-8.71,0.04,-1.45,-0.073,-0.272,9.811,-0.01,0.0,0.0
1777734487.2222009,-8.71,0.04,-1.45,-0.081,-0.274,9.812,-0.01,-0.01,-0.01
1777734487.2323086,-8.7,0.04,-1.45,-0.079,-0.268,9.812,0.0,-0.01,-0.01
1777734487.2421932,-8.7,0.04,-1.45,-0.047,-0.271,9.812,0.0,-0.01,-0.01
1777734487.2522097,-8.7,0.05,-1.44,-0.031,-0.243,9.812,0.0,-0.01,0.0
1777734487.2622087,-8.71,0.05,-1.44,0.008,-0.212,9.811,0.0,-0.01,0.0
1777734487.2721996,-8.71,0.06,-1.43,0.025,-0.171,9.811,-0.01,-0.01,0.0
1777734487.2822285,-8.71,0.06,-1.42,0.03,-0.153,9.811,0.0,0.0,0.0
1777734487.2923353,-8.7,0.05,-1.42,0.02,-0.162,9.812,-0.01,0.0,-0.01
1777734487.302192,-8.7,0.05,-1.42,0.0,-0.186,9.812,-0.01,0.0,-0.01
1777734487.312238,-8.7,0.05,-1.43,-0.017,-0.242,9.812,-0.01,0.0,-0.01
1777734487.3224695,-8.7,0.04,-1.43,-0.03,-0.262,9.812,-0.01,0.0,0.0
1777734487.332232,-8.71,0.04,-1.43,-0.044,-0.274,9.811,0.0,0.0,0.0
1777734487.34231,-8.71,0.03,-1.44,-0.047,-0.26,9.811,-0.01,-0.01,0.0
1777734487.352298,-8.71,0.03,-1.43,-0.05,-0.245,9.811,0.0,-0.01,0.0
1777734487.3622904,-8.71,0.03,-1.43,-0.047,-0.234,9.811,-0.01,-0.01,-0.01
1777734487.3722603,-8.7,0.03,-1.43,-0.042,-0.232,9.812,0.0,-0.01,-0.01
1777734487.3822246,-8.7,0.03,-1.43,-0.024,-0.238,9.812,-0.01,-0.01,-0.01
1777734487.3922153,-8.71,0.04,-1.43,-0.002,-0.231,9.811,0.0,-0.01,0.0
1777734487.40222,-8.71,0.04,-1.42,0.018,-0.23,9.811,-0.01,-0.01,0.0
1777734487.4122186,-8.72,0.04,-1.42,0.026,-0.201,9.811,0.0,0.0,0.0
1777734487.422213,-8.72,0.04,-1.41,0.025,-0.18,9.811,-0.01,0.0,0.0
1777734487.4322267,-8.71,0.03,-1.41,-0.005,-0.188,9.811,0.0,0.0,-0.01
1777734487.4422395,-8.71,0.03,-1.41,-0.034,-0.195,9.811,-0.01,0.0,-0.01
1777734487.4522269,-8.7,0.02,-1.41,-0.061,-0.219,9.812,-0.01,0.0,-0.01
1777734487.462228,-8.7,0.02,-1.42,-0.078,-0.251,9.812,-0.01,-0.01,-0.01
1777734487.4722435,-8.71,0.02,-1.43,-0.057,-0.28,9.811,-0.01,-0.01,0.0
1777734487.4822457,-8.71,0.02,-1.43,-0.038,-0.278,9.811,-0.01,-0.01,0.0
1777734487.4922168,-8.72,0.02,-1.43,-0.005,-0.271,9.811,0.0,-0.01,0.0
1777734487.5022502,-8.71,0.02,-1.43,0.0,-0.242,9.811,-0.01,-0.01,0.0
1777734487.5122526,-8.71,0.03,-1.42,0.007,-0.22,9.811,0.0,-0.01,-0.01
1777734487.5222144,-8.7,0.03,-1.42,0.0,-0.2,9.812,-0.01,0.0,-0.01
1777734487.5322564,-8.7,0.03,-1.41,-0.011,-0.199,9.812,0.0,0.0,-0.01
1777734487.5422423,-8.71,0.02,-1.41,-0.019,-0.19,9.811,-0.01,0.0,0.0
1777734487.5522125,-8.71,0.02,-1.41,-0.029,-0.184,9.811,-0.01,0.0,0.0
1777734487.5622637,-8.71,0.02,-1.41,-0.02,-0.193,9.811,-0.01,-0.01,0.0
1777734487.5722337,-8.71,0.01,-1.41,-0.011,-0.212,9.811,-0.01,0.0,0.0
1777734487.5822177,-8.71,0.02,-1.41,-0.005,-0.23,9.811,-0.01,0.0,-0.01
1777734487.5922198,-8.71,0.01,-1.42,-0.002,-0.267,9.811,0.0,-0.01,-0.01
1777734487.602269,-8.71,0.01,-1.42,-0.011,-0.272,9.811,-0.01,0.0,-0.01
1777734487.6127715,-8.71,0.01,-1.42,-0.018,-0.259,9.811,0.0,0.0,0.0
1777734487.6226065,-8.71,0.01,-1.42,-0.024,-0.214,9.811,0.0,0.0,0.0
1777734487.6325572,-8.71,0.01,-1.41,-0.036,-0.208,9.811,0.0,-0.01,0.0
1777734487.6422482,-8.71,0.0,-1.41,-0.034,-0.199,9.811,-0.01,-0.01,-0.01
1777734487.6522503,-8.71,0.01,-1.4,-0.02,-0.205,9.811,-0.01,-0.01,-0.01
1777734487.662252,-8.71,0.01,-1.41,-0.002,-0.22,9.811,-0.01,-0.01,-0.01
1777734487.6722314,-8.71,0.01,-1.41,0.019,-0.243,9.811,-0.01,-0.01,0.0
1777734487.682211,-8.71,0.01,-1.41,0.01,-0.244,9.811,-0.01,0.0,0.0
1777734487.6922255,-8.72,0.01,-1.41,0.018,-0.253,9.811,0.0,0.0,0.0
1777734487.7022557,-8.72,0.0,-1.41,-0.001,-0.235,9.811,0.0,0.0,0.0
1777734487.712358,-8.72,0.01,-1.4,0.018,-0.225,9.811,0.0,0.0,0.0
1777734487.7227948,-8.71,0.01,-1.4,0.055,-0.235,9.811,0.0,0.0,-0.01
1777734487.7322357,-8.71,0.01,-1.4,0.103,-0.212,9.811,0.0,0.0,-0.01
1777734487.7422392,-8.69,0.01,-1.38,0.143,-0.097,9.812,-0.01,0.0,-0.01
1777734487.7522116,-8.68,0.02,-1.32,0.147,-0.056,9.812,0.01,0.0,-0.01
1777734487.7614138,-8.67,0.01,-1.28,0.147,-0.055,9.811,0.02,0.0,-0.02
1777734487.7713797,-8.67,-0.01,-1.27,0.172,-0.162,9.811,0.01,0.01,-0.01
1777734487.7822406,-8.7,-0.03,-1.29,0.157,-0.257,9.811,0.0,0.02,0.0
1777734487.7922378,-8.74,-0.07,-1.31,0.104,-0.311,9.811,-0.01,0.02,0.01
1777734487.8022456,-8.78,-0.1,-1.34,0.071,-0.337,9.812,-0.01,0.02,0.02
1777734487.8122394,-8.81,-0.13,-1.34,-0.02,-0.338,9.811,-0.01,0.02,0.02
1777734487.8222313,-8.83,-0.17,-1.34,-0.092,-0.401,9.811,0.0,0.01,0.01
1777734487.8314178,-8.83,-0.2,-1.35,-0.15,-0.43,9.811,0.0,0.01,0.01
1777734487.8414125,-8.83,-0.22,-1.35,-0.204,-0.465,9.811,0.0,0.0,0.0
1777734487.8522556,-8.83,-0.22,-1.36,-0.22,-0.429,9.811,0.0,0.0,-0.01
1777734487.8614337,-8.83,-0.22,-1.34,-0.202,-0.347,9.811,0.0,-0.01,-0.01
1777734487.8713965,-8.83,-0.21,-1.32,-0.14,-0.277,9.811,0.0,-0.01,0.0
1777734487.8814204,-8.82,-0.19,-1.31,-0.057,-0.201,9.811,0.0,-0.02,-0.01
1777734487.891403,-8.82,-0.16,-1.3,0.037,-0.138,9.811,0.0,-0.02,-0.01
1777734487.9014235,-8.81,-0.14,-1.29,0.129,-0.099,9.811,-0.01,-0.01,-0.01
1777734487.911408,-8.79,-0.13,-1.29,0.178,-0.097,9.811,-0.01,-0.01,-0.01
1777734487.9214265,-8.79,-0.11,-1.3,0.2,-0.151,9.811,-0.01,0.0,-0.01
1777734487.931409,-8.79,-0.11,-1.3,0.169,-0.228,9.811,-0.01,0.0,-0.01
1777734487.9414148,-8.8,-0.13,-1.32,0.114,-0.299,9.811,-0.01,0.0,0.0
1777734487.9514053,-8.81,-0.14,-1.34,0.051,-0.337,9.811,-0.01,0.0,0.0
1777734487.9614294,-8.83,-0.15,-1.35,-0.012,-0.352,9.811,-0.01,0.0,0.0
1777734487.9714437,-8.83,-0.16,-1.35,-0.065,-0.357,9.811,0.0,0.0,0.0
1777734487.9813886,-8.83,-0.16,-1.36,-0.09,-0.334,9.811,0.0,-0.01,0.0
1777734487.9913769,-8.81,-0.16,-1.35,-0.074,-0.31,9.811,0.0,-0.01,-0.01
1777734488.0013928,-8.81,-0.15,-1.34,-0.041,-0.257,9.811,0.0,-0.01,-0.01
1777734488.0114098,-8.8,-0.13,-1.34,0.016,-0.222,9.811,0.0,-0.01,-0.01
1777734488.0214026,-8.8,-0.12,-1.33,0.062,-0.192,9.811,0.0,-0.01,-0.01
1777734488.0314145,-8.8,-0.1,-1.33,0.115,-0.181,9.811,-0.01,-0.01,-0.01
1777734488.0413845,-8.8,-0.09,-1.33,0.146,-0.184,9.811,-0.01,-0.01,0.0
1777734488.0514386,-8.8,-0.09,-1.33,0.145,-0.211,9.811,-0.01,0.0,0.0
1777734488.0614235,-8.8,-0.09,-1.34,0.119,-0.242,9.811,-0.01,0.0,0.0
1777734488.0713968,-8.81,-0.1,-1.35,0.074,-0.28,9.811,-0.01,0.0,0.0
1777734488.081411,-8.81,-0.1,-1.35,0.02,-0.308,9.811,-0.01,0.0,0.0
1777734488.0914135,-8.81,-0.12,-1.36,-0.028,-0.308,9.811,-0.01,0.0,0.0
1777734488.1014726,-8.81,-0.12,-1.36,-0.046,-0.301,9.811,0.0,0.0,0.0
1777734488.1114,-8.81,-0.12,-1.35,-0.057,-0.29,9.811,0.0,-0.01,-0.01
1777734488.1214137,-8.81,-0.11,-1.35,-0.038,-0.261,9.811,0.0,-0.01,-0.01
1777734488.131404,-8.81,-0.1,-1.35,0.005,-0.24,9.811,-0.01,-0.01,-0.01
1777734488.1414194,-8.8,-0.09,-1.35,0.051,-0.217,9.811,0.0,-0.01,-0.01
1777734488.1514263,-8.8,-0.08,-1.35,0.091,-0.204,9.811,-0.01,-0.01,-0.01
1777734488.1614254,-8.8,-0.07,-1.35,0.114,-0.217,9.811,-0.01,-0.01,-0.01
1777734488.1714768,-8.8,-0.07,-1.35,0.115,-0.23,9.811,-0.01,0.0,0.0
1777734488.181383,-8.8,-0.07,-1.36,0.095,-0.255,9.811,-0.01,0.0,0.0
1777734488.1914344,-8.81,-0.07,-1.36,0.056,-0.271,9.811,-0.01,0.0,0.0
1777734488.201483,-8.81,-0.08,-1.36,0.022,-0.289,9.811,-0.01,0.0,0.0
1777734488.2113905,-8.81,-0.08,-1.37,-0.008,-0.302,9.811,0.0,0.0,0.0
1777734488.2214181,-8.81,-0.08,-1.37,-0.03,-0.287,9.811,0.0,0.0,0.0
1777734488.2313917,-8.81,-0.08,-1.37,-0.032,-0.274,9.811,0.0,-0.01,0.0
1777734488.2413874,-8.81,-0.08,-1.36,-0.019,-0.245,9.811,0.0,-0.01,-0.01
1777734488.2515578,-8.81,-0.07,-1.36,0.006,-0.225,9.811,0.0,-0.01,-0.01
1777734488.2617633,-8.8,-0.06,-1.36,0.038,-0.225,9.811,-0.01,-0.01,-0.01
1777734488.2714598,-8.8,-0.06,-1.36,0.066,-0.222,9.811,-0.01,-0.01,-0.01
1777734488.2817755,-8.8,-0.05,-1.36,0.081,-0.232,9.811,-0.01,-0.01,-0.01
1777734488.2917295,-8.8,-0.05,-1.36,0.081,-0.238,9.811,-0.01,0.0,0.0
1777734488.3017051,-8.8,-0.05,-1.36,0.065,-0.256,9.811,-0.01,0.0,0.0
1777734488.3118124,-8.81,-0.06,-1.37,0.048,-0.273,9.811,-0.01,0.0,0.0
1777734488.3217115,-8.81,-0.06,-1.37,0.02,-0.279,9.811,-0.01,0.0,0.0
1777734488.3314679,-8.81,-0.06,-1.38,-0.007,-0.281,9.811,0.0,0.0,0.0
1777734488.3414164,-8.81,-0.06,-1.38,-0.018,-0.274,9.811,0.0,0.0,0.0
1777734488.3514454,-8.81,-0.06,-1.38,-0.024,-0.266,9.811,0.0,-0.01,0.0
1777734488.3614266,-8.81,-0.06,-1.38,-0.01,-0.255,9.811,0.0,-0.01,-0.01
1777734488.3714254,-8.81,-0.05,-1.37,0.02,-0.237,9.811,-0.01,-0.01,-0.01
1777734488.3814077,-8.81,-0.04,-1.37,0.044,-0.236,9.811,0.0,-0.01,-0.01
1777734488.3914096,-8.8,-0.04,-1.37,0.06,-0.24,9.811,-0.01,-0.01,-0.01
1777734488.4013946,-8.8,-0.04,-1.37,0.061,-0.245,9.811,-0.01,0.0,-0.01
1777734488.4114308,-8.81,-0.04,-1.38,0.065,-0.248,9.811,-0.01,0.0,0.0
1777734488.421431,-8.81,-0.04,-1.38,0.051,-0.251,9.811,-0.01,0.0,0.0
1777734488.4314015,-8.81,-0.04,-1.38,0.024,-0.248,9.811,-0.01,0.0,0.0
1777734488.4414356,-8.81,-0.04,-1.38,0.012,-0.255,9.811,-0.01,0.0,0.0
1777734488.4514072,-8.81,-0.04,-1.38,-0.005,-0.26,9.811,0.0,0.0,0.0
1777734488.4613962,-8.81,-0.04,-1.38,-0.011,-0.254,9.811,-0.01,0.0,-0.01
1777734488.4714093,-8.81,-0.04,-1.39,-0.006,-0.253,9.811,-0.01,-0.01,-0.01
1777734488.481442,-8.81,-0.04,-1.39,0.011,-0.25,9.811,-0.01,-0.01,-0.01
1777734488.4913821,-8.81,-0.03,-1.39,0.026,-0.244,9.811,-0.01,-0.01,-0.01
1777734488.5013795,-8.81,-0.02,-1.39,0.044,-0.243,9.811,-0.01,-0.01,-0.01
1777734488.511384,-8.81,-0.02,-1.39,0.059,-0.236,9.811,-0.01,-0.01,-0.01
1777734488.5213683,-8.81,-0.02,-1.39,0.053,-0.236,9.811,-0.01,0.0,-0.01
1777734488.531403,-8.81,-0.02,-1.39,0.047,-0.248,9.811,-0.01,0.0,0.0
1777734488.5413716,-8.81,-0.02,-1.39,0.031,-0.259,9.811,0.0,0.0,0.0
1777734488.551407,-8.81,-0.02,-1.39,0.016,-0.257,9.811,0.0,0.0,0.0
1777734488.561377,-8.81,-0.02,-1.39,0.007,-0.254,9.811,-0.01,0.0,0.0
1777734488.5714114,-8.81,-0.02,-1.39,0.0,-0.25,9.811,0.0,-0.01,0.0
1777734488.5813766,-8.81,-0.02,-1.39,0.002,-0.254,9.811,0.0,-0.01,0.0
1777734488.5914023,-8.81,-0.02,-1.39,0.012,-0.25,9.811,-0.01,-0.01,-0.01
1777734488.6013842,-8.81,-0.02,-1.39,0.025,-0.248,9.811,0.0,-0.01,-0.01
1777734488.6105769,-8.81,-0.01,-1.39,0.036,-0.238,9.811,0.0,-0.01,0.0
1777734488.6217446,-8.81,-0.01,-1.39,0.043,-0.243,9.811,-0.01,-0.01,0.0
1777734488.6317706,-8.81,-0.0,-1.39,0.048,-0.242,9.811,-0.01,0.0,0.0
1777734488.640589,-8.81,-0.0,-1.39,0.049,-0.247,9.811,-0.01,0.0,0.0
1777734488.6514206,-8.81,-0.0,-1.4,0.046,-0.249,9.811,0.0,0.0,0.0
1777734488.6606123,-8.81,-0.0,-1.4,0.04,-0.254,9.811,-0.01,0.0,0.0
1777734488.6706445,-8.81,-0.0,-1.4,0.018,-0.262,9.811,-0.01,0.0,0.0
1777734488.6819139,-8.81,-0.0,-1.4,0.007,-0.261,9.811,-0.01,0.0,0.0
1777734488.6911821,-8.81,-0.0,-1.4,0.005,-0.251,9.811,0.0,-0.01,0.0
1777734488.700547,-8.81,-0.0,-1.4,0.01,-0.251,9.811,-0.01,-0.01,0.0
1777734488.7105556,-8.81,-0.0,-1.4,0.026,-0.248,9.811,-0.01,-0.01,-0.01
1777734488.7205658,-8.81,0.0,-1.4,0.036,-0.251,9.811,0.0,-0.01,-0.01
1777734488.7317142,-8.81,0.0,-1.4,0.04,-0.253,9.811,-0.01,0.0,-0.01
1777734488.740879,-8.81,0.01,-1.4,0.042,-0.244,9.811,0.0,-0.01,-0.01
1777734488.750852,-8.81,0.01,-1.4,0.043,-0.236,9.811,0.0,-0.01,0.0
1777734488.760853,-8.81,0.01,-1.4,0.042,-0.235,9.811,-0.01,0.0,0.0
1777734488.7708473,-8.81,0.01,-1.4,0.028,-0.242,9.811,0.0,0.0,0.0
1777734488.7808585,-8.81,0.01,-1.4,0.018,-0.245,9.811,-0.01,0.0,0.0
1777734488.790844,-8.81,0.01,-1.4,0.016,-0.255,9.811,0.0,0.0,0.0
1777734488.8008296,-8.81,0.01,-1.4,0.016,-0.254,9.811,-0.01,-0.01,-0.01
1777734488.8108842,-8.81,0.01,-1.4,0.014,-0.253,9.811,-0.01,-0.01,0.0
1777734488.8205738,-8.81,0.01,-1.4,0.014,-0.247,9.811,0.0,-0.01,0.0
1777734488.8305576,-8.81,0.02,-1.4,0.025,-0.24,9.811,-0.01,-0.01,0.0
1777734488.8405702,-8.81,0.02,-1.4,0.034,-0.237,9.811,-0.01,-0.01,0.0
1777734488.85053,-8.81,0.02,-1.4,0.04,-0.241,9.811,-0.01,0.0,0.0
1777734488.8605564,-8.81,0.03,-1.4,0.037,-0.237,9.811,0.0,0.0,-0.01
1777734488.8705337,-8.81,0.02,-1.4,0.028,-0.238,9.811,-0.01,0.0,0.0
1777734488.8805583,-8.81,0.02,-1.4,0.024,-0.243,9.811,-0.01,0.0,0.0
1777734488.8905451,-8.81,0.02,-1.4,0.012,-0.243,9.811,-0.01,0.0,0.0
1777734488.9005296,-8.81,0.02,-1.4,0.01,-0.247,9.811,-0.01,0.0,0.0
1777734488.9105406,-8.81,0.02,-1.4,0.006,-0.249,9.811,-0.01,-0.01,0.0
1777734488.9205441,-8.81,0.02,-1.4,0.007,-0.247,9.811,-0.01,-0.01,-0.01
1777734488.9305449,-8.81,0.02,-1.4,0.004,-0.254,9.811,-0.01,-0.01,-0.01
1777734488.940539,-8.81,0.02,-1.4,0.006,-0.253,9.811,-0.01,-0.01,-0.01
1777734488.9505517,-8.81,0.02,-1.4,0.013,-0.259,9.811,0.0,-0.01,0.0
1777734488.9605548,-8.81,0.02,-1.4,0.023,-0.257,9.811,-0.01,-0.01,0.0
1777734488.9705536,-8.81,0.02,-1.41,0.028,-0.251,9.811,0.0,0.0,0.0
1777734488.9805293,-8.81,0.02,-1.4,0.031,-0.248,9.811,0.0,0.0,0.0
1777734488.9905705,-8.81,0.03,-1.41,0.025,-0.243,9.811,-0.01,0.0,0.0
1777734489.0005472,-8.81,0.02,-1.4,0.018,-0.248,9.811,0.0,0.0,-0.01
1777734489.0105753,-8.81,0.02,-1.4,0.011,-0.251,9.811,-0.01,0.0,0.0
1777734489.0205784,-8.81,0.03,-1.41,0.006,-0.257,9.811,-0.01,-0.01,0.0
1777734489.0305362,-8.82,0.03,-1.41,0.007,-0.254,9.811,0.0,-0.01,0.0
1777734489.0405395,-8.82,0.03,-1.41,0.011,-0.25,9.811,-0.01,-0.01,0.0
1777734489.0505853,-8.82,0.03,-1.41,0.006,-0.254,9.811,0.0,-0.01,0.0
1777734489.060588,-8.81,0.03,-1.41,0.012,-0.249,9.811,-0.01,-0.01,-0.01
1777734489.0705576,-8.81,0.03,-1.41,0.017,-0.25,9.811,0.0,0.0,-0.01
1777734489.080559,-8.81,0.03,-1.41,0.018,-0.247,9.811,-0.01,-0.01,-0.01
1777734489.0905645,-8.82,0.03,-1.41,0.026,-0.247,9.811,-0.01,0.0,0.0
1777734489.1005645,-8.82,0.04,-1.41,0.024,-0.247,9.811,-0.01,0.0,0.0
1777734489.1105685,-8.82,0.03,-1.41,0.019,-0.249,9.811,-0.01,0.0,0.0
1777734489.1206048,-8.81,0.03,-1.41,0.018,-0.251,9.811,-0.01,0.0,-0.01
1777734489.1305737,-8.81,0.03,-1.41,0.019,-0.259,9.811,0.0,0.0,-0.01
1777734489.140721,-8.81,0.04,-1.41,0.014,-0.261,9.811,0.0,-0.01,-0.01
1777734489.150738,-8.82,0.04,-1.41,0.012,-0.26,9.811,0.0,-0.01,0.0
1777734489.1605787,-8.82,0.04,-1.42,0.012,-0.251,9.811,-0.01,-0.01,0.0
1777734489.1705813,-8.82,0.04,-1.42,0.014,-0.247,9.811,-0.01,-0.01,0.0
1777734489.1805692,-8.82,0.04,-1.42,0.023,-0.245,9.811,-0.01,0.0,0.0
1777734489.1906087,-8.82,0.04,-1.42,0.025,-0.244,9.811,-0.01,-0.01,0.0
1777734489.2005897,-8.82,0.04,-1.42,0.022,-0.24,9.811,-0.01,0.0,-0.01
1777734489.210595,-8.81,0.04,-1.42,0.019,-0.235,9.811,-0.01,0.0,-0.01
1777734489.220596,-8.81,0.04,-1.42,0.019,-0.244,9.811,-0.01,-0.01,-0.01
1777734489.230595,-8.81,0.04,-1.42,0.016,-0.254,9.811,0.0,0.0,-0.01
1777734489.240607,-8.81,0.04,-1.42,0.01,-0.262,9.811,-0.01,0.0,-0.01
1777734489.2506018,-8.81,0.04,-1.42,0.006,-0.25,9.811,0.0,-0.01,-0.01
1777734489.260572,-8.82,0.04,-1.42,0.008,-0.247,9.811,0.0,-0.01,0.0
1777734489.2705557,-8.82,0.04,-1.42,0.008,-0.243,9.811,-0.01,-0.01,0.0
1777734489.2809107,-8.82,0.05,-1.41,0.011,-0.24,9.811,-0.01,-0.01,0.0
1777734489.2906082,-8.81,0.05,-1.41,0.018,-0.237,9.811,0.0,-0.01,-0.01
1777734489.3005788,-8.81,0.05,-1.41,0.018,-0.237,9.811,0.0,-0.01,-0.01
1777734489.3105798,-8.81,0.05,-1.41,0.02,-0.234,9.811,-0.01,0.0,-0.01
1777734489.3205497,-8.81,0.04,-1.42,0.012,-0.241,9.811,-0.01,0.0,0.0
1777734489.330583,-8.81,0.04,-1.42,0.008,-0.241,9.811,-0.01,0.0,0.0
1777734489.3405712,-8.81,0.04,-1.42,0.007,-0.248,9.811,-0.01,0.0,0.0
1777734489.3505578,-8.81,0.04,-1.42,0.0,-0.247,9.811,0.0,-0.01,-0.01
1777734489.3605618,-8.81,0.04,-1.42,0.001,-0.242,9.811,-0.01,-0.01,-0.01
1777734489.3707387,-8.81,0.04,-1.42,0.005,-0.242,9.811,-0.01,-0.01,0.0
1777734489.3805854,-8.81,0.04,-1.42,0.011,-0.238,9.811,0.0,0.0,0.0
1777734489.3906176,-8.82,0.04,-1.42,0.017,-0.24,9.811,0.0,-0.01,0.0
1777734489.4006026,-8.82,0.04,-1.42,0.02,-0.237,9.811,-0.01,-0.01,0.0
1777734489.4105656,-8.82,0.05,-1.42,0.026,-0.238,9.811,-0.01,0.0,0.0
1777734489.4205556,-8.81,0.05,-1.42,0.024,-0.238,9.811,-0.01,0.0,-0.01
1777734489.4297655,-8.81,0.05,-1.42,0.022,-0.243,9.811,-0.01,0.0,-0.01
1777734489.4405715,-8.82,0.05,-1.42,0.017,-0.243,9.811,0.0,0.0,0.0
1777734489.4505587,-8.82,0.05,-1.42,0.014,-0.244,9.811,-0.01,0.0,0.0
1777734489.4605956,-8.82,0.05,-1.41,0.008,-0.238,9.811,0.0,0.0,-0.01
1777734489.4705808,-8.82,0.05,-1.41,0.007,-0.234,9.811,-0.01,-0.01,-0.01
1777734489.4805825,-8.82,0.05,-1.41,0.01,-0.234,9.811,-0.01,-0.01,0.0
1777734489.4897404,-8.82,0.05,-1.41,0.014,-0.235,9.811,-0.01,0.0,0.0
1777734489.5006042,-8.82,0.05,-1.41,0.01,-0.235,9.811,-0.01,-0.01,0.0
1777734489.5105858,-8.82,0.05,-1.41,0.008,-0.235,9.811,-0.01,-0.01,0.0
1777734489.5197601,-8.82,0.05,-1.41,0.014,-0.242,9.811,-0.01,0.0,0.0
1777734489.530591,-8.82,0.05,-1.42,0.012,-0.24,9.811,-0.01,0.0,0.0
1777734489.5397708,-8.82,0.05,-1.42,0.01,-0.237,9.811,-0.01,0.0,0.0
1777734489.549757,-8.82,0.05,-1.42,0.016,-0.243,9.811,-0.01,-0.01,0.0
1777734489.5607383,-8.82,0.05,-1.42,0.014,-0.243,9.811,-0.01,0.0,0.0
1777734489.5697584,-8.82,0.05,-1.42,0.013,-0.243,9.811,-0.01,0.0,0.0
1777734489.580738,-8.82,0.05,-1.42,0.014,-0.248,9.811,0.0,-0.01,0.0
1777734489.5897899,-8.82,0.05,-1.42,0.018,-0.244,9.811,-0.01,0.0,-0.01
1777734489.5997422,-8.82,0.05,-1.42,0.017,-0.242,9.811,0.0,-0.01,0.0
1777734489.609764,-8.82,0.05,-1.42,0.019,-0.238,9.811,-0.01,-0.01,0.0
1777734489.6201382,-8.82,0.06,-1.42,0.016,-0.244,9.811,-0.01,-0.01,0.0
1777734489.630363,-8.82,0.05,-1.42,0.019,-0.238,9.811,-0.01,0.0,0.0
1777734489.6397574,-8.82,0.05,-1.42,0.012,-0.244,9.811,-0.01,0.0,0.0
1777734489.6497626,-8.82,0.05,-1.42,0.02,-0.237,9.811,-0.01,-0.01,0.0
1777734489.6599107,-8.82,0.05,-1.42,0.022,-0.245,9.811,-0.01,0.0,0.0
1777734489.670269,-8.82,0.05,-1.42,0.012,-0.249,9.811,-0.01,0.0,-0.01
1777734489.6798732,-8.82,0.05,-1.42,0.01,-0.248,9.811,0.0,0.0,-0.01
1777734489.6901138,-8.82,0.05,-1.42,0.008,-0.244,9.811,0.0,-0.01,-0.01
1777734489.7001173,-8.82,0.05,-1.42,0.012,-0.245,9.811,-0.01,-0.01,0.0
1777734489.7101033,-8.82,0.06,-1.42,0.01,-0.249,9.811,-0.01,-0.01,0.0
1777734489.71981,-8.82,0.06,-1.42,0.013,-0.244,9.811,-0.01,0.0,0.0
1777734489.730092,-8.82,0.06,-1.42,0.017,-0.243,9.811,0.0,0.0,-0.01
1777734489.7400706,-8.82,0.06,-1.42,0.019,-0.241,9.811,-0.01,-0.01,-0.01
1777734489.7500691,-8.82,0.06,-1.42,0.018,-0.248,9.811,-0.01,0.0,0.0
1777734489.760044,-8.82,0.06,-1.42,0.016,-0.243,9.811,0.0,0.0,0.0
1777734489.770037,-8.82,0.06,-1.42,0.017,-0.238,9.811,-0.01,0.0,0.0
1777734489.7800481,-8.82,0.06,-1.42,0.013,-0.234,9.811,0.0,0.0,0.0
1777734489.7900383,-8.82,0.06,-1.42,0.016,-0.231,9.811,-0.01,0.0,-0.01
1777734489.800028,-8.82,0.06,-1.42,0.012,-0.232,9.811,-0.01,0.0,-0.01
1777734489.809741,-8.82,0.06,-1.42,0.014,-0.238,9.811,-0.01,-0.01,-0.01
1777734489.8197453,-8.82,0.06,-1.42,0.02,-0.243,9.811,-0.01,-0.01,-0.01
1777734489.829747,-8.82,0.06,-1.42,0.017,-0.242,9.811,-0.01,-0.01,0.0
1777734489.8397632,-8.82,0.06,-1.42,0.022,-0.248,9.811,-0.01,0.0,0.0
1777734489.8497484,-8.82,0.06,-1.42,0.018,-0.247,9.811,0.0,0.0,0.0
1777734489.859742,-8.82,0.07,-1.42,0.018,-0.247,9.811,0.0,-0.01,-0.01
1777734489.8697755,-8.82,0.07,-1.42,0.017,-0.249,9.811,0.0,-0.01,0.0
1777734489.8797588,-8.82,0.06,-1.42,0.013,-0.245,9.811,-0.01,0.0,0.0
1777734489.8897758,-8.82,0.06,-1.42,0.01,-0.238,9.811,0.0,0.0,0.0
1777734489.8997698,-8.82,0.06,-1.42,0.016,-0.238,9.811,-0.01,0.0,0.0
1777734489.9097295,-8.82,0.06,-1.42,0.018,-0.243,9.811,-0.01,-0.01,0.0
1777734489.9197836,-8.82,0.06,-1.42,0.012,-0.241,9.811,0.0,0.0,-0.01
1777734489.9297628,-8.82,0.06,-1.42,0.011,-0.243,9.811,-0.01,-0.01,0.0
1777734489.9397373,-8.82,0.06,-1.42,0.008,-0.248,9.811,0.0,-0.01,0.0
1777734489.9497721,-8.82,0.06,-1.42,0.008,-0.248,9.811,0.0,0.0,0.0
1777734489.959742,-8.82,0.06,-1.42,0.017,-0.241,9.811,-0.01,-0.01,0.0
1777734489.9697437,-8.82,0.06,-1.41,0.018,-0.237,9.811,-0.01,-0.01,0.0
1777734489.9797618,-8.82,0.07,-1.42,0.017,-0.235,9.811,0.0,0.0,0.0
1777734489.9897556,-8.82,0.07,-1.42,0.02,-0.235,9.811,0.0,0.0,0.0
1777734489.999777,-8.82,0.07,-1.42,0.018,-0.234,9.811,-0.01,0.0,0.0
1777734490.0097609,-8.82,0.06,-1.41,0.016,-0.243,9.811,0.0,0.0,-0.01
1777734490.019779,-8.82,0.07,-1.42,0.013,-0.245,9.811,0.0,0.0,0.0
1777734490.029759,-8.82,0.06,-1.41,0.01,-0.248,9.811,-0.01,-0.01,0.0
1777734490.0397673,-8.82,0.06,-1.41,0.007,-0.247,9.811,0.0,-0.01,0.0
1777734490.0497603,-8.82,0.06,-1.41,0.008,-0.243,9.811,-0.01,0.0,0.0
1777734490.0597692,-8.82,0.06,-1.41,0.008,-0.238,9.811,-0.01,-0.01,0.0
1777734490.0697691,-8.82,0.06,-1.41,0.013,-0.244,9.811,-0.01,-0.01,0.0
1777734490.0797708,-8.82,0.07,-1.42,0.012,-0.251,9.811,0.0,0.0,-0.01
1777734490.0897682,-8.82,0.07,-1.42,0.016,-0.251,9.811,-0.01,-0.01,-0.01
1777734490.0997763,-8.82,0.07,-1.42,0.014,-0.248,9.811,-0.01,-0.01,0.0
1777734490.1097436,-8.82,0.07,-1.42,0.019,-0.243,9.811,-0.01,0.0,0.0
1777734490.1197822,-8.82,0.07,-1.42,0.019,-0.236,9.811,0.0,0.0,0.0
1777734490.1297803,-8.82,0.07,-1.42,0.019,-0.237,9.811,-0.01,-0.01,0.0
1777734490.1397388,-8.82,0.07,-1.42,0.018,-0.238,9.811,0.0,0.0,-0.01
1777734490.1497874,-8.82,0.07,-1.42,0.012,-0.234,9.811,-0.01,0.0,-0.01
1777734490.1597898,-8.82,0.07,-1.42,0.008,-0.242,9.811,-0.01,-0.01,-0.01
1777734490.1697743,-8.82,0.07,-1.42,0.004,-0.248,9.811,-0.01,-0.01,0.0
1777734490.179728,-8.82,0.07,-1.42,0.007,-0.242,9.811,0.0,0.0,0.0
1777734490.1898003,-8.82,0.07,-1.42,0.01,-0.237,9.811,-0.01,-0.01,0.0
1777734490.1997495,-8.82,0.07,-1.42,0.006,-0.232,9.811,0.0,0.0,0.0
1777734490.2097323,-8.81,0.07,-1.42,0.007,-0.234,9.811,0.0,-0.01,-0.01
1777734490.2198024,-8.81,0.07,-1.42,0.016,-0.234,9.811,-0.01,-0.01,-0.01
1777734490.229753,-8.81,0.07,-1.42,0.018,-0.235,9.811,0.0,0.0,0.0
1777734490.2397404,-8.81,0.07,-1.42,0.023,-0.241,9.811,-0.01,0.0,-0.01
1777734490.2497573,-8.82,0.07,-1.42,0.014,-0.25,9.811,0.0,0.0,0.0
1777734490.2597253,-8.82,0.07,-1.42,0.008,-0.253,9.811,-0.01,0.0,0.0
1777734490.269777,-8.82,0.07,-1.42,0.011,-0.261,9.811,-0.01,0.0,0.0
1777734490.279757,-8.82,0.07,-1.42,0.005,-0.255,9.811,0.0,0.0,0.0
1777734490.2889333,-8.82,0.07,-1.42,0.001,-0.249,9.811,-0.01,0.0,-0.01
1777734490.3001227,-8.82,0.07,-1.42,0.002,-0.249,9.811,0.0,-0.01,-0.01
1777734490.310116,-8.82,0.07,-1.42,0.008,-0.251,9.811,-0.01,-0.01,-0.01
1777734490.320082,-8.82,0.07,-1.42,0.005,-0.244,9.811,0.0,0.0,0.0
1777734490.3292706,-8.82,0.07,-1.42,0.012,-0.242,9.811,-0.01,-0.01,0.0
1777734490.3397613,-8.82,0.07,-1.42,0.016,-0.238,9.811,0.0,0.0,0.0
1777734490.3489215,-8.82,0.07,-1.42,0.018,-0.236,9.811,-0.01,0.0,0.0
1777734490.3597817,-8.82,0.07,-1.42,0.013,-0.242,9.811,-0.01,0.0,-0.01
1777734490.3697667,-8.82,0.07,-1.42,0.01,-0.248,9.811,-0.01,0.0,-0.01
1777734490.378958,-8.82,0.07,-1.42,0.002,-0.254,9.811,-0.01,0.0,-0.01
1777734490.3889372,-8.82,0.07,-1.42,0.004,-0.248,9.811,-0.01,0.0,0.0
1777734490.39978,-8.82,0.07,-1.42,0.002,-0.245,9.811,-0.01,-0.01,0.0
1777734490.4089334,-8.82,0.06,-1.42,0.01,-0.244,9.811,-0.01,-0.01,0.0
1777734490.4189615,-8.82,0.07,-1.42,0.006,-0.249,9.811,-0.01,0.0,-0.01
1777734490.4289148,-8.82,0.07,-1.42,0.008,-0.247,9.811,0.0,-0.01,-0.01
1777734490.4389486,-8.82,0.07,-1.42,0.016,-0.243,9.811,0.0,-0.01,0.0
1777734490.4489243,-8.82,0.07,-1.42,0.018,-0.237,9.811,-0.01,-0.01,0.0
1777734490.4589376,-8.82,0.07,-1.42,0.017,-0.237,9.811,-0.01,0.0,0.0
1777734490.468922,-8.82,0.07,-1.42,0.011,-0.242,9.811,0.0,0.0,0.0
1777734490.478966,-8.82,0.07,-1.42,0.013,-0.245,9.811,-0.01,0.0,-0.01
1777734490.4888985,-8.82,0.07,-1.42,0.01,-0.249,9.811,-0.01,0.0,-0.01
1777734490.499115,-8.82,0.07,-1.42,0.004,-0.249,9.811,-0.01,0.0,0.0
1777734490.5090816,-8.82,0.07,-1.42,0.008,-0.247,9.811,-0.01,-0.01,0.0
1777734490.519098,-8.82,0.07,-1.42,0.01,-0.243,9.811,-0.01,-0.01,0.0
1777734490.5290523,-8.82,0.07,-1.42,0.012,-0.232,9.811,0.0,-0.01,0.0
1777734490.538961,-8.82,0.07,-1.42,0.014,-0.24,9.811,0.0,-0.01,-0.01
1777734490.5489426,-8.82,0.07,-1.42,0.013,-0.231,9.811,-0.01,-0.01,-0.01
1777734490.5589461,-8.82,0.07,-1.42,0.02,-0.231,9.811,-0.01,-0.01,0.0
1777734490.5689013,-8.82,0.07,-1.42,0.022,-0.232,9.811,0.0,-0.01,-0.01
1777734490.5789077,-8.82,0.07,-1.42,0.014,-0.23,9.811,-0.01,-0.01,0.0
1777734490.588932,-8.82,0.07,-1.42,0.014,-0.231,9.811,-0.01,0.0,0.0
1777734490.5989418,-8.82,0.07,-1.42,0.01,-0.237,9.811,-0.01,-0.01,0.0
1777734490.6089299,-8.82,0.07,-1.42,0.002,-0.237,9.811,-0.01,-0.01,0.0
1777734490.6190045,-8.82,0.07,-1.42,0.002,-0.24,9.811,0.0,-0.01,0.0
1777734490.628934,-8.82,0.07,-1.42,0.005,-0.243,9.811,-0.01,-0.01,0.0
1777734490.638942,-8.82,0.07,-1.42,0.007,-0.241,9.811,-0.01,-0.01,0.0
1777734490.6489525,-8.82,0.07,-1.42,0.01,-0.244,9.811,-0.01,0.0,0.0
1777734490.6589437,-8.82,0.07,-1.42,0.013,-0.241,9.811,-0.01,-0.01,0.0
1777734490.6690593,-8.82,0.07,-1.42,0.018,-0.242,9.811,-0.01,0.0,-0.01
1777734490.6789365,-8.82,0.07,-1.42,0.023,-0.24,9.811,-0.01,0.0,-0.01
1777734490.6889343,-8.82,0.07,-1.42,0.022,-0.243,9.811,0.0,0.0,0.0
1777734490.6989708,-8.82,0.07,-1.42,0.02,-0.248,9.811,-0.01,0.0,0.0
1777734490.708938,-8.82,0.07,-1.42,0.012,-0.25,9.811,-0.01,0.0,0.0
1777734490.7194254,-8.82,0.07,-1.42,0.005,-0.245,9.811,0.0,0.0,0.0
1777734490.7295759,-8.82,0.07,-1.42,0.005,-0.244,9.811,0.0,-0.01,0.0
1777734490.739503,-8.82,0.07,-1.42,0.001,-0.247,9.811,-0.01,-0.01,-0.01
1777734490.7495549,-8.82,0.07,-1.42,-0.001,-0.243,9.811,-0.01,-0.01,0.0
1777734490.7595232,-8.82,0.07,-1.42,0.0,-0.24,9.811,0.0,0.0,-0.01
1777734490.7689214,-8.82,0.07,-1.42,0.007,-0.242,9.811,-0.01,-0.01,-0.01
1777734490.778954,-8.82,0.07,-1.42,0.01,-0.249,9.811,0.0,0.0,-0.01
1777734490.7889261,-8.82,0.07,-1.42,0.006,-0.25,9.811,-0.01,0.0,0.0
1777734490.7989142,-8.82,0.07,-1.42,0.006,-0.251,9.811,-0.01,-0.01,0.0
1777734490.8089392,-8.82,0.07,-1.42,0.0,-0.24,9.811,-0.01,0.0,0.0
1777734490.8189158,-8.82,0.07,-1.42,-0.005,-0.238,9.811,0.0,0.0,0.0
1777734490.8289332,-8.82,0.06,-1.42,-0.001,-0.241,9.811,0.0,0.0,0.0
1777734490.8389308,-8.82,0.06,-1.42,0.001,-0.247,9.811,-0.01,0.0,-0.01
1777734490.8489106,-8.82,0.06,-1.42,0.007,-0.25,9.811,0.0,0.0,0.0
1777734490.8589509,-8.82,0.06,-1.42,0.012,-0.243,9.811,-0.01,-0.01,0.0
1777734490.868913,-8.82,0.06,-1.42,0.012,-0.234,9.811,0.0,-0.01,0.0
1777734490.8789387,-8.82,0.07,-1.42,0.026,-0.234,9.811,-0.01,0.0,0.0
1777734490.8889396,-8.82,0.07,-1.42,0.022,-0.245,9.811,-0.01,0.0,-0.01
1777734490.8989427,-8.82,0.07,-1.42,0.016,-0.247,9.811,0.0,0.0,-0.01
1777734490.908938,-8.82,0.07,-1.42,0.017,-0.247,9.811,-0.01,-0.01,-0.01
1777734490.9189522,-8.82,0.07,-1.42,0.016,-0.237,9.811,0.0,-0.01,0.0
1777734490.9289389,-8.82,0.07,-1.42,0.011,-0.231,9.811,-0.01,-0.01,0.0
1777734490.9389262,-8.82,0.07,-1.42,0.016,-0.236,9.811,-0.01,-0.01,0.0
1777734490.9489481,-8.82,0.07,-1.42,0.011,-0.235,9.811,-0.01,-0.01,0.0
1777734490.9589653,-8.82,0.07,-1.42,0.01,-0.235,9.811,-0.01,0.0,0.0
1777734490.968917,-8.82,0.07,-1.42,0.005,-0.234,9.811,-0.01,0.0,-0.01
1777734490.978921,-8.82,0.07,-1.42,0.001,-0.231,9.811,-0.01,-0.01,0.0
1777734490.988906,-8.82,0.07,-1.42,0.008,-0.236,9.811,-0.01,-0.01,-0.01
1777734490.9989696,-8.82,0.07,-1.42,0.012,-0.238,9.811,-0.01,-0.01,0.0
1777734491.008918,-8.82,0.07,-1.42,0.014,-0.237,9.811,0.0,0.0,0.0
1777734491.0189924,-8.82,0.07,-1.42,0.019,-0.231,9.811,-0.01,-0.01,0.0
1777734491.0289707,-8.82,0.07,-1.42,0.024,-0.231,9.811,-0.01,-0.01,0.0
1777734491.038942,-8.83,0.07,-1.42,0.02,-0.234,9.811,0.0,0.0,0.0
1777734491.0489748,-8.82,0.07,-1.42,0.018,-0.235,9.811,-0.01,-0.01,0.0
1777734491.0589948,-8.82,0.07,-1.42,0.017,-0.232,9.811,-0.01,-0.01,-0.01
1777734491.0689476,-8.82,0.07,-1.42,0.017,-0.24,9.811,0.0,0.0,-0.01
1777734491.0789444,-8.82,0.07,-1.42,0.008,-0.243,9.811,0.0,-0.01,-0.01
1777734491.0889187,-8.82,0.07,-1.42,0.008,-0.248,9.811,-0.01,-0.01,-0.01
1777734491.0989325,-8.82,0.07,-1.42,0.014,-0.25,9.811,-0.01,-0.01,0.0
1777734491.1089392,-8.82,0.07,-1.42,0.019,-0.245,9.811,0.0,-0.01,0.0
1777734491.1189508,-8.83,0.07,-1.42,0.019,-0.242,9.811,-0.01,-0.01,0.0
1777734491.128925,-8.83,0.07,-1.42,0.016,-0.24,9.811,-0.01,-0.01,0.0
1777734491.13894,-8.82,0.07,-1.42,0.012,-0.24,9.811,-0.01,-0.01,0.0
1777734491.1481173,-8.82,0.07,-1.42,0.019,-0.24,9.811,-0.01,0.0,-0.01
1777734491.1589625,-8.82,0.07,-1.42,0.019,-0.247,9.811,-0.01,0.0,0.0
1777734491.168919,-8.83,0.07,-1.42,0.013,-0.247,9.811,0.0,-0.01,0.0
1777734491.17898,-8.83,0.07,-1.42,0.016,-0.245,9.811,-0.01,0.0,0.0
1777734491.1889849,-8.83,0.07,-1.42,0.012,-0.241,9.811,-0.01,0.0,0.0
1777734491.198124,-8.83,0.07,-1.42,0.017,-0.235,9.811,-0.01,0.0,0.0
1777734491.2089465,-8.83,0.07,-1.42,0.013,-0.242,9.811,0.0,0.0,-0.01
1777734491.2189393,-8.83,0.07,-1.42,0.012,-0.237,9.811,0.0,-0.01,-0.01
1777734491.2281241,-8.83,0.07,-1.42,0.017,-0.24,9.811,-0.01,-0.01,0.0
1777734491.2381155,-8.83,0.07,-1.42,0.024,-0.243,9.811,-0.01,-0.01,0.0
1777734491.2489645,-8.83,0.07,-1.42,0.023,-0.243,9.811,-0.01,0.0,0.0
1777734491.2580767,-8.83,0.07,-1.42,0.02,-0.244,9.811,-0.01,0.0,0.0
1777734491.268074,-8.83,0.07,-1.42,0.016,-0.242,9.811,-0.01,-0.01,0.0
1777734491.2789447,-8.83,0.07,-1.42,0.013,-0.245,9.811,-0.01,0.0,-0.01
1777734491.2880902,-8.83,0.07,-1.42,0.013,-0.255,9.811,-0.01,0.0,-0.01
1777734491.2980964,-8.83,0.07,-1.42,0.008,-0.249,9.811,0.0,-0.01,-0.01
1777734491.3089414,-8.83,0.07,-1.42,0.011,-0.241,9.811,0.0,0.0,0.0
1777734491.3181188,-8.83,0.07,-1.42,0.014,-0.237,9.811,-0.01,-0.01,0.0
1777734491.3281264,-8.83,0.07,-1.42,0.012,-0.235,9.811,0.0,-0.01,0.0
1777734491.3380969,-8.83,0.07,-1.42,0.019,-0.24,9.811,0.0,-0.01,0.0
1777734491.3481143,-8.83,0.07,-1.42,0.012,-0.236,9.811,-0.01,-0.01,0.0
1777734491.3583088,-8.83,0.07,-1.42,0.011,-0.234,9.811,0.0,0.0,-0.01
1777734491.3681316,-8.83,0.07,-1.42,0.013,-0.236,9.811,-0.01,-0.01,0.0
1777734491.378135,-8.83,0.07,-1.42,0.017,-0.243,9.811,-0.01,0.0,0.0
1777734491.388108,-8.83,0.07,-1.42,0.013,-0.247,9.811,-0.01,0.0,0.0
1777734491.3980982,-8.83,0.07,-1.42,0.012,-0.249,9.811,-0.01,0.0,0.0
1777734491.4080756,-8.83,0.07,-1.42,0.011,-0.251,9.811,0.0,0.0,0.0
1777734491.4180942,-8.83,0.07,-1.42,0.011,-0.245,9.811,-0.01,0.0,-0.01
1777734491.428587,-8.83,0.07,-1.42,0.012,-0.247,9.811,0.0,0.0,-0.01
1777734491.4383872,-8.83,0.07,-1.42,0.016,-0.253,9.811,-0.01,-0.01,0.0
1777734491.4480937,-8.83,0.07,-1.42,0.017,-0.249,9.811,-0.01,0.0,0.0
1777734491.4581041,-8.83,0.08,-1.42,0.012,-0.241,9.811,0.0,0.0,0.0
1777734491.4681046,-8.83,0.08,-1.42,0.013,-0.238,9.811,-0.01,-0.01,-0.01
1777734491.4782617,-8.83,0.07,-1.42,0.013,-0.237,9.811,-0.01,-0.01,-0.01
1777734491.4881144,-8.83,0.07,-1.42,0.011,-0.235,9.811,-0.01,0.0,-0.01
1777734491.4980962,-8.83,0.07,-1.42,0.017,-0.237,9.811,-0.01,-0.01,0.0
1777734491.5080886,-8.83,0.07,-1.42,0.013,-0.237,9.811,-0.01,-0.01,0.0
1777734491.5181117,-8.83,0.07,-1.42,0.01,-0.231,9.811,-0.01,0.0,0.0
1777734491.5281134,-8.83,0.07,-1.42,0.006,-0.237,9.811,-0.01,0.0,0.0
1777734491.5381117,-8.83,0.07,-1.42,0.006,-0.24,9.811,-0.01,0.0,0.0
1777734491.5481093,-8.83,0.07,-1.42,0.004,-0.243,9.811,-0.01,0.0,-0.01
1777734491.5580945,-8.83,0.07,-1.42,0.007,-0.243,9.811,0.0,-0.01,-0.01
1777734491.573242,-8.83,0.07,-1.42,0.014,-0.248,9.811,-0.01,-0.01,0.0
1777734491.5924585,-8.83,0.07,-1.42,0.02,-0.245,9.811,-0.01,0.0,0.0
1777734491.5939422,-8.83,0.08,-1.42,0.025,-0.245,9.811,0.0,-0.01,-0.01
1777734491.6004472,-8.83,0.08,-1.42,0.028,-0.237,9.811,0.0,0.0,0.0
1777734491.609737,-8.83,0.08,-1.42,0.023,-0.241,9.811,-0.01,-0.01,-0.01
1777734491.6181612,-8.83,0.08,-1.42,0.01,-0.241,9.811,-0.01,-0.01,0.0
1777734491.6284564,-8.83,0.07,-1.42,0.005,-0.238,9.811,-0.01,0.0,0.0
1777734491.6392689,-8.83,0.07,-1.42,0.005,-0.238,9.811,-0.01,0.0,0.0
1777734491.648978,-8.83,0.07,-1.42,0.006,-0.241,9.811,-0.01,-0.01,0.0
1777734491.658079,-8.83,0.07,-1.42,0.008,-0.238,9.811,-0.01,-0.01,0.0
1777734491.6691198,-8.83,0.07,-1.42,0.006,-0.244,9.811,-0.01,-0.01,-0.01
1777734491.6788125,-8.83,0.07,-1.42,0.007,-0.244,9.811,-0.01,0.0,-0.01
1777734491.6888108,-8.83,0.07,-1.42,0.011,-0.251,9.811,-0.01,0.0,-0.01
1777734491.69817,-8.83,0.07,-1.42,0.008,-0.251,9.811,0.0,-0.01,-0.01
1777734491.7097156,-8.83,0.08,-1.42,0.006,-0.25,9.811,0.0,0.0,0.0
1777734491.7181304,-8.83,0.08,-1.42,0.005,-0.242,9.811,0.0,-0.01,0.0
1777734491.728095,-8.83,0.08,-1.42,0.011,-0.24,9.811,0.0,-0.01,-0.01
1777734491.738555,-8.83,0.07,-1.42,0.01,-0.242,9.811,-0.01,0.0,-0.01
1777734491.7486038,-8.83,0.07,-1.42,0.005,-0.245,9.811,-0.01,0.0,-0.01
1777734491.758092,-8.83,0.07,-1.42,0.005,-0.245,9.811,-0.01,-0.01,0.0
1777734491.768339,-8.83,0.08,-1.43,0.004,-0.247,9.811,-0.01,-0.01,0.0
1777734491.7785347,-8.83,0.07,-1.42,0.008,-0.245,9.811,-0.01,-0.01,0.0
1777734491.7881095,-8.83,0.07,-1.43,0.018,-0.244,9.811,0.0,0.0,0.0
1777734491.798127,-8.83,0.07,-1.42,0.013,-0.243,9.811,-0.01,-0.01,0.0
1777734491.808105,-8.83,0.07,-1.43,0.014,-0.237,9.811,-0.01,0.0,0.0
1777734491.8181129,-8.83,0.07,-1.42,0.001,-0.242,9.811,-0.01,0.0,0.0
1777734491.8281283,-8.83,0.07,-1.42,-0.002,-0.235,9.811,0.0,-0.01,0.0
1777734491.8381348,-8.83,0.07,-1.42,-0.002,-0.236,9.811,-0.01,-0.01,0.0
1777734491.8481407,-8.83,0.07,-1.42,0.005,-0.238,9.811,-0.01,-0.01,0.0
1777734491.8580842,-8.83,0.07,-1.42,0.011,-0.241,9.811,-0.01,0.0,0.0
1777734491.868112,-8.83,0.07,-1.42,0.022,-0.248,9.811,0.0,-0.01,-0.01
1777734491.8785715,-8.83,0.08,-1.42,0.029,-0.248,9.811,-0.01,-0.01,-0.01
1777734491.8881645,-8.83,0.08,-1.42,0.026,-0.241,9.811,0.0,-0.01,-0.01
1777734491.8981197,-8.83,0.08,-1.42,0.028,-0.241,9.811,-0.01,0.0,0.0
1777734491.9081624,-8.83,0.08,-1.42,0.019,-0.241,9.811,-0.01,0.0,0.0
1777734491.9182448,-8.83,0.08,-1.42,0.012,-0.242,9.811,-0.01,0.0,0.0
1777734491.9284134,-8.83,0.08,-1.43,0.005,-0.238,9.812,0.0,-0.01,0.0
1777734491.9382296,-8.83,0.08,-1.42,0.001,-0.236,9.811,-0.01,-0.01,0.0
1777734491.9481635,-8.83,0.08,-1.43,0.004,-0.247,9.811,-0.01,-0.01,-0.01
1777734491.9591398,-8.83,0.08,-1.43,0.016,-0.253,9.811,-0.01,-0.01,-0.01
1777734491.9697473,-8.83,0.08,-1.43,0.016,-0.261,9.811,0.0,-0.01,0.0
1777734491.978129,-8.83,0.08,-1.43,0.017,-0.253,9.812,-0.01,-0.01,0.0
1777734491.9881418,-8.83,0.08,-1.43,0.017,-0.25,9.812,0.0,-0.01,0.0
1777734491.9985235,-8.83,0.08,-1.43,0.023,-0.244,9.812,0.0,-0.01,0.0
1777734492.0081654,-8.83,0.08,-1.42,0.012,-0.242,9.811,-0.01,0.0,0.0
1777734492.0184069,-8.83,0.08,-1.43,0.013,-0.231,9.811,0.0,0.0,-0.01
1777734492.0281603,-8.83,0.08,-1.42,0.02,-0.23,9.811,-0.01,-0.01,-0.01
1777734492.0381742,-8.83,0.08,-1.43,0.014,-0.241,9.811,0.0,-0.01,-0.01
1777734492.0481892,-8.83,0.08,-1.43,0.017,-0.24,9.811,-0.01,0.0,0.0
1777734492.0581524,-8.83,0.08,-1.43,0.01,-0.242,9.812,-0.01,-0.01,0.0
1777734492.0681534,-8.83,0.08,-1.43,0.01,-0.245,9.812,-0.01,-0.01,0.0
1777734492.0773156,-8.83,0.08,-1.43,0.01,-0.251,9.812,0.0,0.0,-0.01
1777734492.0881996,-8.83,0.08,-1.43,0.008,-0.247,9.811,-0.01,-0.01,-0.01
1777734492.0981796,-8.83,0.08,-1.43,0.005,-0.245,9.811,0.0,-0.01,-0.01
1777734492.1088476,-8.83,0.08,-1.43,0.007,-0.24,9.811,0.0,-0.01,-0.01
1777734492.1172757,-8.83,0.08,-1.43,0.007,-0.234,9.811,-0.01,-0.01,0.0
1777734492.1282003,-8.83,0.08,-1.43,0.013,-0.232,9.812,-0.01,0.0,0.0
1777734492.1373081,-8.83,0.08,-1.42,0.013,-0.232,9.811,-0.01,0.0,0.0
1777734492.1472921,-8.83,0.08,-1.42,0.008,-0.232,9.811,-0.01,0.0,-0.01
1777734492.158194,-8.83,0.08,-1.43,0.012,-0.238,9.811,-0.01,0.0,-0.01
1777734492.1672847,-8.83,0.08,-1.43,0.012,-0.244,9.811,-0.01,0.0,-0.01
1777734492.17866,-8.83,0.08,-1.43,0.013,-0.247,9.811,-0.01,0.0,0.0
1777734492.1873004,-8.83,0.08,-1.43,0.008,-0.245,9.811,-0.01,0.0,0.0
1777734492.1987865,-8.83,0.08,-1.43,0.005,-0.241,9.811,-0.01,0.0,0.0
1777734492.20846,-8.83,0.08,-1.43,0.007,-0.236,9.812,-0.01,-0.01,0.0
1777734492.2174237,-8.83,0.08,-1.43,0.005,-0.23,9.811,-0.01,-0.01,0.0
1777734492.2272685,-8.83,0.08,-1.43,0.007,-0.237,9.811,0.0,-0.01,-0.01
1777734492.2392704,-8.83,0.08,-1.43,0.004,-0.238,9.811,-0.01,-0.01,-0.01
1777734492.2472825,-8.83,0.08,-1.43,0.0,-0.242,9.811,-0.01,0.0,-0.01
1777734492.2572844,-8.83,0.07,-1.43,0.006,-0.247,9.811,-0.01,-0.01,-0.01
1777734492.267304,-8.83,0.08,-1.43,0.006,-0.25,9.811,0.0,0.0,0.0
1777734492.2772555,-8.83,0.07,-1.43,0.006,-0.244,9.811,-0.01,0.0,0.0
1777734492.2881308,-8.83,0.07,-1.43,0.01,-0.238,9.812,0.0,0.0,0.0
1777734492.2979462,-8.83,0.07,-1.43,0.005,-0.228,9.811,0.0,0.0,0.0
1777734492.309454,-8.83,0.07,-1.43,0.005,-0.236,9.811,0.0,-0.01,-0.01
1777734492.3176508,-8.83,0.07,-1.43,0.008,-0.236,9.811,-0.01,0.0,0.0
1777734492.327252,-8.83,0.07,-1.43,0.004,-0.237,9.811,-0.01,0.0,-0.01
1777734492.337266,-8.83,0.07,-1.43,0.002,-0.237,9.811,-0.01,-0.01,0.0
1777734492.3483365,-8.83,0.07,-1.43,0.008,-0.234,9.812,0.0,-0.01,0.0
1777734492.357261,-8.83,0.07,-1.42,0.011,-0.234,9.812,-0.01,-0.01,0.0
1777734492.3677156,-8.83,0.07,-1.42,0.011,-0.241,9.811,-0.01,0.0,-0.01
1777734492.3772762,-8.83,0.07,-1.42,0.013,-0.241,9.811,0.0,-0.01,-0.01
1777734492.3872693,-8.83,0.07,-1.42,0.006,-0.238,9.811,-0.01,0.0,-0.01
1777734492.3973227,-8.83,0.07,-1.42,-0.001,-0.238,9.811,-0.01,-0.01,0.0
1777734492.4076355,-8.83,0.07,-1.42,0.0,-0.237,9.812,-0.01,-0.01,0.0
1777734492.417277,-8.84,0.07,-1.42,0.0,-0.236,9.812,-0.01,0.0,0.0
1777734492.4272711,-8.83,0.07,-1.42,-0.001,-0.235,9.812,-0.01,0.0,0.0
1777734492.4372756,-8.83,0.07,-1.42,-0.001,-0.241,9.812,-0.01,0.0,-0.01
1777734492.4472876,-8.83,0.07,-1.42,-0.001,-0.243,9.811,-0.01,-0.01,-0.01
1777734492.4572828,-8.83,0.07,-1.42,0.002,-0.247,9.811,0.0,-0.01,-0.01
1777734492.4673018,-8.83,0.07,-1.42,0.002,-0.243,9.812,0.0,-0.01,0.0
1777734492.477322,-8.83,0.07,-1.42,0.004,-0.245,9.812,-0.01,-0.01,0.0
1777734492.487265,-8.84,0.07,-1.42,0.006,-0.241,9.812,0.0,-0.01,0.0
1777734492.497314,-8.83,0.07,-1.42,0.007,-0.235,9.812,-0.01,0.0,0.0
1777734492.5073125,-8.83,0.07,-1.42,0.007,-0.234,9.812,-0.01,0.0,-0.01
1777734492.5172858,-8.83,0.07,-1.42,0.007,-0.229,9.812,-0.01,0.0,0.0
1777734492.5273008,-8.83,0.07,-1.42,0.013,-0.232,9.812,-0.01,-0.01,0.0
1777734492.5373101,-8.84,0.07,-1.42,0.013,-0.234,9.812,-0.01,0.0,0.0
1777734492.554373,-8.84,0.07,-1.42,0.017,-0.232,9.812,-0.01,-0.01,0.0
1777734492.5646455,-8.84,0.07,-1.42,0.019,-0.232,9.812,-0.01,-0.01,0.0
1777734492.5832376,-8.84,0.07,-1.42,0.024,-0.236,9.812,0.0,-0.01,0.0
1777734492.584535,-8.84,0.07,-1.42,0.022,-0.241,9.812,-0.01,0.0,0.0
1777734492.58725,-8.84,0.07,-1.42,0.016,-0.242,9.812,-0.01,-0.01,0.0
1777734492.5972645,-8.84,0.07,-1.42,0.024,-0.251,9.812,-0.01,-0.01,0.0
1777734492.6072805,-8.84,0.07,-1.42,0.023,-0.24,9.812,-0.01,-0.01,0.0
1777734492.6172993,-8.84,0.07,-1.42,0.024,-0.245,9.812,0.0,0.0,0.0
1777734492.6273613,-8.84,0.07,-1.42,0.014,-0.236,9.812,-0.01,0.0,0.0
1777734492.6373272,-8.84,0.07,-1.42,0.016,-0.232,9.812,-0.01,0.0,0.0
1777734492.6472855,-8.84,0.07,-1.42,0.007,-0.234,9.812,-0.01,0.0,0.0
1777734492.6573071,-8.84,0.07,-1.42,0.008,-0.237,9.812,0.0,-0.01,-0.01
1777734492.667349,-8.84,0.07,-1.42,0.004,-0.238,9.812,-0.01,0.0,-0.01
1777734492.6775265,-8.84,0.07,-1.42,0.007,-0.245,9.812,-0.01,-0.01,-0.01
1777734492.6876163,-8.84,0.07,-1.42,0.011,-0.248,9.812,-0.01,-0.01,0.0
1777734492.6973217,-8.84,0.07,-1.42,0.016,-0.248,9.812,-0.01,-0.01,-0.01
1777734492.7072737,-8.84,0.07,-1.42,0.019,-0.245,9.812,-0.01,-0.01,0.0
1777734492.7174385,-8.84,0.07,-1.42,0.019,-0.238,9.812,-0.01,-0.01,0.0
1777734492.7274406,-8.84,0.07,-1.42,0.023,-0.236,9.812,-0.01,0.0,0.0
1777734492.7378423,-8.84,0.07,-1.42,0.024,-0.236,9.812,-0.01,0.0,0.0
1777734492.7473657,-8.84,0.07,-1.42,0.018,-0.23,9.812,-0.01,0.0,0.0
1777734492.757282,-8.84,0.07,-1.42,0.01,-0.232,9.812,-0.01,0.0,0.0
1777734492.7672944,-8.84,0.07,-1.42,0.006,-0.236,9.812,-0.01,0.0,-0.01
1777734492.7776377,-8.84,0.07,-1.42,0.001,-0.241,9.812,-0.01,0.0,0.0
1777734492.787405,-8.84,0.07,-1.42,0.001,-0.238,9.812,-0.01,-0.01,0.0
1777734492.7972918,-8.84,0.07,-1.42,0.004,-0.242,9.812,-0.01,-0.01,0.0
1777734492.807347,-8.84,0.07,-1.42,0.007,-0.238,9.812,0.0,0.0,-0.01
1777734492.8172987,-8.84,0.07,-1.42,0.01,-0.238,9.812,0.0,-0.01,0.0
1777734492.8273628,-8.84,0.07,-1.42,0.01,-0.238,9.812,-0.01,-0.01,0.0
1777734492.8373022,-8.84,0.07,-1.42,0.004,-0.234,9.812,0.0,0.0,0.0
1777734492.8473468,-8.84,0.07,-1.42,0.004,-0.229,9.812,0.0,0.0,0.0
1777734492.8574815,-8.84,0.07,-1.42,0.007,-0.232,9.812,-0.01,0.0,-0.01
1777734492.8673103,-8.84,0.07,-1.42,0.01,-0.24,9.812,-0.01,0.0,0.0
1777734492.876526,-8.84,0.07,-1.42,0.008,-0.241,9.812,-0.01,0.0,0.0
1777734492.8873296,-8.84,0.07,-1.42,0.007,-0.242,9.812,-0.01,0.0,0.0
1777734492.8974633,-8.84,0.07,-1.42,0.008,-0.244,9.812,-0.01,0.0,0.0
1777734492.9073374,-8.84,0.07,-1.42,0.014,-0.248,9.812,-0.01,-0.01,-0.01
1777734492.917435,-8.84,0.07,-1.42,0.011,-0.249,9.812,0.0,0.0,-0.01
1777734492.9264476,-8.84,0.07,-1.42,0.01,-0.249,9.812,-0.01,-0.01,-0.01
1777734492.9374685,-8.84,0.07,-1.42,0.012,-0.245,9.812,-0.01,-0.01,0.0
1777734492.9465055,-8.85,0.07,-1.42,0.014,-0.243,9.812,0.0,-0.01,0.0
1777734492.9574952,-8.85,0.07,-1.42,0.016,-0.248,9.812,-0.01,0.0,0.0
1777734492.9673426,-8.85,0.07,-1.42,0.007,-0.245,9.812,0.0,0.0,0.0
1777734492.9764621,-8.85,0.07,-1.42,0.011,-0.249,9.812,-0.01,0.0,0.0
1777734492.9873614,-8.85,0.07,-1.42,0.004,-0.251,9.812,-0.01,0.0,0.0
1777734492.996481,-8.85,0.07,-1.43,0.005,-0.253,9.812,-0.01,-0.01,0.0
1777734493.0065117,-8.85,0.07,-1.43,0.01,-0.25,9.812,-0.01,-0.01,0.0
1777734493.0173397,-8.85,0.07,-1.43,0.01,-0.242,9.812,-0.01,0.0,0.0
1777734493.0265317,-8.85,0.07,-1.42,0.017,-0.244,9.812,-0.01,0.0,-0.01
1777734493.036492,-8.85,0.07,-1.42,0.013,-0.242,9.812,0.0,-0.01,-0.01
1777734493.0464997,-8.85,0.07,-1.42,0.016,-0.237,9.812,0.0,-0.01,-0.01
1777734493.0564568,-8.85,0.07,-1.42,0.013,-0.229,9.812,0.0,-0.01,0.0
1777734493.0664978,-8.85,0.07,-1.42,0.016,-0.226,9.812,0.0,-0.01,0.0
1777734493.0769808,-8.85,0.07,-1.42,0.016,-0.234,9.812,-0.01,0.0,0.0
1777734493.086553,-8.85,0.07,-1.42,0.02,-0.247,9.812,-0.01,-0.01,-0.01
1777734493.096467,-8.85,0.07,-1.42,0.018,-0.245,9.812,-0.01,0.0,0.0
1777734493.10651,-8.85,0.07,-1.42,0.023,-0.251,9.812,0.0,0.0,0.0
1777734493.1164424,-8.85,0.07,-1.42,0.017,-0.251,9.812,-0.01,-0.01,0.0
1777734493.1264977,-8.85,0.07,-1.42,0.012,-0.253,9.812,0.0,0.0,0.0
1777734493.1364503,-8.85,0.07,-1.42,0.004,-0.241,9.812,-0.01,0.0,0.0
1777734493.1464803,-8.85,0.07,-1.42,0.0,-0.24,9.812,0.0,-0.01,-0.01
1777734493.1564424,-8.85,0.07,-1.42,0.0,-0.235,9.812,-0.01,-0.01,-0.01
1777734493.1664526,-8.85,0.07,-1.42,0.008,-0.241,9.812,-0.01,-0.01,-0.01
1777734493.1764853,-8.85,0.07,-1.42,0.014,-0.24,9.812,-0.01,0.0,-0.01
1777734493.1864874,-8.85,0.07,-1.42,0.014,-0.244,9.812,-0.01,-0.01,-0.01
1777734493.1965024,-8.85,0.07,-1.42,0.019,-0.249,9.812,-0.01,-0.01,-0.01
1777734493.2064607,-8.85,0.07,-1.42,0.016,-0.245,9.812,-0.01,-0.01,0.0
1777734493.2164972,-8.85,0.07,-1.42,0.018,-0.242,9.812,0.0,0.0,0.0
1777734493.2264721,-8.85,0.07,-1.43,0.006,-0.244,9.812,0.0,0.0,-0.01
1777734493.236456,-8.85,0.07,-1.42,0.012,-0.229,9.812,-0.01,0.0,-0.01
1777734493.2464447,-8.85,0.07,-1.42,0.01,-0.241,9.812,0.0,-0.01,-0.01
1777734493.2564924,-8.85,0.07,-1.42,0.017,-0.236,9.812,-0.01,-0.01,0.0
1777734493.2664745,-8.85,0.08,-1.43,0.016,-0.243,9.812,-0.01,-0.01,0.0
1777734493.276479,-8.85,0.08,-1.43,0.017,-0.238,9.812,-0.01,-0.01,0.0
1777734493.2864609,-8.85,0.08,-1.43,0.016,-0.249,9.812,-0.01,0.0,0.0
1777734493.296455,-8.85,0.08,-1.43,0.013,-0.247,9.812,-0.01,-0.01,-0.01
1777734493.306484,-8.85,0.08,-1.43,0.011,-0.251,9.812,-0.01,0.0,-0.01
1777734493.3164587,-8.85,0.08,-1.43,0.005,-0.251,9.812,0.0,-0.01,0.0
1777734493.3264608,-8.85,0.07,-1.43,0.007,-0.251,9.812,0.0,0.0,0.0
1777734493.3364413,-8.85,0.07,-1.43,0.002,-0.238,9.812,-0.01,0.0,0.0
1777734493.3464656,-8.85,0.07,-1.43,0.002,-0.237,9.812,-0.01,0.0,0.0
1777734493.3564994,-8.85,0.07,-1.43,0.002,-0.237,9.812,-0.01,-0.01,0.0
1777734493.3664489,-8.85,0.07,-1.43,0.004,-0.235,9.812,-0.01,0.0,0.0
1777734493.3768485,-8.85,0.07,-1.43,0.01,-0.241,9.812,-0.01,0.0,0.0
1777734493.386464,-8.85,0.07,-1.43,0.01,-0.25,9.812,-0.01,-0.01,0.0
1777734493.3965182,-8.85,0.07,-1.43,0.016,-0.248,9.812,-0.01,0.0,0.0
1777734493.406505,-8.85,0.07,-1.43,0.013,-0.241,9.812,-0.01,-0.01,0.0
1777734493.4164715,-8.85,0.07,-1.43,0.01,-0.238,9.812,-0.01,-0.01,0.0
1777734493.4264803,-8.85,0.07,-1.43,0.007,-0.231,9.812,-0.01,0.0,0.0
1777734493.4364913,-8.85,0.07,-1.43,0.004,-0.241,9.812,-0.01,0.0,0.0
1777734493.446493,-8.85,0.07,-1.43,0.006,-0.234,9.812,-0.01,-0.01,-0.01
1777734493.4564793,-8.85,0.07,-1.43,0.006,-0.24,9.812,-0.01,0.0,-0.01
1777734493.4665008,-8.85,0.07,-1.43,0.005,-0.243,9.812,0.0,-0.01,0.0
1777734493.4764912,-8.85,0.07,-1.43,0.001,-0.25,9.812,-0.01,-0.01,0.0
1777734493.4864845,-8.85,0.07,-1.43,0.004,-0.251,9.812,0.0,-0.01,-0.01
1777734493.4964945,-8.85,0.07,-1.43,0.012,-0.244,9.812,0.0,0.0,-0.01
1777734493.5064914,-8.85,0.07,-1.43,0.007,-0.245,9.812,0.0,-0.01,-0.01
1777734493.516498,-8.85,0.07,-1.43,0.014,-0.231,9.812,-0.01,0.0,-0.01
1777734493.5264847,-8.85,0.07,-1.43,0.005,-0.24,9.812,-0.01,0.0,0.0
1777734493.536503,-8.85,0.07,-1.43,0.005,-0.235,9.812,-0.01,-0.01,0.0
1777734493.5465033,-8.85,0.07,-1.43,0.002,-0.234,9.812,-0.01,0.0,0.0
1777734493.5564892,-8.85,0.07,-1.43,0.007,-0.235,9.812,-0.01,-0.01,0.0
1777734493.5665126,-8.85,0.07,-1.43,0.008,-0.249,9.812,0.0,0.0,0.0
1777734493.5765076,-8.85,0.07,-1.43,0.011,-0.247,9.812,-0.01,-0.01,-0.01
1777734493.5865014,-8.85,0.07,-1.43,0.016,-0.25,9.812,-0.01,0.0,0.0
1777734493.596466,-8.85,0.07,-1.43,0.017,-0.243,9.812,0.0,-0.01,0.0
1777734493.606517,-8.85,0.07,-1.43,0.013,-0.24,9.812,-0.01,0.0,0.0
1777734493.6164677,-8.85,0.07,-1.43,0.016,-0.23,9.812,-0.01,0.0,0.0
1777734493.6265645,-8.85,0.07,-1.43,0.01,-0.234,9.812,-0.01,0.0,0.0
1777734493.6368158,-8.85,0.07,-1.43,0.017,-0.24,9.812,0.0,0.0,-0.01
1777734493.6468148,-8.85,0.07,-1.43,0.011,-0.242,9.812,-0.01,0.0,-0.01
1777734493.6565254,-8.85,0.07,-1.43,0.014,-0.243,9.812,-0.01,-0.01,0.0
1777734493.6665173,-8.85,0.07,-1.43,0.017,-0.241,9.812,-0.01,-0.01,0.0
1777734493.6764822,-8.85,0.07,-1.43,0.01,-0.238,9.812,-0.01,-0.01,0.0
1777734493.686471,-8.85,0.07,-1.43,0.023,-0.243,9.812,-0.01,0.0,0.0
1777734493.6964738,-8.85,0.07,-1.43,0.023,-0.24,9.812,0.0,-0.01,-0.01
1777734493.7065246,-8.85,0.07,-1.43,0.022,-0.236,9.812,-0.01,0.0,-0.01
1777734493.7165089,-8.85,0.07,-1.43,0.018,-0.235,9.812,-0.01,-0.01,0.0
1777734493.7264912,-8.85,0.07,-1.43,0.013,-0.235,9.812,-0.01,-0.01,0.0
1777734493.7364788,-8.85,0.07,-1.43,0.011,-0.226,9.812,-0.01,0.0,0.0
1777734493.7465234,-8.85,0.07,-1.43,0.008,-0.229,9.812,-0.01,0.0,0.0
1777734493.7565267,-8.85,0.07,-1.43,0.007,-0.234,9.812,-0.01,-0.01,-0.01
1777734493.766553,-8.85,0.07,-1.43,0.004,-0.242,9.812,-0.01,0.0,-0.01
1777734493.7765427,-8.85,0.07,-1.43,-0.002,-0.251,9.812,-0.01,-0.01,-0.01
1777734493.7865126,-8.85,0.07,-1.43,-0.002,-0.249,9.812,-0.01,-0.01,0.0
1777734493.7957046,-8.85,0.07,-1.43,0.002,-0.241,9.812,0.0,-0.01,0.0
1777734493.8057065,-8.85,0.07,-1.43,0.01,-0.245,9.812,-0.01,-0.01,-0.01
1777734493.8165004,-8.85,0.07,-1.43,0.012,-0.236,9.812,0.0,0.0,-0.01
1777734493.8256419,-8.85,0.07,-1.43,0.008,-0.24,9.812,0.0,0.0,-0.01
1777734493.835853,-8.85,0.07,-1.43,0.012,-0.234,9.812,-0.01,0.0,-0.01
1777734493.846523,-8.85,0.07,-1.43,0.014,-0.236,9.812,-0.01,0.0,0.0
1777734493.8556514,-8.85,0.07,-1.43,0.018,-0.232,9.812,-0.01,0.0,0.0
1777734493.8665383,-8.85,0.07,-1.43,0.014,-0.236,9.812,-0.01,0.0,0.0
1777734493.8764951,-8.85,0.07,-1.43,0.007,-0.232,9.812,0.0,0.0,-0.01
1777734493.8856316,-8.85,0.07,-1.43,0.007,-0.24,9.812,-0.01,0.0,-0.01
1777734493.895616,-8.85,0.06,-1.43,0.007,-0.24,9.812,0.0,-0.01,0.0
1777734493.9056406,-8.85,0.07,-1.43,0.01,-0.236,9.812,-0.01,0.0,0.0
1777734493.9156296,-8.85,0.07,-1.42,0.011,-0.23,9.812,-0.01,-0.01,0.0
1777734493.9256244,-8.85,0.07,-1.42,0.011,-0.222,9.812,0.0,-0.01,0.0
1777734493.9356282,-8.85,0.07,-1.42,0.013,-0.225,9.812,-0.01,-0.01,0.0
1777734493.9456565,-8.85,0.07,-1.42,0.019,-0.236,9.812,-0.01,-0.01,0.0
1777734493.9556248,-8.85,0.07,-1.42,0.018,-0.245,9.812,-0.01,0.0,-0.01
1777734493.9656203,-8.85,0.07,-1.42,0.02,-0.248,9.812,-0.01,0.0,-0.01
1777734493.9760282,-8.85,0.07,-1.42,0.018,-0.249,9.812,-0.01,-0.01,0.0
1777734493.9856317,-8.85,0.07,-1.42,0.011,-0.244,9.812,-0.01,0.0,0.0
1777734493.9956446,-8.85,0.07,-1.42,0.012,-0.249,9.812,0.0,0.0,0.0
1777734494.0056858,-8.85,0.07,-1.42,0.01,-0.249,9.812,-0.01,0.0,0.0
1777734494.0156767,-8.85,0.07,-1.42,0.011,-0.254,9.812,0.0,0.0,0.0
1777734494.0256133,-8.85,0.07,-1.42,0.006,-0.242,9.812,0.0,0.0,0.0
1777734494.0356355,-8.86,0.07,-1.42,0.007,-0.24,9.812,-0.01,-0.01,0.0
1777734494.0456104,-8.85,0.07,-1.42,0.005,-0.23,9.812,-0.01,-0.01,0.0
1777734494.0556273,-8.85,0.07,-1.42,0.001,-0.236,9.812,-0.01,-0.01,-0.01
1777734494.0657606,-8.85,0.07,-1.42,0.001,-0.231,9.812,-0.01,0.0,-0.01
1777734494.0756116,-8.85,0.07,-1.42,0.002,-0.245,9.812,-0.01,-0.01,-0.01
1777734494.085605,-8.85,0.07,-1.42,0.005,-0.248,9.812,-0.01,-0.01,0.0
1777734494.0956256,-8.85,0.06,-1.43,0.005,-0.249,9.812,-0.01,0.0,0.0
1777734494.105596,-8.85,0.06,-1.43,0.022,-0.242,9.812,-0.01,-0.01,0.0
1777734494.1156056,-8.85,0.07,-1.42,0.02,-0.242,9.812,0.0,-0.01,-0.01
1777734494.1255934,-8.85,0.07,-1.42,0.012,-0.241,9.812,0.0,0.0,-0.01
1777734494.1356072,-8.85,0.07,-1.42,0.01,-0.237,9.812,-0.01,-0.01,-0.01
1777734494.1456034,-8.85,0.07,-1.42,0.008,-0.24,9.812,-0.01,-0.01,-0.01
1777734494.155635,-8.85,0.07,-1.42,0.008,-0.241,9.812,-0.01,-0.01,0.0
1777734494.1656158,-8.85,0.07,-1.42,0.012,-0.24,9.812,-0.01,0.0,0.0
1777734494.1756144,-8.85,0.07,-1.42,0.007,-0.242,9.812,-0.01,-0.01,-0.01
1777734494.1856272,-8.85,0.07,-1.42,0.01,-0.244,9.812,-0.01,-0.01,0.0
1777734494.1956403,-8.85,0.07,-1.43,0.016,-0.256,9.812,-0.01,-0.01,-0.01
1777734494.2056227,-8.85,0.07,-1.43,0.023,-0.256,9.812,-0.01,-0.01,-0.01
1777734494.2156272,-8.85,0.07,-1.43,0.023,-0.251,9.812,-0.01,0.0,-0.01
1777734494.2256427,-8.85,0.07,-1.43,0.028,-0.238,9.812,-0.01,-0.01,0.0
1777734494.2356644,-8.85,0.07,-1.42,0.022,-0.236,9.812,0.0,-0.01,0.0
1777734494.2456238,-8.85,0.07,-1.42,0.019,-0.231,9.812,0.0,-0.01,0.0
1777734494.2556527,-8.85,0.07,-1.42,0.013,-0.235,9.812,-0.01,0.0,0.0
1777734494.2656496,-8.85,0.07,-1.43,0.01,-0.24,9.812,-0.01,-0.01,-0.01
1777734494.275659,-8.85,0.07,-1.42,0.012,-0.241,9.812,-0.01,0.0,0.0
1777734494.2856305,-8.85,0.07,-1.43,0.013,-0.245,9.812,-0.01,-0.01,0.0
1777734494.295666,-8.85,0.08,-1.43,0.016,-0.24,9.812,-0.01,-0.01,0.0
1777734494.3056686,-8.85,0.08,-1.43,0.016,-0.237,9.812,-0.01,-0.01,0.0
1777734494.3156602,-8.85,0.08,-1.43,0.014,-0.238,9.812,-0.01,-0.01,-0.01
1777734494.3256555,-8.85,0.07,-1.43,0.017,-0.242,9.812,-0.01,0.0,0.0
1777734494.33565,-8.85,0.08,-1.42,0.011,-0.242,9.812,-0.01,0.0,-0.01
1777734494.345666,-8.85,0.07,-1.42,0.007,-0.238,9.812,-0.01,0.0,0.0
1777734494.3556669,-8.85,0.07,-1.42,0.008,-0.241,9.812,-0.01,-0.01,0.0
1777734494.3656754,-8.85,0.07,-1.43,0.006,-0.237,9.812,0.0,-0.01,0.0
1777734494.3756573,-8.85,0.07,-1.43,0.013,-0.244,9.812,-0.01,-0.01,-0.01
1777734494.3856883,-8.85,0.07,-1.43,0.01,-0.245,9.812,-0.01,0.0,-0.01
1777734494.395957,-8.85,0.07,-1.43,0.011,-0.249,9.812,-0.01,0.0,0.0
1777734494.4056592,-8.85,0.07,-1.43,0.012,-0.245,9.812,-0.01,0.0,0.0
1777734494.415694,-8.85,0.07,-1.43,0.008,-0.245,9.812,-0.01,-0.01,0.0
1777734494.425693,-8.85,0.07,-1.43,0.01,-0.248,9.812,-0.01,0.0,0.0
1777734494.4356682,-8.85,0.07,-1.43,0.013,-0.25,9.812,-0.01,0.0,0.0
1777734494.4456801,-8.86,0.07,-1.43,0.016,-0.254,9.812,-0.01,0.0,0.0
1777734494.4556894,-8.86,0.07,-1.43,0.017,-0.248,9.812,-0.01,0.0,0.0
1777734494.4657016,-8.86,0.07,-1.43,0.017,-0.242,9.812,0.0,0.0,0.0
1777734494.4757035,-8.86,0.07,-1.43,0.018,-0.24,9.812,-0.01,-0.01,0.0
1777734494.4856765,-8.86,0.07,-1.43,0.014,-0.23,9.812,-0.01,0.0,0.0
1777734494.4957848,-8.86,0.07,-1.43,0.01,-0.235,9.812,-0.01,-0.01,-0.01
1777734494.5058708,-8.86,0.07,-1.43,0.017,-0.234,9.812,-0.01,0.0,-0.01
1777734494.5156755,-8.86,0.07,-1.43,0.006,-0.243,9.812,-0.01,-0.01,-0.01
1777734494.5258973,-8.86,0.07,-1.43,0.011,-0.241,9.812,-0.01,-0.01,0.0
1777734494.5356493,-8.86,0.07,-1.43,0.013,-0.247,9.812,-0.01,-0.01,0.0
1777734494.545688,-8.86,0.07,-1.43,0.008,-0.243,9.812,-0.01,-0.01,0.0
1777734494.5556629,-8.86,0.07,-1.43,0.008,-0.245,9.812,0.0,0.0,-0.01
1777734494.5656557,-8.86,0.07,-1.43,0.01,-0.242,9.812,-0.01,-0.01,-0.01
1777734494.5756984,-8.86,0.07,-1.43,0.012,-0.237,9.812,-0.01,0.0,0.0
1777734494.5859714,-8.86,0.07,-1.43,0.01,-0.235,9.812,0.0,0.0,0.0
1777734494.5956907,-8.86,0.07,-1.43,0.008,-0.234,9.812,-0.01,0.0,0.0
1777734494.6056676,-8.86,0.07,-1.43,0.008,-0.236,9.812,-0.01,0.0,0.0
1777734494.6156564,-8.86,0.07,-1.43,0.008,-0.243,9.812,-0.01,-0.01,0.0
1777734494.6248486,-8.86,0.07,-1.43,0.01,-0.243,9.812,0.0,-0.01,-0.01
1777734494.6348472,-8.86,0.07,-1.43,0.011,-0.247,9.812,-0.01,-0.01,-0.01
1777734494.6456888,-8.86,0.07,-1.43,0.012,-0.247,9.812,-0.01,-0.01,-0.01
1777734494.6556866,-8.86,0.08,-1.43,0.012,-0.243,9.812,0.0,-0.01,0.0
1777734494.6648602,-8.86,0.08,-1.43,0.008,-0.234,9.812,-0.01,-0.01,0.0
1777734494.6748424,-8.86,0.07,-1.43,0.01,-0.231,9.812,-0.01,-0.01,0.0
1777734494.6856651,-8.86,0.08,-1.42,0.006,-0.226,9.812,0.0,0.0,0.0
1777734494.6948407,-8.86,0.07,-1.42,0.0,-0.222,9.812,-0.01,-0.01,0.0
1777734494.7056944,-8.86,0.07,-1.42,0.002,-0.229,9.812,-0.01,-0.01,0.0
1777734494.7148783,-8.86,0.07,-1.42,0.004,-0.229,9.812,-0.01,0.0,0.0
1777734494.7248533,-8.86,0.07,-1.42,0.004,-0.241,9.812,-0.01,0.0,0.0
1777734494.7357142,-8.86,0.07,-1.42,0.007,-0.243,9.812,-0.01,-0.01,0.0
1777734494.7456796,-8.86,0.07,-1.42,0.012,-0.253,9.812,-0.01,-0.01,-0.01
1777734494.7548864,-8.86,0.07,-1.43,0.005,-0.249,9.812,-0.01,-0.01,0.0
1777734494.7648644,-8.86,0.07,-1.43,-0.001,-0.25,9.812,-0.01,-0.01,0.0
1777734494.7757041,-8.86,0.07,-1.43,-0.004,-0.256,9.812,0.0,-0.01,0.0
1777734494.7848732,-8.86,0.07,-1.43,0.001,-0.248,9.812,0.0,0.0,-0.01
1777734494.7948785,-8.86,0.07,-1.42,0.002,-0.245,9.812,0.0,0.0,-0.01
1777734494.8048441,-8.86,0.07,-1.42,0.004,-0.244,9.812,0.0,0.0,-0.01
1777734494.8150907,-8.86,0.07,-1.43,0.007,-0.248,9.812,-0.01,0.0,-0.01
1777734494.8249142,-8.86,0.07,-1.43,0.013,-0.253,9.812,0.0,0.0,-0.01
1777734494.8348424,-8.86,0.07,-1.43,0.011,-0.249,9.812,-0.01,0.0,0.0
1777734494.8448281,-8.86,0.07,-1.43,0.008,-0.25,9.812,-0.01,-0.01,0.0
1777734494.8548903,-8.86,0.07,-1.43,0.007,-0.248,9.812,-0.01,-0.01,0.0
1777734494.8648832,-8.86,0.07,-1.43,0.014,-0.25,9.812,-0.01,0.0,-0.01
1777734494.8748426,-8.86,0.07,-1.43,0.01,-0.245,9.812,0.0,-0.01,0.0
1777734494.8848827,-8.86,0.07,-1.43,0.016,-0.244,9.812,-0.01,-0.01,0.0
1777734494.8950267,-8.86,0.07,-1.43,0.013,-0.241,9.812,-0.01,-0.01,0.0
1777734494.904871,-8.86,0.07,-1.43,0.006,-0.237,9.812,-0.01,-0.01,0.0
1777734494.9148867,-8.86,0.07,-1.43,0.005,-0.237,9.812,-0.01,-0.01,-0.01
1777734494.924883,-8.86,0.07,-1.43,0.008,-0.245,9.812,-0.01,-0.01,0.0
1777734494.9348829,-8.86,0.07,-1.43,0.011,-0.23,9.812,0.0,-0.01,0.0
1777734494.9448888,-8.86,0.07,-1.43,0.018,-0.238,9.812,0.0,0.0,0.0
1777734494.9548805,-8.86,0.07,-1.43,0.017,-0.228,9.812,-0.01,0.0,0.0
1777734494.964826,-8.86,0.07,-1.42,0.017,-0.235,9.812,-0.01,0.0,0.0
1777734494.9748695,-8.86,0.07,-1.43,0.006,-0.236,9.812,-0.01,-0.01,-0.01
1777734494.9848862,-8.86,0.07,-1.43,0.006,-0.24,9.812,-0.01,0.0,0.0
1777734494.994844,-8.86,0.07,-1.43,0.008,-0.235,9.812,-0.01,-0.01,0.0
1777734495.0048363,-8.86,0.07,-1.43,0.014,-0.242,9.812,-0.01,-0.01,0.0
1777734495.0148425,-8.86,0.07,-1.43,0.018,-0.245,9.812,-0.01,-0.01,0.0
1777734495.0248725,-8.86,0.07,-1.43,0.014,-0.241,9.812,-0.01,0.0,0.0
1777734495.0348809,-8.86,0.07,-1.43,0.013,-0.24,9.812,-0.01,-0.01,0.0
1777734495.0448465,-8.86,0.07,-1.43,0.012,-0.24,9.812,-0.01,0.0,-0.01
1777734495.0549014,-8.86,0.07,-1.43,0.005,-0.243,9.812,-0.01,0.0,0.0
1777734495.0648482,-8.86,0.07,-1.43,0.004,-0.242,9.812,0.0,-0.01,0.0
1777734495.07482,-8.86,0.07,-1.43,0.007,-0.24,9.812,0.0,-0.01,-0.01
1777734495.0848722,-8.86,0.07,-1.43,0.007,-0.23,9.812,0.0,-0.01,0.0
1777734495.0948684,-8.86,0.07,-1.42,0.01,-0.23,9.812,-0.01,0.0,0.0
1777734495.104827,-8.86,0.07,-1.42,0.011,-0.237,9.812,0.0,-0.01,-0.01
1777734495.1148312,-8.86,0.07,-1.42,0.005,-0.241,9.812,0.0,-0.01,-0.01
1777734495.1248825,-8.86,0.07,-1.42,0.006,-0.247,9.812,0.0,-0.01,-0.01
1777734495.134909,-8.86,0.07,-1.42,0.004,-0.249,9.812,-0.01,-0.01,0.0
1777734495.1451395,-8.87,0.07,-1.42,0.004,-0.248,9.812,-0.01,0.0,0.0
1777734495.1548486,-8.87,0.07,-1.42,0.007,-0.243,9.812,-0.01,0.0,0.0
1777734495.1650224,-8.86,0.07,-1.42,0.008,-0.238,9.812,0.0,0.0,0.0
1777734495.1748803,-8.86,0.07,-1.42,0.007,-0.242,9.812,-0.01,0.0,-0.01
1777734495.1850536,-8.86,0.07,-1.42,0.0,-0.242,9.812,-0.01,-0.01,-0.01
1777734495.194874,-8.86,0.07,-1.42,0.004,-0.24,9.812,0.0,0.0,0.0
1777734495.2048612,-8.86,0.07,-1.42,0.008,-0.236,9.812,-0.01,-0.01,0.0
1777734495.2148762,-8.86,0.07,-1.42,0.013,-0.236,9.812,-0.01,-0.01,-0.01
1777734495.2248664,-8.86,0.07,-1.42,0.017,-0.241,9.812,-0.01,0.0,-0.01
1777734495.2348828,-8.86,0.07,-1.43,0.016,-0.255,9.812,-0.01,0.0,-0.01
1777734495.2448542,-8.86,0.07,-1.43,0.02,-0.26,9.812,-0.01,-0.01,-0.01
1777734495.2548997,-8.87,0.07,-1.43,0.022,-0.249,9.812,0.0,0.0,0.0
1777734495.2648761,-8.87,0.07,-1.43,0.025,-0.238,9.812,0.0,0.0,0.0
1777734495.2749014,-8.87,0.07,-1.42,0.017,-0.231,9.812,-0.01,-0.01,0.0
1777734495.2848458,-8.87,0.07,-1.42,0.017,-0.219,9.812,0.0,0.0,0.0
1777734495.294878,-8.87,0.07,-1.42,0.002,-0.226,9.812,-0.01,-0.01,-0.01
1777734495.3048332,-8.87,0.07,-1.42,0.0,-0.232,9.812,-0.01,0.0,-0.01
1777734495.314836,-8.87,0.07,-1.42,-0.006,-0.241,9.812,-0.01,-0.01,-0.01
1777734495.3248858,-8.87,0.07,-1.42,0.006,-0.237,9.812,-0.01,-0.01,0.0
1777734495.3348877,-8.87,0.07,-1.42,0.006,-0.235,9.812,-0.01,-0.01,0.0
1777734495.3448422,-8.87,0.07,-1.42,0.014,-0.238,9.812,-0.01,-0.01,0.0
1777734495.3548348,-8.87,0.07,-1.42,0.02,-0.245,9.812,-0.01,0.0,-0.01
1777734495.3648841,-8.87,0.07,-1.42,0.016,-0.244,9.812,0.0,0.0,-0.01
1777734495.374851,-8.87,0.07,-1.42,0.014,-0.238,9.812,-0.01,0.0,-0.01
1777734495.385023,-8.87,0.07,-1.42,0.013,-0.236,9.812,-0.01,0.0,0.0
1777734495.3948805,-8.87,0.07,-1.42,0.012,-0.232,9.812,0.0,0.0,0.0
1777734495.4048533,-8.87,0.07,-1.42,0.011,-0.224,9.812,-0.01,-0.01,0.0
1777734495.4149268,-8.87,0.07,-1.42,0.01,-0.231,9.812,-0.01,0.0,0.0
1777734495.4248722,-8.87,0.07,-1.42,0.01,-0.231,9.812,-0.01,0.0,-0.01
1777734495.4348772,-8.87,0.07,-1.42,0.012,-0.24,9.812,-0.01,0.0,-0.01
1777734495.4448445,-8.87,0.07,-1.42,0.01,-0.243,9.812,-0.01,-0.01,0.0
1777734495.4548821,-8.87,0.07,-1.42,0.006,-0.243,9.812,0.0,-0.01,0.0
1777734495.4648724,-8.87,0.07,-1.42,0.006,-0.245,9.812,-0.01,-0.01,0.0
1777734495.4748704,-8.87,0.07,-1.42,0.01,-0.237,9.812,-0.01,0.0,-0.01
1777734495.4848928,-8.87,0.07,-1.42,0.013,-0.24,9.812,0.0,0.0,-0.01
1777734495.49491,-8.87,0.07,-1.42,0.018,-0.242,9.812,-0.01,-0.01,-0.01
1777734495.5048592,-8.87,0.07,-1.42,0.016,-0.242,9.812,0.0,0.0,0.0
1777734495.5148919,-8.87,0.07,-1.42,0.014,-0.244,9.812,0.0,0.0,0.0
1777734495.524892,-8.87,0.07,-1.42,0.013,-0.247,9.812,0.0,-0.01,-0.01
1777734495.5340488,-8.87,0.07,-1.42,0.014,-0.245,9.812,0.0,0.0,-0.01
1777734495.5448833,-8.87,0.07,-1.42,0.016,-0.247,9.812,0.0,0.0,-0.01
1777734495.5549042,-8.87,0.07,-1.42,0.012,-0.25,9.812,0.0,-0.01,-0.01
1777734495.564076,-8.87,0.07,-1.42,0.012,-0.26,9.812,0.0,-0.01,-0.01
1777734495.5740356,-8.87,0.07,-1.42,0.014,-0.257,9.812,0.0,0.0,-0.01
1777734495.585221,-8.87,0.07,-1.42,0.016,-0.249,9.812,0.0,-0.01,-0.01
1777734495.5941079,-8.87,0.07,-1.42,0.019,-0.235,9.812,0.0,-0.01,0.0
1777734495.6050289,-8.87,0.07,-1.42,0.024,-0.229,9.812,0.0,0.0,0.0
1777734495.6140594,-8.87,0.08,-1.42,0.026,-0.223,9.812,-0.01,0.0,-0.01
1777734495.6240597,-8.87,0.08,-1.42,0.02,-0.231,9.812,0.0,-0.01,-0.01
1777734495.6340477,-8.87,0.08,-1.42,0.02,-0.232,9.812,0.0,-0.01,-0.01
1777734495.6440725,-8.86,0.08,-1.42,0.017,-0.244,9.812,0.0,0.0,-0.01
1777734495.6542294,-8.87,0.08,-1.42,0.012,-0.241,9.812,0.0,-0.01,-0.01
1777734495.664069,-8.87,0.08,-1.42,0.01,-0.244,9.812,0.0,-0.01,0.0
1777734495.6740398,-8.87,0.07,-1.42,0.008,-0.242,9.812,0.0,0.0,0.0
1777734495.684063,-8.87,0.07,-1.42,0.012,-0.242,9.812,0.0,0.0,0.0
1777734495.6940913,-8.87,0.07,-1.42,0.013,-0.241,9.812,0.0,0.0,-0.01
1777734495.704057,-8.86,0.08,-1.42,0.012,-0.24,9.812,0.0,0.0,-0.01
1777734495.7141302,-8.86,0.07,-1.42,0.008,-0.241,9.812,0.0,-0.01,-0.01
1777734495.7240472,-8.86,0.07,-1.42,0.014,-0.24,9.812,-0.01,0.0,0.0
1777734495.7340884,-8.86,0.08,-1.42,0.016,-0.234,9.812,-0.01,-0.01,-0.01
1777734495.7440994,-8.86,0.07,-1.42,0.013,-0.237,9.812,0.0,0.0,0.0
1777734495.7540946,-8.86,0.07,-1.42,0.016,-0.244,9.812,0.0,0.0,-0.01
1777734495.764062,-8.86,0.07,-1.42,0.013,-0.251,9.812,-0.01,0.0,-0.01
1777734495.7741265,-8.87,0.08,-1.42,0.007,-0.254,9.812,0.0,0.0,0.0
1777734495.7840998,-8.87,0.07,-1.42,0.011,-0.249,9.812,-0.01,-0.01,0.0
1777734495.794064,-8.87,0.07,-1.42,0.012,-0.242,9.812,0.0,0.0,0.0
1777734495.804124,-8.87,0.07,-1.42,0.013,-0.237,9.812,0.0,-0.01,0.0
1777734495.8140285,-8.87,0.08,-1.42,0.013,-0.232,9.812,0.0,0.0,-0.01
1777734495.824055,-8.87,0.08,-1.42,0.011,-0.236,9.812,-0.01,-0.01,-0.01
1777734495.8340187,-8.87,0.08,-1.42,0.02,-0.229,9.812,0.0,-0.01,-0.01
1777734495.8441024,-8.87,0.08,-1.42,0.014,-0.231,9.812,-0.01,0.0,-0.01
1777734495.8540473,-8.87,0.08,-1.42,0.014,-0.245,9.812,0.0,-0.01,-0.01
1777734495.8640554,-8.87,0.08,-1.42,0.007,-0.249,9.812,-0.01,0.0,0.0
1777734495.8740096,-8.87,0.08,-1.42,0.0,-0.25,9.812,-0.01,0.0,-0.01
1777734495.8840678,-8.86,0.08,-1.42,0.001,-0.253,9.812,0.0,-0.01,-0.01
1777734495.8940427,-8.86,0.07,-1.42,-0.006,-0.247,9.812,0.0,-0.01,-0.01
1777734495.9040449,-8.86,0.07,-1.42,-0.004,-0.241,9.812,0.0,0.0,-0.01
1777734495.9140677,-8.87,0.07,-1.42,0.004,-0.231,9.812,0.0,-0.01,0.0
1777734495.924033,-8.87,0.07,-1.42,0.011,-0.23,9.812,0.0,0.0,0.0
1777734495.9340477,-8.87,0.07,-1.42,0.01,-0.223,9.812,-0.01,0.0,0.0
1777734495.9440362,-8.87,0.07,-1.42,0.008,-0.229,9.812,-0.01,0.0,-0.01
1777734495.9540148,-8.87,0.07,-1.42,0.01,-0.235,9.812,0.0,0.0,-0.01
1777734495.9640589,-8.87,0.07,-1.42,0.007,-0.24,9.812,-0.01,0.0,-0.01
1777734495.9740212,-8.87,0.07,-1.42,0.005,-0.245,9.812,0.0,0.0,-0.01
1777734495.9840899,-8.87,0.07,-1.42,0.001,-0.243,9.812,0.0,0.0,-0.01
1777734495.994037,-8.87,0.07,-1.42,0.0,-0.24,9.812,-0.01,0.0,0.0
1777734496.0040329,-8.87,0.07,-1.42,0.0,-0.234,9.812,0.0,-0.01,0.0
1777734496.0140328,-8.87,0.07,-1.42,0.0,-0.234,9.812,0.0,-0.01,-0.01
1777734496.0240383,-8.87,0.07,-1.42,0.007,-0.234,9.812,-0.01,-0.01,-0.01
1777734496.034045,-8.87,0.07,-1.42,0.011,-0.231,9.812,-0.01,-0.01,-0.01
1777734496.0440407,-8.87,0.07,-1.42,0.013,-0.232,9.812,0.0,-0.01,-0.01
1777734496.05406,-8.87,0.07,-1.42,0.018,-0.234,9.812,0.0,-0.01,0.0
1777734496.0640585,-8.87,0.07,-1.42,0.016,-0.242,9.812,0.0,-0.01,-0.01
1777734496.07405,-8.87,0.07,-1.42,0.011,-0.241,9.812,-0.01,0.0,-0.01
1777734496.084049,-8.86,0.07,-1.42,0.006,-0.25,9.812,0.0,-0.01,-0.01
1777734496.0940661,-8.87,0.07,-1.42,0.007,-0.244,9.812,0.0,-0.01,-0.01
1777734496.1040647,-8.87,0.07,-1.42,0.01,-0.248,9.812,-0.01,0.0,0.0
1777734496.1140642,-8.87,0.07,-1.42,0.01,-0.247,9.812,0.0,-0.01,-0.01
1777734496.1240602,-8.86,0.07,-1.42,0.008,-0.231,9.812,0.0,0.0,-0.01
1777734496.1340613,-8.86,0.07,-1.42,0.004,-0.238,9.812,0.0,-0.01,-0.01
1777734496.144064,-8.86,0.07,-1.42,0.012,-0.236,9.812,0.0,-0.01,-0.01
1777734496.1540318,-8.86,0.07,-1.42,0.01,-0.247,9.812,0.0,0.0,-0.01
1777734496.1643867,-8.86,0.07,-1.42,0.017,-0.242,9.812,-0.01,0.0,-0.01
1777734496.1740751,-8.86,0.07,-1.42,0.012,-0.249,9.812,-0.01,-0.01,0.0
1777734496.184064,-8.86,0.07,-1.42,0.013,-0.248,9.812,0.0,-0.01,0.0
1777734496.1940863,-8.86,0.07,-1.42,0.01,-0.25,9.812,0.0,0.0,-0.01
1777734496.2040656,-8.86,0.07,-1.42,0.01,-0.254,9.812,0.0,-0.01,-0.01
1777734496.2140357,-8.86,0.07,-1.42,0.002,-0.254,9.812,0.0,0.0,-0.01
1777734496.2240803,-8.86,0.07,-1.42,0.004,-0.248,9.812,0.0,0.0,0.0
1777734496.234045,-8.87,0.07,-1.42,0.008,-0.244,9.812,0.0,-0.01,0.0
1777734496.2440858,-8.87,0.07,-1.42,0.013,-0.238,9.812,-0.01,-0.01,0.0
1777734496.2540603,-8.87,0.07,-1.42,0.016,-0.241,9.812,0.0,0.0,0.0
1777734496.2640421,-8.87,0.07,-1.42,0.017,-0.242,9.812,0.0,0.0,-0.01
1777734496.274079,-8.87,0.07,-1.42,0.013,-0.25,9.812,0.0,0.0,-0.01
1777734496.284094,-8.87,0.07,-1.42,0.01,-0.254,9.812,0.0,0.0,-0.01
1777734496.2944856,-8.87,0.07,-1.42,0.007,-0.254,9.812,0.0,0.0,0.0
1777734496.304458,-8.87,0.07,-1.42,0.01,-0.26,9.812,0.0,-0.01,0.0
1777734496.3145006,-8.87,0.07,-1.42,0.011,-0.25,9.812,0.0,0.0,0.0
1777734496.3240724,-8.88,0.07,-1.42,0.013,-0.247,9.812,0.0,0.0,0.0
1777734496.3332417,-8.88,0.07,-1.42,0.006,-0.235,9.812,-0.01,-0.01,0.0
1777734496.3440626,-8.88,0.07,-1.42,0.014,-0.237,9.812,0.0,0.0,-0.01
1777734496.3540506,-8.87,0.07,-1.42,0.014,-0.236,9.812,-0.01,0.0,-0.01
1777734496.3632545,-8.87,0.07,-1.42,0.013,-0.24,9.812,0.0,-0.01,-0.01
1777734496.3732252,-8.87,0.07,-1.42,0.007,-0.243,9.812,-0.01,0.0,-0.01
1777734496.3840492,-8.87,0.07,-1.42,0.004,-0.25,9.812,0.0,0.0,-0.01
1777734496.3932285,-8.87,0.07,-1.42,0.01,-0.254,9.812,0.0,-0.01,0.0
1777734496.4032369,-8.87,0.07,-1.42,0.008,-0.255,9.812,-0.01,-0.01,-0.01
1777734496.413219,-8.87,0.07,-1.42,0.011,-0.257,9.812,0.0,-0.01,-0.01
1777734496.4243546,-8.87,0.07,-1.42,0.011,-0.263,9.812,0.0,0.0,-0.01
1777734496.433526,-8.87,0.07,-1.42,0.008,-0.253,9.812,0.0,-0.01,-0.01
1777734496.4440916,-8.87,0.07,-1.42,0.011,-0.247,9.812,0.0,0.0,-0.01
1777734496.4532561,-8.87,0.07,-1.42,0.011,-0.236,9.812,0.0,-0.01,0.0
1777734496.463233,-8.87,0.07,-1.42,0.014,-0.238,9.812,-0.01,0.0,0.0
1777734496.4740624,-8.87,0.07,-1.42,0.007,-0.236,9.812,0.0,0.0,-0.01
1777734496.4838014,-8.87,0.07,-1.42,0.005,-0.237,9.812,0.0,0.0,-0.01
1777734496.493223,-8.87,0.07,-1.42,0.007,-0.238,9.812,0.0,-0.01,-0.01
1777734496.5032449,-8.87,0.07,-1.42,0.012,-0.234,9.812,-0.01,-0.01,-0.01
1777734496.513263,-8.87,0.07,-1.42,0.014,-0.241,9.812,0.0,0.0,-0.01
1777734496.523232,-8.87,0.07,-1.42,0.016,-0.237,9.812,-0.01,0.0,0.0
1777734496.5332005,-8.87,0.07,-1.42,0.008,-0.236,9.812,0.0,0.0,0.0
1777734496.543236,-8.87,0.07,-1.42,0.006,-0.224,9.812,0.0,0.0,0.0
1777734496.5532138,-8.87,0.07,-1.42,0.002,-0.23,9.812,0.0,-0.01,-0.01
1777734496.5632408,-8.87,0.07,-1.42,0.001,-0.231,9.812,0.0,0.0,-0.01
1777734496.5732162,-8.87,0.07,-1.42,-0.004,-0.235,9.812,-0.01,0.0,-0.01
1777734496.5835304,-8.87,0.07,-1.42,0.005,-0.237,9.812,0.0,-0.01,0.0
1777734496.5932317,-8.87,0.07,-1.42,0.008,-0.24,9.812,0.0,-0.01,-0.01
1777734496.603244,-8.87,0.07,-1.42,0.011,-0.241,9.812,0.0,0.0,0.0
1777734496.6131973,-8.87,0.07,-1.42,0.011,-0.247,9.812,0.0,-0.01,-0.01
1777734496.623249,-8.87,0.07,-1.42,0.012,-0.247,9.812,0.0,0.0,-0.01
1777734496.633249,-8.87,0.07,-1.42,0.008,-0.247,9.812,0.0,0.0,-0.01
1777734496.6432002,-8.87,0.07,-1.42,0.01,-0.243,9.812,0.0,-0.01,0.0
1777734496.6532364,-8.87,0.07,-1.42,0.01,-0.238,9.812,0.0,-0.01,0.0
1777734496.663207,-8.87,0.07,-1.42,0.011,-0.235,9.812,-0.01,0.0,0.0
1777734496.6732407,-8.87,0.07,-1.42,0.011,-0.235,9.812,0.0,0.0,-0.01
1777734496.6832368,-8.87,0.07,-1.42,0.016,-0.242,9.812,0.0,-0.01,-0.01
1777734496.6932464,-8.87,0.07,-1.42,0.014,-0.245,9.812,-0.01,-0.01,-0.01
1777734496.7032084,-8.87,0.07,-1.42,0.01,-0.244,9.812,0.0,-0.01,-0.01
1777734496.7132041,-8.87,0.07,-1.42,0.014,-0.242,9.812,-0.01,-0.01,-0.01
1777734496.723217,-8.87,0.07,-1.42,0.012,-0.236,9.812,0.0,0.0,-0.01
1777734496.733243,-8.86,0.07,-1.42,0.013,-0.242,9.812,0.0,0.0,0.0
1777734496.7432275,-8.86,0.07,-1.42,0.014,-0.231,9.812,-0.01,-0.01,-0.01
1777734496.7532372,-8.86,0.07,-1.42,0.013,-0.24,9.812,0.0,0.0,-0.01
1777734496.7632072,-8.86,0.07,-1.42,0.014,-0.243,9.812,0.0,-0.01,-0.01
1777734496.773226,-8.86,0.07,-1.42,0.014,-0.249,9.812,-0.01,0.0,-0.01
1777734496.7832758,-8.86,0.07,-1.42,0.014,-0.254,9.812,0.0,-0.01,-0.01
1777734496.7932348,-8.86,0.07,-1.42,0.012,-0.251,9.812,-0.01,0.0,-0.01
1777734496.8032298,-8.86,0.07,-1.43,0.008,-0.249,9.812,0.0,-0.01,-0.01
1777734496.8132281,-8.87,0.07,-1.42,0.014,-0.254,9.812,-0.01,-0.01,0.0
1777734496.8232288,-8.87,0.07,-1.42,0.011,-0.249,9.812,0.0,0.0,0.0
1777734496.8332372,-8.87,0.07,-1.42,0.022,-0.245,9.812,0.0,-0.01,0.0
1777734496.8432226,-8.87,0.07,-1.42,0.02,-0.226,9.812,0.0,0.0,0.0
1777734496.8532226,-8.87,0.07,-1.42,0.006,-0.224,9.812,0.0,-0.01,-0.01
1777734496.8632066,-8.87,0.07,-1.42,0.011,-0.224,9.812,0.0,0.0,-0.01
1777734496.8732553,-8.87,0.07,-1.42,0.006,-0.237,9.812,-0.01,-0.01,-0.01
1777734496.8832436,-8.87,0.07,-1.42,0.012,-0.249,9.812,0.0,0.0,-0.01
1777734496.8932345,-8.87,0.07,-1.42,0.008,-0.26,9.812,-0.01,0.0,-0.01
1777734496.9032357,-8.87,0.07,-1.42,0.006,-0.259,9.812,0.0,-0.01,-0.01
1777734496.9132352,-8.87,0.07,-1.42,0.018,-0.259,9.812,0.0,-0.01,-0.01
1777734496.923244,-8.86,0.07,-1.42,0.018,-0.253,9.812,0.0,0.0,-0.01
1777734496.933298,-8.86,0.07,-1.42,0.012,-0.247,9.812,0.0,0.0,-0.01
1777734496.9432313,-8.87,0.07,-1.42,0.011,-0.241,9.812,0.0,-0.01,0.0
1777734496.9532323,-8.87,0.07,-1.42,0.012,-0.237,9.812,-0.01,0.0,0.0
1777734496.9633172,-8.87,0.07,-1.42,0.013,-0.235,9.812,0.0,0.0,0.0
1777734496.9732466,-8.87,0.07,-1.42,0.017,-0.231,9.812,0.0,0.0,-0.01
1777734496.9832623,-8.86,0.07,-1.42,0.017,-0.232,9.812,-0.01,-0.01,-0.01
1777734496.9936287,-8.86,0.07,-1.42,0.01,-0.241,9.812,-0.01,-0.01,-0.01
1777734497.0032413,-8.86,0.07,-1.42,0.005,-0.245,9.812,-0.01,-0.01,-0.01
1777734497.0132506,-8.86,0.07,-1.42,0.016,-0.25,9.812,0.0,-0.01,0.0
1777734497.0232708,-8.86,0.07,-1.42,0.016,-0.25,9.812,-0.01,-0.01,0.0
1777734497.0332274,-8.86,0.07,-1.42,0.016,-0.244,9.812,0.0,0.0,-0.01
1777734497.0432677,-8.86,0.07,-1.42,0.014,-0.238,9.812,0.0,-0.01,-0.01
1777734497.053269,-8.86,0.07,-1.42,0.012,-0.24,9.812,0.0,0.0,-0.01
1777734497.063241,-8.86,0.07,-1.42,0.008,-0.242,9.812,-0.01,0.0,-0.01
1777734497.0732782,-8.86,0.07,-1.42,0.004,-0.242,9.812,0.0,0.0,-0.01
1777734497.0832794,-8.86,0.07,-1.42,0.004,-0.244,9.812,0.0,-0.01,-0.01
1777734497.0932379,-8.86,0.07,-1.42,0.007,-0.244,9.812,0.0,-0.01,-0.01
1777734497.1032538,-8.86,0.07,-1.42,0.011,-0.247,9.812,-0.01,-0.01,-0.01
1777734497.1132154,-8.86,0.07,-1.42,0.01,-0.25,9.812,0.0,0.0,0.0
1777734497.1232896,-8.86,0.07,-1.42,0.006,-0.242,9.812,0.0,-0.01,-0.01
1777734497.133232,-8.86,0.07,-1.42,0.005,-0.236,9.812,0.0,0.0,-0.01
1777734497.1432438,-8.86,0.07,-1.42,0.005,-0.235,9.812,0.0,-0.01,-0.01
1777734497.1532183,-8.86,0.07,-1.42,0.007,-0.236,9.812,-0.01,-0.01,-0.01
1777734497.163295,-8.86,0.07,-1.42,0.005,-0.237,9.812,0.0,-0.01,0.0
1777734497.173264,-8.86,0.07,-1.42,0.005,-0.242,9.812,-0.01,0.0,-0.01
1777734497.1832373,-8.86,0.07,-1.42,0.006,-0.237,9.812,0.0,-0.01,0.0
1777734497.193235,-8.86,0.07,-1.42,0.017,-0.238,9.812,0.0,-0.01,-0.01
1777734497.203266,-8.86,0.07,-1.42,0.013,-0.248,9.812,-0.01,0.0,-0.01
1777734497.2132473,-8.86,0.07,-1.42,0.005,-0.247,9.812,0.0,0.0,-0.01
1777734497.2232265,-8.86,0.07,-1.42,0.007,-0.244,9.812,0.0,0.0,-0.01
1777734497.2332613,-8.86,0.07,-1.42,0.006,-0.24,9.812,0.0,-0.01,-0.01
1777734497.24326,-8.86,0.07,-1.42,0.002,-0.24,9.812,-0.01,-0.01,-0.01
1777734497.253241,-8.86,0.07,-1.42,0.001,-0.237,9.812,0.0,0.0,-0.01
1777734497.2632608,-8.86,0.07,-1.42,0.007,-0.243,9.812,-0.01,-0.01,-0.01
1777734497.2724326,-8.86,0.07,-1.42,0.017,-0.238,9.812,0.0,-0.01,-0.01
1777734497.2824297,-8.86,0.07,-1.42,0.018,-0.234,9.812,-0.01,-0.01,-0.01
1777734497.29327,-8.86,0.07,-1.42,0.018,-0.237,9.812,-0.01,-0.01,0.0
1777734497.3026931,-8.86,0.07,-1.42,0.018,-0.241,9.812,0.0,0.0,0.0
1777734497.3132567,-8.86,0.07,-1.42,0.014,-0.247,9.812,0.0,0.0,-0.01
1777734497.3224452,-8.86,0.07,-1.42,0.005,-0.251,9.812,0.0,0.0,-0.01
1777734497.333263,-8.86,0.07,-1.42,0.0,-0.253,9.812,0.0,0.0,-0.01
1777734497.3432553,-8.86,0.07,-1.42,-0.006,-0.257,9.812,0.0,0.0,-0.01
1777734497.356006,-8.86,0.07,-1.43,-0.002,-0.256,9.812,0.0,0.0,-0.01
1777734497.3931623,-8.86,0.07,-1.43,-0.001,-0.256,9.812,0.0,-0.01,-0.01
1777734497.3946862,-8.86,0.07,-1.43,0.006,-0.253,9.812,0.0,-0.01,-0.01
1777734497.396118,-8.86,0.07,-1.43,0.006,-0.248,9.812,0.0,0.0,-0.01
1777734497.3975143,-8.86,0.07,-1.43,0.01,-0.25,9.812,0.0,-0.01,-0.01
1777734497.4024563,-8.86,0.07,-1.43,0.013,-0.249,9.812,-0.01,-0.01,-0.01
1777734497.4124515,-8.86,0.07,-1.43,0.016,-0.244,9.812,-0.01,0.0,-0.01
1777734497.454512,-8.86,0.07,-1.43,0.016,-0.248,9.812,0.0,0.0,-0.01
1777734497.4692974,-8.86,0.07,-1.43,0.016,-0.242,9.812,-0.01,-0.01,-0.01
1777734497.4750588,-8.86,0.07,-1.43,0.008,-0.241,9.812,0.0,-0.01,0.0
1777734497.4780464,-8.86,0.07,-1.43,0.007,-0.244,9.812,0.0,-0.01,-0.01
1777734497.4802349,-8.86,0.07,-1.43,0.011,-0.235,9.812,0.0,-0.01,-0.01
1777734497.4816356,-8.86,0.07,-1.43,0.012,-0.237,9.812,-0.01,0.0,0.0
1777734497.4847124,-8.86,0.07,-1.43,0.017,-0.243,9.812,0.0,-0.01,-0.01
1777734497.4926262,-8.86,0.07,-1.43,0.018,-0.241,9.812,0.0,-0.01,-0.01
1777734497.5027711,-8.86,0.07,-1.43,0.018,-0.236,9.812,-0.01,0.0,-0.01
1777734497.5130389,-8.86,0.07,-1.43,0.017,-0.237,9.812,0.0,-0.01,-0.01
1777734497.53398,-8.86,0.07,-1.43,0.016,-0.238,9.812,0.0,0.0,-0.01
1777734497.5372074,-8.86,0.07,-1.43,0.008,-0.241,9.812,0.0,-0.01,-0.01
1777734497.5424666,-8.86,0.07,-1.43,0.011,-0.236,9.812,-0.01,-0.01,-0.01
1777734497.5524178,-8.86,0.07,-1.43,0.01,-0.243,9.812,0.0,-0.01,-0.01
1777734497.5625374,-8.86,0.07,-1.43,0.008,-0.245,9.812,0.0,-0.01,-0.01
1777734497.5727434,-8.86,0.07,-1.43,0.011,-0.247,9.812,0.0,0.0,-0.01
1777734497.5824559,-8.86,0.07,-1.43,0.013,-0.242,9.812,0.0,-0.01,-0.01
1777734497.5924275,-8.86,0.08,-1.43,0.016,-0.242,9.812,0.0,-0.01,-0.01
1777734497.6029537,-8.86,0.08,-1.43,0.013,-0.238,9.812,0.0,0.0,-0.01
1777734497.6124809,-8.86,0.08,-1.43,0.01,-0.243,9.812,0.0,0.0,-0.01
1777734497.6225905,-8.86,0.07,-1.43,0.012,-0.25,9.812,0.0,-0.01,-0.01
1777734497.6328359,-8.85,0.07,-1.43,0.008,-0.254,9.812,0.0,0.0,-0.01
1777734497.6424682,-8.85,0.08,-1.43,0.007,-0.255,9.812,0.0,-0.01,-0.01
1777734497.6524687,-8.85,0.07,-1.43,0.008,-0.257,9.812,-0.01,-0.01,-0.01
1777734497.66241,-8.86,0.07,-1.43,0.01,-0.253,9.812,0.0,0.0,0.0
1777734497.672463,-8.86,0.07,-1.43,0.008,-0.248,9.812,0.0,-0.01,0.0
1777734497.6828966,-8.86,0.07,-1.43,0.012,-0.241,9.812,-0.01,-0.01,0.0
1777734497.6924684,-8.86,0.07,-1.43,0.012,-0.248,9.812,0.0,0.0,0.0
1777734497.7024431,-8.86,0.07,-1.43,0.008,-0.244,9.812,-0.01,0.0,-0.01
1777734497.7124135,-8.86,0.07,-1.43,0.007,-0.254,9.812,0.0,0.0,-0.01
1777734497.7224672,-8.86,0.07,-1.43,0.002,-0.247,9.812,0.0,0.0,-0.01
1777734497.7324188,-8.86,0.07,-1.43,0.005,-0.244,9.812,0.0,0.0,0.0
1777734497.7424495,-8.86,0.07,-1.43,0.004,-0.237,9.812,0.0,0.0,0.0
1777734497.752429,-8.86,0.06,-1.43,0.001,-0.234,9.812,-0.01,0.0,0.0
1777734497.7624753,-8.86,0.07,-1.43,0.002,-0.232,9.812,0.0,0.0,-0.01
1777734497.7725606,-8.86,0.07,-1.43,0.01,-0.237,9.812,-0.01,-0.01,-0.01
1777734497.782481,-8.86,0.07,-1.43,0.012,-0.242,9.812,-0.01,-0.01,-0.01
1777734497.7924662,-8.86,0.07,-1.43,0.014,-0.243,9.812,-0.01,-0.01,-0.01
1777734497.8024545,-8.86,0.07,-1.43,0.023,-0.243,9.812,-0.01,-0.01,-0.01
1777734497.812446,-8.86,0.07,-1.43,0.016,-0.243,9.812,0.0,0.0,0.0
1777734497.8224566,-8.86,0.07,-1.43,0.018,-0.249,9.812,0.0,0.0,0.0
1777734497.832476,-8.86,0.07,-1.43,0.018,-0.244,9.812,-0.01,0.0,0.0
1777734497.8424394,-8.86,0.07,-1.43,0.01,-0.238,9.812,0.0,0.0,0.0
1777734497.8524296,-8.86,0.07,-1.43,0.006,-0.238,9.812,0.0,0.0,-0.01
1777734497.8624804,-8.86,0.07,-1.42,0.006,-0.236,9.812,0.0,-0.01,-0.01
1777734497.8724601,-8.86,0.07,-1.42,0.008,-0.245,9.812,0.0,0.0,-0.01
1777734497.8824542,-8.86,0.07,-1.43,0.013,-0.253,9.812,0.0,-0.01,-0.01
1777734497.8924518,-8.86,0.07,-1.43,0.017,-0.251,9.812,-0.01,-0.01,-0.01
1777734497.9024303,-8.86,0.07,-1.43,0.017,-0.247,9.812,0.0,-0.01,-0.01
1777734497.91241,-8.86,0.07,-1.43,0.018,-0.244,9.812,0.0,-0.01,-0.01
1777734497.9224172,-8.86,0.07,-1.43,0.02,-0.247,9.812,-0.01,-0.01,-0.01
1777734497.9324698,-8.86,0.07,-1.43,0.008,-0.243,9.812,0.0,0.0,-0.01
1777734497.942482,-8.86,0.07,-1.43,0.002,-0.238,9.812,0.0,0.0,-0.01
1777734497.952418,-8.86,0.07,-1.43,0.002,-0.232,9.812,0.0,-0.01,-0.01
1777734497.96247,-8.86,0.07,-1.42,0.008,-0.236,9.812,-0.01,-0.01,-0.01
1777734497.9724627,-8.86,0.07,-1.42,0.011,-0.234,9.812,0.0,0.0,-0.01
1777734497.9824886,-8.86,0.07,-1.42,0.014,-0.24,9.812,0.0,-0.01,-0.01
1777734497.9924424,-8.86,0.07,-1.42,0.013,-0.247,9.812,-0.01,-0.01,-0.01
1777734498.0024166,-8.86,0.07,-1.42,0.014,-0.24,9.812,0.0,0.0,-0.01
1777734498.0126076,-8.86,0.08,-1.42,0.011,-0.244,9.812,0.0,0.0,0.0
1777734498.0224428,-8.86,0.07,-1.42,0.014,-0.244,9.812,-0.01,-0.01,-0.01
1777734498.032425,-8.86,0.07,-1.42,0.01,-0.243,9.812,0.0,-0.01,-0.01
1777734498.0424793,-8.86,0.07,-1.42,0.016,-0.243,9.812,0.0,0.0,-0.01
1777734498.0524786,-8.86,0.08,-1.42,0.014,-0.237,9.812,-0.01,-0.01,0.0
1777734498.06243,-8.86,0.07,-1.42,0.007,-0.232,9.812,0.0,-0.01,-0.01
1777734498.0716248,-8.86,0.07,-1.42,0.007,-0.231,9.812,0.0,-0.01,-0.01
1777734498.0824645,-8.86,0.07,-1.42,0.005,-0.228,9.812,-0.01,0.0,0.0
1777734498.0924823,-8.86,0.07,-1.42,0.006,-0.237,9.812,0.0,-0.01,-0.01
1777734498.1016145,-8.86,0.07,-1.42,0.008,-0.243,9.812,0.0,-0.01,0.0
1777734498.1128232,-8.86,0.07,-1.42,0.011,-0.242,9.812,0.0,-0.01,0.0
1777734498.1228414,-8.86,0.07,-1.42,0.008,-0.242,9.812,0.0,0.0,-0.01
1777734498.1316211,-8.86,0.07,-1.42,0.008,-0.243,9.812,0.0,0.0,-0.01
1777734498.1424427,-8.86,0.07,-1.42,0.008,-0.236,9.812,0.0,0.0,-0.01
1777734498.1516552,-8.86,0.07,-1.42,0.006,-0.24,9.812,0.0,0.0,-0.01
1777734498.162477,-8.86,0.07,-1.42,0.008,-0.234,9.812,0.0,0.0,0.0
1777734498.171655,-8.86,0.07,-1.42,0.008,-0.232,9.812,0.0,0.0,0.0
1777734498.1824367,-8.86,0.07,-1.42,0.013,-0.236,9.812,0.0,0.0,0.0
1777734498.1916661,-8.86,0.07,-1.42,0.014,-0.241,9.812,-0.01,0.0,-0.01
1777734498.2020216,-8.86,0.07,-1.42,0.012,-0.244,9.812,-0.01,0.0,-0.01
1777734498.2116094,-8.86,0.07,-1.42,0.013,-0.245,9.812,-0.01,0.0,-0.01
1777734498.2224772,-8.86,0.07,-1.42,0.017,-0.244,9.812,-0.01,-0.01,0.0
1777734498.2317147,-8.86,0.07,-1.42,0.019,-0.241,9.812,0.0,0.0,0.0
1777734498.241639,-8.86,0.07,-1.42,0.018,-0.237,9.812,0.0,-0.01,-0.01
1777734498.2516577,-8.86,0.07,-1.42,0.018,-0.237,9.812,-0.01,0.0,-0.01
1777734498.2616684,-8.86,0.07,-1.42,0.018,-0.241,9.812,0.0,0.0,-0.01
1777734498.2716892,-8.86,0.07,-1.42,0.018,-0.25,9.812,0.0,-0.01,-0.01
1777734498.2816553,-8.86,0.07,-1.42,0.016,-0.249,9.812,0.0,0.0,-0.01
1777734498.2916436,-8.86,0.07,-1.42,0.02,-0.243,9.812,0.0,-0.01,0.0
1777734498.3016663,-8.86,0.07,-1.42,0.024,-0.245,9.812,0.0,0.0,-0.01
1777734498.3116498,-8.86,0.07,-1.42,0.022,-0.245,9.812,0.0,-0.01,-0.01
1777734498.3216617,-8.86,0.07,-1.42,0.017,-0.247,9.812,0.0,0.0,-0.01
1777734498.3316815,-8.86,0.07,-1.42,0.018,-0.242,9.812,0.0,-0.01,0.0
1777734498.34179,-8.86,0.07,-1.42,0.02,-0.236,9.812,0.0,0.0,0.0
1777734498.3525925,-8.86,0.07,-1.42,0.023,-0.238,9.812,0.0,-0.01,0.0
1777734498.3616507,-8.86,0.07,-1.42,0.026,-0.241,9.812,-0.01,0.0,0.0
1777734498.3716617,-8.86,0.07,-1.42,0.024,-0.243,9.812,0.0,0.0,0.0
1777734498.3816378,-8.86,0.07,-1.42,0.025,-0.238,9.812,0.0,0.0,-0.01
1777734498.3916845,-8.86,0.07,-1.42,0.017,-0.234,9.812,0.0,-0.01,0.0
1777734498.4016073,-8.86,0.07,-1.42,0.01,-0.237,9.812,0.0,0.0,0.0
1777734498.4116287,-8.86,0.07,-1.42,0.014,-0.247,9.812,-0.01,0.0,-0.01
1777734498.421621,-8.86,0.07,-1.42,0.012,-0.25,9.812,-0.01,-0.01,-0.01
1777734498.4316318,-8.87,0.07,-1.42,0.011,-0.254,9.812,0.0,-0.01,0.0
1777734498.441624,-8.87,0.07,-1.42,0.01,-0.245,9.812,0.0,-0.01,0.0
1777734498.451626,-8.87,0.07,-1.42,0.014,-0.248,9.812,0.0,-0.01,0.0
1777734498.461596,-8.87,0.07,-1.42,0.017,-0.237,9.812,0.0,0.0,0.0
1777734498.4715977,-8.87,0.07,-1.42,0.011,-0.237,9.812,0.0,0.0,-0.01
1777734498.481645,-8.87,0.07,-1.42,0.005,-0.236,9.812,0.0,-0.01,-0.01
1777734498.4916553,-8.86,0.07,-1.42,0.0,-0.24,9.812,-0.01,-0.01,-0.01
1777734498.5016286,-8.87,0.07,-1.42,0.004,-0.245,9.812,0.0,-0.01,-0.01
1777734498.51162,-8.87,0.07,-1.42,0.005,-0.244,9.812,-0.01,0.0,-0.01
1777734498.5216553,-8.87,0.07,-1.42,0.007,-0.24,9.812,0.0,0.0,-0.01
1777734498.5316432,-8.86,0.07,-1.42,0.011,-0.241,9.812,0.0,-0.01,-0.01
1777734498.5416174,-8.87,0.07,-1.42,0.013,-0.241,9.812,0.0,-0.01,-0.01
1777734498.5516365,-8.87,0.07,-1.42,0.01,-0.24,9.812,0.0,0.0,0.0
1777734498.5616348,-8.87,0.07,-1.42,0.012,-0.235,9.812,0.0,-0.01,-0.01
1777734498.5716012,-8.87,0.07,-1.42,0.012,-0.235,9.812,0.0,-0.01,0.0
1777734498.5816221,-8.87,0.07,-1.42,0.014,-0.235,9.812,0.0,-0.01,0.0
1777734498.5916505,-8.87,0.07,-1.42,0.012,-0.237,9.812,-0.01,0.0,-0.01
1777734498.601626,-8.86,0.07,-1.42,0.016,-0.243,9.812,-0.01,-0.01,-0.01
1777734498.6116467,-8.86,0.07,-1.42,0.014,-0.241,9.812,0.0,-0.01,-0.01
1777734498.6216235,-8.86,0.07,-1.42,0.011,-0.25,9.812,-0.01,-0.01,-0.01
1777734498.6316679,-8.86,0.07,-1.42,0.016,-0.25,9.812,0.0,-0.01,-0.01
1777734498.641638,-8.86,0.07,-1.42,0.018,-0.25,9.812,0.0,0.0,0.0
1777734498.6516256,-8.86,0.07,-1.42,0.018,-0.244,9.812,0.0,0.0,-0.01
1777734498.6616573,-8.86,0.08,-1.42,0.02,-0.234,9.812,-0.01,0.0,0.0
1777734498.671642,-8.86,0.07,-1.42,0.023,-0.234,9.812,0.0,-0.01,-0.01
1777734498.6816561,-8.86,0.08,-1.42,0.019,-0.235,9.812,-0.01,0.0,-0.01
1777734498.6916375,-8.86,0.08,-1.42,0.016,-0.241,9.812,0.0,0.0,-0.01
1777734498.7016468,-8.86,0.08,-1.42,0.011,-0.243,9.812,-0.01,-0.01,-0.01
1777734498.7117596,-8.86,0.08,-1.42,0.006,-0.25,9.812,0.0,-0.01,-0.01
1777734498.7216642,-8.86,0.07,-1.42,0.012,-0.251,9.812,0.0,-0.01,0.0
1777734498.7316313,-8.86,0.08,-1.42,0.007,-0.251,9.812,0.0,0.0,-0.01
1777734498.7416413,-8.86,0.08,-1.42,0.01,-0.249,9.812,-0.01,-0.01,-0.01
1777734498.7516658,-8.86,0.08,-1.42,0.011,-0.245,9.812,0.0,-0.01,0.0
1777734498.7616553,-8.86,0.08,-1.42,0.01,-0.232,9.812,0.0,-0.01,-0.01
1777734498.7716734,-8.86,0.08,-1.42,0.007,-0.23,9.812,0.0,-0.01,-0.01
1777734498.781646,-8.86,0.08,-1.42,0.006,-0.225,9.812,0.0,-0.01,-0.01
1777734498.7916684,-8.86,0.08,-1.42,0.004,-0.23,9.812,-0.01,0.0,0.0
1777734498.801656,-8.86,0.08,-1.42,0.008,-0.234,9.812,0.0,-0.01,-0.01
1777734498.8116498,-8.86,0.08,-1.42,0.013,-0.24,9.812,0.0,-0.01,-0.01
1777734498.8216274,-8.86,0.08,-1.42,0.016,-0.243,9.812,-0.01,0.0,-0.01
1777734498.831682,-8.86,0.08,-1.42,0.011,-0.249,9.812,-0.01,-0.01,0.0
1777734498.8416662,-8.86,0.08,-1.42,0.019,-0.245,9.812,-0.01,0.0,-0.01
1777734498.8516448,-8.86,0.08,-1.42,0.014,-0.244,9.812,0.0,0.0,0.0
1777734498.8616748,-8.86,0.08,-1.42,0.016,-0.236,9.812,0.0,-0.01,0.0
1777734498.8716514,-8.86,0.08,-1.42,0.017,-0.236,9.812,0.0,0.0,-0.01
1777734498.8816323,-8.86,0.08,-1.42,0.017,-0.236,9.812,0.0,0.0,-0.01
1777734498.8916488,-8.86,0.08,-1.42,0.013,-0.236,9.812,-0.01,0.0,-0.01
1777734498.9016306,-8.86,0.08,-1.42,0.011,-0.242,9.812,0.0,0.0,0.0
1777734498.911636,-8.86,0.08,-1.42,0.008,-0.245,9.812,0.0,0.0,-0.01
1777734498.9216673,-8.86,0.07,-1.42,0.008,-0.251,9.812,0.0,-0.01,-0.01
1777734498.9316995,-8.86,0.07,-1.42,0.011,-0.254,9.812,-0.01,-0.01,-0.01
1777734498.9416487,-8.86,0.07,-1.42,0.006,-0.256,9.812,0.0,0.0,-0.01
1777734498.9516313,-8.86,0.07,-1.42,0.002,-0.25,9.812,0.0,-0.01,0.0
1777734498.9616716,-8.86,0.07,-1.42,0.004,-0.248,9.812,0.0,-0.01,0.0
1777734498.9719326,-8.86,0.07,-1.42,0.011,-0.237,9.812,-0.01,-0.01,-0.01
1777734498.9816566,-8.86,0.07,-1.42,0.01,-0.24,9.812,0.0,-0.01,-0.01
1777734498.9916432,-8.86,0.07,-1.42,0.008,-0.242,9.812,0.0,0.0,-0.01
1777734499.0008469,-8.86,0.07,-1.42,0.01,-0.247,9.812,-0.01,0.0,-0.01
1777734499.0116751,-8.86,0.08,-1.42,0.013,-0.249,9.812,0.0,0.0,-0.01
1777734499.0208478,-8.86,0.08,-1.42,0.017,-0.249,9.812,0.0,-0.01,0.0
1777734499.0316896,-8.86,0.08,-1.42,0.017,-0.248,9.812,0.0,0.0,0.0
1777734499.0408554,-8.86,0.08,-1.42,0.017,-0.244,9.812,0.0,0.0,0.0
1777734499.0508099,-8.86,0.08,-1.42,0.016,-0.241,9.812,0.0,-0.01,-0.01
1777734499.0616608,-8.86,0.08,-1.42,0.013,-0.241,9.812,0.0,0.0,-0.01
1777734499.0720353,-8.86,0.08,-1.42,0.019,-0.24,9.812,-0.01,-0.01,-0.01
1777734499.080861,-8.86,0.08,-1.42,0.018,-0.238,9.812,0.0,-0.01,-0.01
1777734499.0907965,-8.86,0.08,-1.42,0.013,-0.236,9.812,0.0,-0.01,0.0
1777734499.1016665,-8.86,0.08,-1.42,0.011,-0.24,9.812,0.0,-0.01,0.0
1777734499.1108842,-8.86,0.08,-1.42,0.008,-0.236,9.812,0.0,0.0,-0.01
1777734499.1208358,-8.86,0.08,-1.42,0.006,-0.241,9.812,0.0,0.0,-0.01
1777734499.1308188,-8.86,0.08,-1.42,0.004,-0.232,9.812,0.0,-0.01,-0.01
1777734499.140799,-8.86,0.07,-1.42,0.01,-0.241,9.812,0.0,0.0,0.0
1777734499.1508794,-8.86,0.07,-1.42,0.008,-0.234,9.812,0.0,0.0,-0.01
1777734499.1614258,-8.86,0.07,-1.42,0.01,-0.236,9.812,-0.01,0.0,0.0
1777734499.1708221,-8.86,0.07,-1.42,0.007,-0.235,9.812,0.0,0.0,0.0
1777734499.1808476,-8.86,0.07,-1.42,0.007,-0.234,9.812,-0.01,0.0,-0.01
1777734499.1907856,-8.86,0.07,-1.42,0.004,-0.244,9.812,0.0,0.0,-0.01
1777734499.2007728,-8.86,0.07,-1.42,0.005,-0.244,9.812,-0.01,-0.01,-0.01
1777734499.2108176,-8.86,0.07,-1.42,0.005,-0.249,9.812,0.0,0.0,-0.01
1777734499.220835,-8.86,0.07,-1.42,0.005,-0.247,9.812,-0.01,-0.01,0.0
1777734499.2307932,-8.86,0.07,-1.42,-0.001,-0.247,9.812,-0.01,0.0,0.0
1777734499.2408414,-8.86,0.07,-1.42,0.002,-0.242,9.812,0.0,-0.01,0.0
1777734499.2507977,-8.86,0.07,-1.42,0.001,-0.238,9.812,0.0,0.0,-0.01
1777734499.260798,-8.86,0.07,-1.42,0.001,-0.24,9.812,0.0,0.0,-0.01
1777734499.2708013,-8.86,0.07,-1.42,0.008,-0.245,9.812,-0.01,0.0,-0.01
1777734499.2808027,-8.86,0.07,-1.42,0.013,-0.247,9.812,0.0,0.0,0.0
1777734499.290846,-8.86,0.07,-1.42,0.012,-0.25,9.812,0.0,0.0,0.0
1777734499.3008149,-8.86,0.07,-1.42,0.016,-0.248,9.812,-0.01,-0.01,-0.01
1777734499.3108106,-8.86,0.07,-1.42,0.013,-0.249,9.812,0.0,-0.01,-0.01
1777734499.3208163,-8.86,0.07,-1.42,0.01,-0.249,9.812,0.0,0.0,-0.01
1777734499.3308144,-8.86,0.07,-1.42,0.008,-0.247,9.812,-0.01,-0.01,-0.01
1777734499.3407984,-8.86,0.07,-1.42,0.01,-0.24,9.812,0.0,0.0,0.0
1777734499.350913,-8.87,0.07,-1.42,0.006,-0.238,9.812,0.0,-0.01,0.0
1777734499.3608427,-8.87,0.07,-1.42,0.006,-0.236,9.812,0.0,0.0,0.0
1777734499.3708122,-8.87,0.07,-1.42,0.008,-0.238,9.812,-0.01,-0.01,0.0
1777734499.3808205,-8.87,0.07,-1.42,0.01,-0.242,9.812,-0.01,-0.01,-0.01
1777734499.39081,-8.87,0.07,-1.42,0.011,-0.247,9.812,0.0,0.0,-0.01
1777734499.4007998,-8.87,0.07,-1.42,0.008,-0.248,9.812,-0.01,-0.01,-0.01
1777734499.4108107,-8.87,0.07,-1.42,0.006,-0.249,9.812,0.0,-0.01,0.0
1777734499.4207764,-8.87,0.07,-1.42,0.008,-0.245,9.812,0.0,0.0,0.0
1777734499.430851,-8.87,0.07,-1.42,0.011,-0.244,9.812,-0.01,-0.01,0.0
1777734499.440836,-8.87,0.07,-1.42,0.01,-0.244,9.812,0.0,-0.01,-0.01
1777734499.450786,-8.87,0.07,-1.42,0.011,-0.24,9.812,0.0,0.0,-0.01
1777734499.4608345,-8.87,0.07,-1.42,0.013,-0.238,9.812,0.0,0.0,-0.01
1777734499.4709473,-8.87,0.07,-1.42,0.012,-0.243,9.812,0.0,-0.01,-0.01
1777734499.4808412,-8.87,0.07,-1.42,0.008,-0.244,9.812,0.0,0.0,0.0
1777734499.4908338,-8.87,0.07,-1.42,0.007,-0.243,9.812,0.0,0.0,0.0
1777734499.5008302,-8.87,0.07,-1.42,0.005,-0.244,9.812,-0.01,0.0,-0.01
1777734499.5108798,-8.87,0.07,-1.42,0.011,-0.249,9.812,-0.01,-0.01,-0.01
1777734499.5208285,-8.87,0.07,-1.42,0.007,-0.251,9.812,0.0,0.0,-0.01
1777734499.5308254,-8.87,0.07,-1.42,0.004,-0.248,9.812,0.0,0.0,-0.01
1777734499.5408366,-8.87,0.07,-1.42,0.006,-0.248,9.812,0.0,-0.01,-0.01
1777734499.5508506,-8.87,0.07,-1.42,0.004,-0.245,9.812,0.0,-0.01,-0.01
1777734499.5608253,-8.87,0.07,-1.42,0.007,-0.24,9.812,-0.01,-0.01,-0.01
1777734499.5708435,-8.87,0.07,-1.42,0.011,-0.237,9.812,0.0,0.0,-0.01
1777734499.580848,-8.87,0.07,-1.42,0.014,-0.242,9.812,-0.01,-0.01,-0.01
1777734499.590848,-8.87,0.07,-1.42,0.014,-0.242,9.812,0.0,0.0,-0.01
1777734499.6008186,-8.87,0.07,-1.42,0.016,-0.244,9.812,-0.01,0.0,-0.01
1777734499.6108894,-8.87,0.07,-1.42,0.014,-0.247,9.812,-0.01,0.0,-0.01
1777734499.620894,-8.87,0.06,-1.43,0.011,-0.243,9.812,0.0,0.0,-0.01
1777734499.630847,-8.87,0.06,-1.43,0.006,-0.238,9.812,0.0,0.0,0.0
1777734499.6408517,-8.87,0.06,-1.43,0.006,-0.238,9.812,0.0,0.0,-0.01
1777734499.6508517,-8.87,0.06,-1.43,0.01,-0.235,9.812,-0.01,-0.01,-0.01
1777734499.660845,-8.86,0.07,-1.42,0.007,-0.236,9.812,0.0,0.0,-0.01
1777734499.6708043,-8.87,0.07,-1.42,0.007,-0.236,9.812,0.0,-0.01,-0.01
1777734499.6808407,-8.87,0.07,-1.42,0.011,-0.24,9.812,0.0,-0.01,0.0
1777734499.6908402,-8.87,0.07,-1.42,0.016,-0.24,9.812,0.0,-0.01,-0.01
1777734499.7008889,-8.87,0.07,-1.42,0.01,-0.255,9.812,0.0,0.0,0.0
1777734499.7108169,-8.87,0.06,-1.43,0.008,-0.251,9.812,0.0,0.0,0.0
1777734499.7208612,-8.87,0.06,-1.43,0.011,-0.253,9.812,0.0,-0.01,0.0
1777734499.7308836,-8.87,0.07,-1.42,0.011,-0.248,9.812,0.0,0.0,0.0
1777734499.740861,-8.87,0.07,-1.42,0.0,-0.25,9.812,0.0,0.0,0.0
1777734499.7508225,-8.87,0.07,-1.42,0.004,-0.241,9.812,0.0,-0.01,-0.01
1777734499.7608194,-8.87,0.07,-1.42,-0.002,-0.244,9.812,0.0,-0.01,-0.01
1777734499.770899,-8.87,0.07,-1.42,0.004,-0.24,9.812,-0.01,-0.01,-0.01
1777734499.780805,-8.87,0.07,-1.42,0.004,-0.244,9.812,-0.01,-0.01,-0.01
1777734499.7908401,-8.87,0.07,-1.42,0.007,-0.247,9.812,0.0,-0.01,-0.01
1777734499.8008451,-8.87,0.06,-1.43,0.007,-0.238,9.812,0.0,-0.01,-0.01
1777734499.8108745,-8.87,0.06,-1.43,0.01,-0.241,9.812,0.0,-0.01,-0.01
1777734499.8200142,-8.87,0.06,-1.43,0.008,-0.238,9.812,-0.01,0.0,-0.01
1777734499.830831,-8.87,0.07,-1.42,0.004,-0.24,9.812,0.0,0.0,0.0
1777734499.8408775,-8.87,0.07,-1.42,0.002,-0.237,9.812,0.0,0.0,0.0
1777734499.8508403,-8.87,0.07,-1.42,0.002,-0.235,9.812,-0.01,0.0,0.0
1777734499.8600187,-8.87,0.07,-1.42,-0.002,-0.228,9.812,0.0,-0.01,0.0
1777734499.8708878,-8.87,0.07,-1.42,-0.001,-0.231,9.812,0.0,-0.01,-0.01
1777734499.8808584,-8.87,0.07,-1.42,0.005,-0.238,9.812,-0.01,0.0,-0.01
1777734499.8908298,-8.87,0.07,-1.42,0.013,-0.241,9.812,0.0,-0.01,-0.01
1777734499.9000406,-8.87,0.07,-1.42,0.013,-0.24,9.812,0.0,-0.01,-0.01
1777734499.910017,-8.87,0.07,-1.42,0.013,-0.234,9.812,0.0,-0.01,-0.01
1777734499.920884,-8.87,0.07,-1.42,0.014,-0.241,9.812,0.0,0.0,-0.01
1777734499.9300299,-8.87,0.07,-1.42,0.008,-0.241,9.812,0.0,-0.01,-0.01
1777734499.9400036,-8.87,0.07,-1.42,0.007,-0.247,9.812,-0.01,-0.01,-0.01
1777734499.9508781,-8.87,0.07,-1.42,0.001,-0.247,9.812,0.0,0.0,-0.01
1777734499.9600291,-8.87,0.07,-1.42,0.0,-0.241,9.812,0.0,0.0,0.0
1777734499.9708304,-8.87,0.07,-1.42,0.005,-0.241,9.812,0.0,-0.01,0.0
1777734499.9800174,-8.87,0.07,-1.42,0.008,-0.241,9.812,-0.01,-0.01,0.0
1777734499.9900334,-8.87,0.07,-1.42,0.011,-0.249,9.812,0.0,0.0,-0.01
1777734500.0000277,-8.87,0.07,-1.42,0.008,-0.251,9.812,0.0,-0.01,-0.01
1777734500.0100245,-8.87,0.07,-1.42,0.011,-0.249,9.812,0.0,-0.01,-0.01
1777734500.0200286,-8.87,0.07,-1.42,0.016,-0.247,9.812,-0.01,-0.01,-0.01
1777734500.030007,-8.87,0.07,-1.42,0.017,-0.243,9.812,0.0,-0.01,0.0
1777734500.0400078,-8.87,0.07,-1.42,0.016,-0.238,9.812,0.0,0.0,0.0
1777734500.0499828,-8.87,0.07,-1.42,0.012,-0.236,9.812,0.0,-0.01,0.0
1777734500.0600295,-8.87,0.07,-1.42,0.016,-0.236,9.812,0.0,-0.01,-0.01
1777734500.070031,-8.87,0.07,-1.42,0.01,-0.237,9.812,0.0,0.0,-0.01
1777734500.0799994,-8.87,0.07,-1.42,0.005,-0.247,9.812,0.0,-0.01,-0.01
1777734500.0899746,-8.87,0.07,-1.42,0.005,-0.251,9.812,-0.01,0.0,-0.01
1777734500.1000018,-8.87,0.06,-1.43,0.0,-0.25,9.812,-0.01,0.0,0.0
1777734500.1099799,-8.87,0.06,-1.43,0.0,-0.248,9.812,0.0,-0.01,0.0
1777734500.120017,-8.87,0.07,-1.42,0.002,-0.248,9.812,0.0,-0.01,0.0
1777734500.1299994,-8.87,0.07,-1.42,0.002,-0.242,9.812,0.0,0.0,-0.01
1777734500.139967,-8.87,0.07,-1.42,0.0,-0.238,9.812,0.0,-0.01,-0.01
1777734500.1500165,-8.87,0.07,-1.42,0.002,-0.243,9.812,0.0,-0.01,-0.01
1777734500.1600385,-8.87,0.07,-1.42,0.011,-0.249,9.812,0.0,-0.01,-0.01
1777734500.169993,-8.87,0.07,-1.42,0.016,-0.247,9.812,-0.01,0.0,0.0
1777734500.180028,-8.88,0.06,-1.43,0.023,-0.251,9.812,0.0,0.0,0.0
1777734500.1899977,-8.88,0.06,-1.43,0.019,-0.243,9.812,0.0,-0.01,0.0
1777734500.1999862,-8.87,0.06,-1.43,0.017,-0.242,9.812,-0.01,0.0,-0.01
1777734500.2102864,-8.87,0.07,-1.42,0.007,-0.243,9.812,0.0,0.0,-0.01
1777734500.2200077,-8.87,0.06,-1.43,0.007,-0.243,9.812,0.0,-0.01,-0.01
1777734500.2300105,-8.87,0.06,-1.43,0.002,-0.238,9.812,-0.01,-0.01,-0.01
1777734500.239991,-8.87,0.06,-1.43,0.006,-0.238,9.812,0.0,-0.01,0.0
1777734500.2499955,-8.87,0.06,-1.43,0.011,-0.237,9.812,0.0,-0.01,0.0
1777734500.2599983,-8.87,0.07,-1.42,0.016,-0.242,9.812,-0.01,-0.01,-0.01
1777734500.2700062,-8.87,0.07,-1.42,0.023,-0.244,9.812,0.0,-0.01,-0.01
1777734500.2799954,-8.87,0.07,-1.42,0.018,-0.241,9.812,0.0,-0.01,-0.01
1777734500.2900224,-8.87,0.07,-1.42,0.016,-0.237,9.812,0.0,-0.01,-0.01
1777734500.2999778,-8.87,0.07,-1.42,0.018,-0.235,9.812,-0.01,-0.01,0.0
1777734500.3100226,-8.87,0.07,-1.42,0.017,-0.23,9.812,0.0,-0.01,0.0
1777734500.3199806,-8.87,0.07,-1.42,0.014,-0.232,9.812,0.0,0.0,0.0
1777734500.3299837,-8.87,0.07,-1.42,0.013,-0.235,9.812,-0.01,0.0,-0.01
1777734500.33999,-8.87,0.07,-1.42,0.012,-0.24,9.812,0.0,-0.01,-0.01
1777734500.3501515,-8.87,0.07,-1.42,0.007,-0.24,9.812,-0.01,-0.01,-0.01
1777734500.3599985,-8.87,0.07,-1.42,0.01,-0.245,9.812,0.0,-0.01,-0.01
1777734500.3700318,-8.87,0.07,-1.42,0.012,-0.249,9.812,-0.01,-0.01,0.0
1777734500.380013,-8.87,0.07,-1.42,0.011,-0.248,9.812,0.0,-0.01,0.0
1777734500.3903599,-8.87,0.07,-1.42,0.012,-0.249,9.812,0.0,0.0,-0.01
1777734500.4000454,-8.87,0.07,-1.42,0.014,-0.249,9.812,0.0,-0.01,-0.01
1777734500.4100235,-8.87,0.07,-1.42,0.01,-0.249,9.812,0.0,0.0,-0.01
1777734500.4200208,-8.87,0.07,-1.43,0.002,-0.25,9.812,0.0,0.0,-0.01
1777734500.4300196,-8.87,0.07,-1.43,0.002,-0.245,9.812,-0.01,-0.01,0.0
1777734500.440025,-8.87,0.07,-1.43,0.004,-0.241,9.812,0.0,0.0,0.0
1777734500.450029,-8.87,0.07,-1.42,0.002,-0.236,9.812,0.0,0.0,0.0
1777734500.460029,-8.87,0.07,-1.42,0.005,-0.237,9.812,0.0,-0.01,-0.01
1777734500.4700313,-8.87,0.07,-1.42,0.011,-0.238,9.812,0.0,-0.01,-0.01
1777734500.4800334,-8.87,0.07,-1.42,0.014,-0.242,9.812,0.0,-0.01,-0.01
1777734500.4900196,-8.87,0.07,-1.42,0.014,-0.236,9.812,-0.01,-0.01,-0.01
1777734500.500038,-8.87,0.07,-1.42,0.016,-0.235,9.812,0.0,-0.01,0.0
1777734500.5100083,-8.87,0.07,-1.42,0.017,-0.231,9.812,0.0,0.0,0.0
1777734500.5200217,-8.87,0.07,-1.42,0.016,-0.234,9.812,-0.01,0.0,0.0
1777734500.5300174,-8.87,0.07,-1.42,0.014,-0.23,9.812,0.0,-0.01,-0.01
1777734500.540003,-8.87,0.07,-1.42,0.011,-0.231,9.812,0.0,-0.01,-0.01
1777734500.550013,-8.87,0.07,-1.42,0.012,-0.242,9.812,-0.01,-0.01,-0.01
1777734500.5600035,-8.87,0.07,-1.42,0.013,-0.244,9.812,-0.01,-0.01,-0.01
1777734500.5700154,-8.87,0.07,-1.42,0.012,-0.245,9.812,0.0,0.0,0.0
1777734500.5800123,-8.87,0.07,-1.42,0.013,-0.241,9.812,0.0,0.0,0.0
1777734500.5900488,-8.87,0.07,-1.42,0.016,-0.232,9.812,0.0,-0.01,-0.01
1777734500.60005,-8.87,0.07,-1.42,0.02,-0.232,9.812,-0.01,0.0,-0.01
1777734500.6100225,-8.87,0.07,-1.42,0.019,-0.234,9.812,0.0,0.0,-0.01
1777734500.6200142,-8.87,0.07,-1.42,0.016,-0.24,9.812,0.0,0.0,-0.01
1777734500.6300251,-8.87,0.08,-1.42,0.017,-0.243,9.812,0.0,-0.01,-0.01
1777734500.6400878,-8.87,0.08,-1.42,0.016,-0.242,9.812,0.0,-0.01,-0.01
1777734500.650003,-8.87,0.07,-1.42,0.014,-0.242,9.812,0.0,0.0,0.0
1777734500.6600041,-8.87,0.08,-1.42,0.012,-0.247,9.812,-0.01,0.0,-0.01
1777734500.6700313,-8.87,0.08,-1.42,0.012,-0.242,9.812,0.0,-0.01,-0.01
1777734500.6800203,-8.87,0.08,-1.42,0.014,-0.24,9.812,0.0,-0.01,-0.01
1777734500.6900506,-8.87,0.08,-1.42,0.013,-0.236,9.812,-0.01,-0.01,0.0
1777734500.6991444,-8.87,0.08,-1.42,0.011,-0.238,9.812,0.0,0.0,-0.01
1777734500.710065,-8.87,0.08,-1.42,0.007,-0.237,9.812,0.0,0.0,-0.01
1777734500.7191591,-8.87,0.07,-1.42,0.007,-0.234,9.812,0.0,0.0,-0.01
1777734500.7300684,-8.87,0.07,-1.42,0.004,-0.24,9.812,0.0,-0.01,-0.01
1777734500.7400517,-8.87,0.07,-1.42,0.001,-0.237,9.812,0.0,0.0,-0.01
1777734500.7491753,-8.87,0.07,-1.42,0.006,-0.237,9.812,-0.01,-0.01,-0.01
1777734500.759185,-8.87,0.07,-1.42,0.008,-0.24,9.812,-0.01,-0.01,-0.01
1777734500.770025,-8.87,0.07,-1.42,0.01,-0.241,9.812,0.0,0.0,0.0
1777734500.779269,-8.87,0.08,-1.42,0.013,-0.234,9.812,0.0,0.0,0.0
1777734500.7900593,-8.87,0.08,-1.42,0.012,-0.232,9.812,-0.01,-0.01,-0.01
1777734500.800052,-8.87,0.08,-1.42,0.012,-0.232,9.812,0.0,-0.01,-0.01
1777734500.8100421,-8.87,0.08,-1.42,0.012,-0.234,9.812,0.0,-0.01,-0.01
1777734500.8192239,-8.87,0.08,-1.42,0.016,-0.238,9.812,0.0,0.0,-0.01
1777734500.829166,-8.87,0.08,-1.42,0.013,-0.242,9.812,0.0,0.0,0.0
1777734500.8391438,-8.87,0.08,-1.42,0.011,-0.241,9.812,0.0,0.0,0.0
1777734500.8494055,-8.87,0.07,-1.42,0.01,-0.236,9.812,-0.01,0.0,0.0
1777734500.8591552,-8.87,0.07,-1.42,0.01,-0.232,9.812,0.0,0.0,-0.01
1777734500.8691394,-8.87,0.07,-1.42,0.01,-0.232,9.812,0.0,-0.01,-0.01
1777734500.879176,-8.87,0.07,-1.42,0.017,-0.232,9.812,0.0,-0.01,-0.01
1777734500.8891668,-8.87,0.08,-1.42,0.014,-0.236,9.812,-0.01,0.0,-0.01
1777734500.8991823,-8.87,0.08,-1.42,0.013,-0.236,9.812,0.0,-0.01,-0.01
1777734500.9091644,-8.87,0.08,-1.42,0.017,-0.241,9.812,-0.01,-0.01,-0.01
1777734500.919151,-8.87,0.08,-1.42,0.02,-0.244,9.812,-0.01,0.0,-0.01
1777734500.9291596,-8.87,0.08,-1.42,0.014,-0.244,9.812,0.0,0.0,0.0
1777734500.9391336,-8.87,0.08,-1.42,0.014,-0.244,9.812,0.0,-0.01,0.0
1777734500.9491384,-8.88,0.08,-1.42,0.016,-0.238,9.812,0.0,0.0,0.0
1777734500.959136,-8.88,0.08,-1.42,0.013,-0.243,9.812,0.0,-0.01,0.0
1777734500.9691744,-8.87,0.08,-1.42,0.007,-0.236,9.812,0.0,0.0,0.0
1777734500.9791691,-8.87,0.07,-1.42,-0.002,-0.245,9.812,0.0,0.0,-0.01
1777734500.9891737,-8.87,0.07,-1.42,-0.001,-0.238,9.812,0.0,0.0,-0.01
1777734500.9991505,-8.87,0.07,-1.42,-0.002,-0.238,9.812,-0.01,-0.01,0.0
1777734501.009147,-8.88,0.07,-1.42,0.002,-0.24,9.812,0.0,-0.01,0.0
1777734501.0191722,-8.88,0.07,-1.42,0.008,-0.242,9.812,-0.01,-0.01,0.0
1777734501.0291514,-8.87,0.07,-1.42,0.008,-0.244,9.812,0.0,-0.01,-0.01
1777734501.039233,-8.87,0.08,-1.42,0.007,-0.249,9.812,0.0,-0.01,-0.01
1777734501.049139,-8.87,0.08,-1.42,0.01,-0.248,9.812,0.0,-0.01,-0.01
1777734501.059183,-8.87,0.08,-1.42,0.008,-0.251,9.812,0.0,-0.01,-0.01
1777734501.0691712,-8.87,0.07,-1.42,0.004,-0.248,9.812,0.0,0.0,0.0
1777734501.079172,-8.87,0.07,-1.42,0.0,-0.243,9.812,0.0,0.0,0.0
1777734501.0891888,-8.87,0.07,-1.42,0.002,-0.234,9.812,0.0,-0.01,0.0
1777734501.099303,-8.87,0.07,-1.42,0.002,-0.237,9.812,-0.01,0.0,-0.01
1777734501.1092002,-8.87,0.07,-1.42,0.004,-0.24,9.812,0.0,0.0,-0.01
1777734501.119216,-8.87,0.07,-1.42,0.005,-0.241,9.812,-0.01,-0.01,-0.01
1777734501.129225,-8.87,0.07,-1.42,0.008,-0.243,9.812,0.0,-0.01,-0.01
1777734501.139234,-8.87,0.07,-1.42,0.008,-0.242,9.812,-0.01,0.0,-0.01
1777734501.1491957,-8.87,0.07,-1.42,0.013,-0.241,9.812,-0.01,-0.01,0.0
1777734501.1592386,-8.87,0.07,-1.42,0.014,-0.243,9.812,0.0,-0.01,0.0
1777734501.169173,-8.87,0.07,-1.42,0.016,-0.234,9.812,0.0,0.0,-0.01
1777734501.1792023,-8.87,0.07,-1.42,0.008,-0.235,9.812,0.0,0.0,-0.01
1777734501.189205,-8.87,0.07,-1.42,0.01,-0.237,9.812,0.0,-0.01,-0.01
1777734501.1992242,-8.87,0.07,-1.42,0.006,-0.24,9.812,-0.01,0.0,-0.01
1777734501.2093349,-8.87,0.07,-1.42,0.007,-0.235,9.812,0.0,0.0,0.0
1777734501.2193487,-8.87,0.07,-1.42,0.006,-0.235,9.812,-0.01,-0.01,0.0
1777734501.22918,-8.87,0.07,-1.42,0.0,-0.229,9.812,0.0,0.0,-0.01
1777734501.2392025,-8.87,0.07,-1.42,0.0,-0.23,9.812,-0.01,0.0,-0.01
1777734501.2491875,-8.87,0.07,-1.42,0.004,-0.231,9.812,0.0,-0.01,-0.01
1777734501.2591925,-8.87,0.07,-1.42,0.002,-0.235,9.812,0.0,-0.01,-0.01
1777734501.2691844,-8.87,0.07,-1.41,0.005,-0.237,9.812,0.0,0.0,0.0
1777734501.2792766,-8.87,0.07,-1.41,0.014,-0.234,9.812,0.0,-0.01,0.0
1777734501.2892177,-8.87,0.07,-1.41,0.019,-0.237,9.812,0.0,-0.01,-0.01
1777734501.2992544,-8.87,0.07,-1.41,0.02,-0.238,9.812,0.0,0.0,-0.01
1777734501.3092043,-8.87,0.07,-1.42,0.02,-0.25,9.812,-0.01,-0.01,-0.01
1777734501.319224,-8.87,0.07,-1.42,0.016,-0.253,9.812,0.0,0.0,-0.01
1777734501.3292563,-8.87,0.07,-1.42,0.012,-0.249,9.812,0.0,0.0,0.0
1777734501.3392034,-8.87,0.07,-1.42,0.008,-0.241,9.812,-0.01,0.0,0.0
1777734501.349181,-8.87,0.07,-1.42,0.01,-0.232,9.812,0.0,0.0,0.0
1777734501.3631856,-8.87,0.07,-1.41,0.006,-0.229,9.812,0.0,0.0,0.0
1777734501.369213,-8.87,0.07,-1.41,0.004,-0.23,9.812,0.0,0.0,-0.01
1777734501.3791971,-8.87,0.07,-1.41,0.001,-0.234,9.812,-0.01,0.0,-0.01
1777734501.3891993,-8.87,0.07,-1.41,0.006,-0.236,9.812,-0.01,-0.01,-0.01
1777734501.3992193,-8.87,0.07,-1.41,0.013,-0.24,9.812,0.0,-0.01,-0.01
1777734501.4091966,-8.87,0.07,-1.41,0.017,-0.243,9.812,-0.01,-0.01,-0.01
1777734501.4210901,-8.87,0.08,-1.42,0.024,-0.254,9.812,0.0,-0.01,-0.01
1777734501.4331372,-8.87,0.08,-1.42,0.023,-0.251,9.812,0.0,0.0,-0.01
1777734501.4392834,-8.87,0.08,-1.42,0.022,-0.242,9.812,0.0,0.0,-0.01
1777734501.4492147,-8.87,0.08,-1.42,0.016,-0.237,9.812,0.0,-0.01,-0.01
1777734501.459248,-8.87,0.07,-1.41,0.01,-0.234,9.812,0.0,0.0,-0.01
1777734501.4692135,-8.87,0.08,-1.41,0.008,-0.234,9.812,0.0,0.0,0.0
1777734501.4792516,-8.87,0.07,-1.41,0.004,-0.234,9.812,0.0,-0.01,0.0
1777734501.489226,-8.87,0.07,-1.41,-0.002,-0.24,9.812,-0.01,-0.01,-0.01
1777734501.4992278,-8.87,0.07,-1.41,0.005,-0.236,9.812,0.0,0.0,-0.01
1777734501.5092065,-8.87,0.07,-1.41,0.011,-0.243,9.812,0.0,-0.01,-0.01
1777734501.5192091,-8.87,0.08,-1.41,0.012,-0.243,9.812,0.0,-0.01,-0.01
1777734501.5292196,-8.87,0.08,-1.41,0.017,-0.241,9.812,-0.01,0.0,-0.01
1777734501.5394166,-8.87,0.08,-1.42,0.013,-0.243,9.812,0.0,0.0,-0.01
1777734501.5492022,-8.87,0.07,-1.42,0.016,-0.241,9.812,-0.01,0.0,-0.01
1777734501.5596356,-8.87,0.07,-1.42,0.014,-0.237,9.812,0.0,0.0,0.0
1777734501.5683303,-8.87,0.07,-1.41,0.011,-0.238,9.812,0.0,-0.01,0.0
1777734501.579245,-8.87,0.07,-1.41,0.011,-0.231,9.812,0.0,0.0,-0.01
1777734501.5892324,-8.87,0.07,-1.41,0.012,-0.23,9.812,0.0,-0.01,-0.01
1777734501.599225,-8.87,0.07,-1.41,0.013,-0.235,9.812,-0.01,-0.01,-0.01
1777734501.6083248,-8.87,0.08,-1.41,0.01,-0.245,9.812,0.0,-0.01,-0.01
1777734501.6183343,-8.87,0.08,-1.41,0.012,-0.245,9.812,-0.01,-0.01,-0.01
1777734501.6283238,-8.87,0.08,-1.41,0.012,-0.25,9.812,0.0,-0.01,0.0
1777734501.6392336,-8.87,0.08,-1.42,0.014,-0.247,9.812,0.0,-0.01,-0.01
1777734501.6483595,-8.87,0.08,-1.42,0.008,-0.249,9.812,-0.01,-0.01,0.0
1777734501.659286,-8.87,0.08,-1.42,0.012,-0.245,9.812,0.0,0.0,0.0
1777734501.668405,-8.87,0.08,-1.42,0.011,-0.249,9.812,-0.01,0.0,0.0
1777734501.6783714,-8.87,0.08,-1.42,0.001,-0.244,9.812,0.0,-0.01,-0.01
1777734501.6892622,-8.87,0.07,-1.42,0.001,-0.243,9.812,0.0,-0.01,-0.01
1777734501.698366,-8.87,0.07,-1.42,0.0,-0.238,9.812,0.0,-0.01,-0.01
1777734501.7083488,-8.87,0.07,-1.41,0.005,-0.232,9.812,0.0,-0.01,-0.01
1777734501.7183652,-8.87,0.08,-1.41,0.007,-0.234,9.812,0.0,-0.01,-0.01
1777734501.7283635,-8.87,0.08,-1.41,0.013,-0.236,9.812,-0.01,-0.01,-0.01
1777734501.7383435,-8.87,0.08,-1.42,0.017,-0.242,9.812,-0.01,-0.01,0.0
1777734501.7483947,-8.87,0.08,-1.42,0.018,-0.244,9.812,-0.01,-0.01,-0.01
1777734501.7583823,-8.87,0.08,-1.42,0.011,-0.248,9.812,0.0,0.0,-0.01
1777734501.768344,-8.87,0.08,-1.42,0.008,-0.251,9.812,0.0,0.0,0.0
1777734501.7783496,-8.87,0.08,-1.42,0.006,-0.25,9.812,0.0,-0.01,-0.01
1777734501.7883775,-8.87,0.08,-1.42,0.01,-0.247,9.812,0.0,-0.01,-0.01
1777734501.798408,-8.87,0.08,-1.42,0.012,-0.241,9.812,-0.01,0.0,-0.01
1777734501.8084254,-8.87,0.08,-1.42,0.007,-0.244,9.812,-0.01,-0.01,-0.01
1777734501.8183584,-8.87,0.08,-1.42,0.01,-0.247,9.812,0.0,0.0,-0.01
1777734501.8283525,-8.87,0.08,-1.42,0.016,-0.243,9.812,-0.01,0.0,-0.01
1777734501.838421,-8.87,0.08,-1.42,0.018,-0.247,9.812,0.0,-0.01,-0.01
1777734501.8484192,-8.87,0.08,-1.42,0.018,-0.249,9.812,0.0,-0.01,-0.01
1777734501.8583794,-8.87,0.08,-1.42,0.019,-0.243,9.812,0.0,0.0,-0.01
1777734501.8683887,-8.87,0.08,-1.42,0.014,-0.241,9.812,0.0,0.0,-0.01
1777734501.87837,-8.86,0.08,-1.42,0.013,-0.238,9.812,0.0,0.0,-0.01
1777734501.888372,-8.86,0.08,-1.42,0.007,-0.236,9.812,-0.01,-0.01,-0.01
1777734501.89836,-8.87,0.08,-1.42,0.006,-0.232,9.812,0.0,-0.01,-0.01
1777734501.9083853,-8.87,0.08,-1.42,0.01,-0.23,9.812,0.0,-0.01,0.0
1777734501.9183638,-8.87,0.08,-1.42,0.016,-0.232,9.812,-0.01,-0.01,0.0
1777734501.9283557,-8.87,0.08,-1.42,0.02,-0.235,9.812,-0.01,-0.01,-0.01
1777734501.9383836,-8.87,0.08,-1.42,0.019,-0.242,9.812,-0.01,0.0,-0.01
1777734501.9483767,-8.87,0.08,-1.42,0.02,-0.241,9.812,0.0,0.0,-0.01
1777734501.9584002,-8.87,0.08,-1.42,0.02,-0.25,9.812,-0.01,0.0,-0.01
1777734501.9683893,-8.87,0.08,-1.42,0.008,-0.253,9.812,0.0,0.0,-0.01
1777734501.978364,-8.87,0.08,-1.42,0.008,-0.251,9.812,0.0,0.0,0.0
1777734501.9884238,-8.87,0.08,-1.42,0.008,-0.247,9.812,0.0,0.0,0.0
1777734501.9983628,-8.87,0.08,-1.42,0.016,-0.255,9.812,0.0,-0.01,0.0
1777734502.0083745,-8.87,0.08,-1.42,0.01,-0.25,9.812,0.0,0.0,0.0
1777734502.0183723,-8.87,0.08,-1.42,0.008,-0.245,9.812,0.0,0.0,-0.01
1777734502.0283616,-8.87,0.08,-1.42,0.001,-0.238,9.812,0.0,0.0,-0.01
1777734502.0383701,-8.87,0.08,-1.42,-0.005,-0.245,9.812,0.0,-0.01,-0.01
1777734502.0483716,-8.87,0.07,-1.42,-0.004,-0.24,9.812,0.0,0.0,-0.01
1777734502.0583937,-8.87,0.07,-1.42,-0.002,-0.243,9.812,-0.01,-0.01,-0.01
1777734502.0683792,-8.87,0.07,-1.42,0.004,-0.241,9.812,0.0,-0.01,-0.01
1777734502.0783744,-8.87,0.08,-1.42,0.01,-0.244,9.812,-0.01,-0.01,-0.01
1777734502.0885189,-8.87,0.08,-1.42,0.017,-0.243,9.812,0.0,0.0,-0.01
1777734502.098388,-8.87,0.08,-1.42,0.017,-0.243,9.812,0.0,0.0,-0.01
1777734502.1083736,-8.87,0.08,-1.42,0.02,-0.245,9.812,-0.01,-0.01,-0.01
1777734502.1183472,-8.87,0.08,-1.42,0.022,-0.238,9.812,-0.01,0.0,-0.01
1777734502.1283777,-8.87,0.08,-1.42,0.018,-0.235,9.812,0.0,0.0,0.0
1777734502.1383767,-8.87,0.08,-1.42,0.012,-0.238,9.812,0.0,0.0,0.0
1777734502.1483798,-8.87,0.08,-1.42,0.013,-0.24,9.812,0.0,-0.01,-0.01
1777734502.1583788,-8.87,0.08,-1.42,0.006,-0.243,9.812,0.0,-0.01,-0.01
1777734502.168378,-8.87,0.08,-1.42,0.005,-0.244,9.812,0.0,0.0,-0.01
1777734502.178377,-8.87,0.08,-1.42,0.004,-0.244,9.812,0.0,-0.01,-0.01
1777734502.1883788,-8.87,0.08,-1.42,0.005,-0.245,9.812,0.0,-0.01,0.0
1777734502.1983612,-8.87,0.08,-1.42,0.008,-0.244,9.812,-0.01,-0.01,-0.01
1777734502.2084472,-8.87,0.08,-1.42,0.012,-0.244,9.812,0.0,-0.01,-0.01
1777734502.2184205,-8.87,0.08,-1.42,0.019,-0.236,9.812,-0.01,-0.01,-0.01
1777734502.2284043,-8.87,0.08,-1.42,0.018,-0.238,9.812,-0.01,-0.01,-0.01
1777734502.238566,-8.87,0.08,-1.42,0.012,-0.24,9.812,0.0,-0.01,-0.01
1777734502.2483964,-8.87,0.08,-1.42,0.007,-0.238,9.812,0.0,0.0,-0.01
1777734502.2583861,-8.87,0.08,-1.42,0.007,-0.247,9.812,0.0,-0.01,-0.01
1777734502.268409,-8.87,0.08,-1.42,0.007,-0.248,9.812,0.0,0.0,-0.01
1777734502.2783785,-8.87,0.08,-1.42,0.005,-0.248,9.812,0.0,0.0,-0.01
1777734502.2884192,-8.87,0.08,-1.42,0.006,-0.247,9.812,-0.01,0.0,0.0
1777734502.2983928,-8.87,0.08,-1.42,0.011,-0.248,9.812,0.0,0.0,-0.01
1777734502.3086753,-8.87,0.08,-1.42,0.02,-0.242,9.812,-0.01,0.0,0.0
1777734502.3184774,-8.87,0.08,-1.42,0.023,-0.24,9.812,0.0,-0.01,-0.01
1777734502.328384,-8.87,0.08,-1.42,0.016,-0.236,9.812,0.0,-0.01,0.0
1777734502.3384109,-8.87,0.08,-1.42,0.012,-0.231,9.812,0.0,-0.01,0.0
1777734502.3484,-8.87,0.08,-1.42,0.018,-0.237,9.812,0.0,-0.01,-0.01
1777734502.3583996,-8.87,0.08,-1.42,0.02,-0.24,9.812,0.0,-0.01,-0.01
1777734502.368421,-8.87,0.08,-1.42,0.013,-0.242,9.812,0.0,0.0,-0.01
1777734502.378392,-8.87,0.08,-1.42,0.01,-0.244,9.812,0.0,0.0,-0.01
1777734502.3883748,-8.87,0.08,-1.42,0.006,-0.243,9.812,0.0,0.0,-0.01
1777734502.3983953,-8.87,0.08,-1.42,0.008,-0.238,9.812,0.0,-0.01,0.0
1777734502.4083748,-8.87,0.08,-1.42,0.007,-0.241,9.812,0.0,0.0,-0.01
1777734502.4189656,-8.87,0.08,-1.42,0.007,-0.247,9.812,0.0,0.0,-0.01
1777734502.4286432,-8.87,0.08,-1.42,0.013,-0.244,9.812,0.0,-0.01,-0.01
1777734502.4384303,-8.87,0.08,-1.42,0.012,-0.24,9.812,0.0,0.0,-0.01
1777734502.447507,-8.87,0.08,-1.42,0.013,-0.24,9.812,-0.01,0.0,-0.01
1777734502.4584398,-8.87,0.08,-1.42,0.013,-0.251,9.812,-0.01,-0.01,-0.01
1777734502.467533,-8.87,0.08,-1.42,0.016,-0.247,9.812,0.0,0.0,0.0
1777734502.4785078,-8.87,0.08,-1.42,0.017,-0.245,9.812,0.0,0.0,0.0
1777734502.487538,-8.87,0.08,-1.42,0.011,-0.243,9.812,0.0,-0.01,0.0
1777734502.498532,-8.87,0.08,-1.42,0.01,-0.238,9.812,0.0,0.0,-0.01
1777734502.5075505,-8.87,0.08,-1.42,0.001,-0.236,9.812,0.0,0.0,-0.01
1777734502.5175385,-8.87,0.08,-1.42,0.004,-0.238,9.812,-0.01,-0.01,-0.01
1777734502.528454,-8.87,0.08,-1.42,-0.004,-0.238,9.812,0.0,0.0,0.0
1777734502.5375674,-8.87,0.07,-1.42,0.0,-0.237,9.812,0.0,-0.01,-0.01
1777734502.5484598,-8.87,0.08,-1.42,0.006,-0.243,9.812,0.0,-0.01,0.0
1777734502.5575767,-8.87,0.08,-1.42,0.014,-0.244,9.812,-0.01,-0.01,-0.01
1777734502.567542,-8.87,0.08,-1.42,0.018,-0.25,9.812,0.0,0.0,-0.01
1777734502.577556,-8.87,0.08,-1.42,0.023,-0.25,9.812,-0.01,-0.01,-0.01
1777734502.587562,-8.87,0.08,-1.42,0.029,-0.253,9.812,0.0,-0.01,-0.01
1777734502.5975444,-8.87,0.08,-1.42,0.019,-0.25,9.812,0.0,0.0,-0.01
1777734502.607553,-8.87,0.08,-1.42,0.018,-0.248,9.812,-0.01,-0.01,-0.01
1777734502.61754,-8.87,0.08,-1.42,0.014,-0.244,9.812,0.0,0.0,0.0
1777734502.6278331,-8.87,0.08,-1.42,0.006,-0.241,9.812,-0.01,-0.01,0.0
1777734502.6375263,-8.87,0.08,-1.42,0.007,-0.234,9.812,-0.01,-0.01,0.0
1777734502.6487954,-8.87,0.08,-1.42,0.012,-0.23,9.812,-0.01,0.0,-0.01
1777734502.6575432,-8.87,0.08,-1.42,0.016,-0.236,9.812,0.0,-0.01,-0.01
1777734502.6675377,-8.87,0.08,-1.42,0.019,-0.247,9.812,0.0,0.0,-0.01
1777734502.67755,-8.87,0.08,-1.42,0.019,-0.254,9.812,-0.01,0.0,-0.01
1777734502.6875527,-8.87,0.08,-1.42,0.017,-0.248,9.812,0.0,0.0,-0.01
1777734502.6975849,-8.87,0.08,-1.42,0.01,-0.244,9.812,0.0,0.0,0.0
1777734502.7075891,-8.87,0.08,-1.42,0.006,-0.242,9.812,0.0,-0.01,0.0
1777734502.7175448,-8.87,0.08,-1.42,0.005,-0.238,9.812,-0.01,0.0,-0.01
1777734502.7275774,-8.87,0.08,-1.42,-0.01,-0.22,9.812,-0.01,0.0,-0.01
1777734502.737566,-8.87,0.06,-1.39,-0.123,-0.127,9.812,0.0,-0.01,-0.01
1777734502.7475612,-8.87,0.02,-1.31,-0.278,-0.147,9.811,0.01,0.0,0.0
1777734502.7575483,-8.88,-0.01,-1.24,-0.29,-0.268,9.811,0.05,0.01,0.0
1777734502.7675912,-8.86,0.05,-1.24,0.728,-1.298,9.81,0.03,-0.01,0.0
1777734502.7775557,-8.76,0.47,-1.69,-0.721,-1.766,9.812,-0.01,-0.05,-0.02
1777734502.7875657,-8.73,0.02,-2.12,-1.509,-1.195,9.816,-0.15,-0.13,-0.05
1777734502.7975597,-8.72,-0.53,-2.55,-0.789,-1.342,9.593,-0.2,0.12,-0.01
1777734502.8075883,-8.58,-0.59,-3.23,-0.81,-1.809,9.659,-0.23,0.2,-0.02
1777734502.8175588,-8.31,-0.71,-3.87,0.211,-0.402,6.673,-0.4,0.11,-0.1
1777734502.827553,-7.98,-0.14,-4.01,0.893,0.895,5.287,-0.33,-0.02,-0.18
1777734502.8375592,-7.8,0.04,-3.66,-0.156,1.236,6.009,-0.11,-0.21,-0.17
1777734502.8475633,-7.76,0.13,-3.16,-0.58,1.169,6.707,0.16,-0.09,-0.08
1777734502.857554,-7.7,0.17,-2.53,0.098,0.133,7.529,0.23,-0.05,-0.02
1777734502.8676007,-7.58,0.43,-2.29,-0.032,0.066,8.135,0.3,-0.05,-0.06
1777734502.8775795,-7.41,0.63,-2.07,0.107,-0.794,8.58,0.18,-0.11,-0.07
1777734502.8875802,-7.25,0.64,-2.34,-0.334,-1.017,8.908,0.08,-0.11,-0.11
1777734502.897815,-7.09,0.58,-2.62,0.04,-0.032,8.654,-0.1,0.0,-0.08
1777734502.907704,-6.93,0.81,-2.64,0.684,0.76,7.634,-0.21,0.01,-0.09
1777734502.917574,-6.85,0.99,-2.57,0.816,1.423,7.356,-0.09,-0.07,-0.08
1777734502.927577,-6.86,1.06,-2.33,0.644,1.751,8.007,-0.03,-0.07,-0.04
1777734502.9375865,-6.96,1.01,-2.18,1.236,1.454,8.311,0.06,0.0,0.02
1777734502.947605,-7.08,1.06,-2.07,1.025,1.136,8.708,0.02,0.02,0.05
1777734502.95757,-7.23,1.01,-2.1,0.643,0.787,9.003,0.02,0.01,0.06
1777734502.96758,-7.37,0.89,-2.11,0.541,0.866,9.218,-0.02,0.03,0.09
1777734502.977571,-7.43,0.82,-2.14,0.638,0.972,9.175,-0.04,0.05,0.06
1777734502.987612,-7.42,0.78,-2.14,0.248,0.974,8.968,-0.05,0.04,0.02
1777734502.9975722,-7.36,0.59,-2.19,-0.243,0.844,8.955,-0.05,0.02,-0.02
1777734503.007581,-7.27,0.4,-2.27,-0.332,0.715,9.093,-0.06,0.08,-0.04
1777734503.0176125,-7.2,0.32,-2.47,-0.098,0.417,9.287,-0.07,0.07,-0.06
1777734503.0276055,-7.19,0.18,-2.55,-0.486,0.223,9.428,-0.11,0.03,-0.04
1777734503.0376136,-7.26,0.06,-2.56,-0.444,0.108,9.532,-0.04,0.05,0.01
1777734503.047615,-7.34,0.03,-2.53,-0.455,-0.337,9.608,0.01,0.03,0.04
1777734503.0576553,-7.4,0.04,-2.6,-0.841,-0.582,9.663,0.02,-0.01,0.04
1777734503.0676045,-7.42,-0.03,-2.72,-1.126,-0.644,9.65,-0.02,-0.04,0.02
1777734503.0778723,-7.44,-0.07,-2.73,-1.059,-0.525,9.604,-0.06,-0.02,0.01
1777734503.0876052,-7.46,-0.02,-2.72,-0.853,-0.41,9.66,0.0,-0.02,0.01
1777734503.0976279,-7.49,0.02,-2.64,-0.732,-0.25,9.702,0.01,-0.05,0.01
1777734503.107624,-7.49,0.09,-2.52,-0.4,-0.107,9.732,0.03,-0.03,0.01
1777734503.1176002,-7.45,0.21,-2.4,-0.097,-0.09,9.754,0.04,-0.04,-0.02
1777734503.1276498,-7.37,0.32,-2.33,0.024,0.023,9.77,0.05,-0.06,-0.03
1777734503.137625,-7.28,0.42,-2.24,0.119,0.196,9.784,0.02,-0.04,-0.05
1777734503.1476328,-7.2,0.45,-2.14,0.249,0.211,9.791,0.03,-0.03,-0.05
1777734503.1576152,-7.14,0.47,-2.06,0.303,0.16,9.797,0.03,-0.01,-0.05
1777734503.1680043,-7.11,0.47,-2.0,0.339,0.205,9.802,0.02,0.01,-0.03
1777734503.1778634,-7.12,0.45,-1.93,0.483,0.213,9.805,0.02,0.01,-0.02
1777734503.1876197,-7.16,0.46,-1.89,0.43,0.222,9.808,0.02,0.02,0.01
1777734503.1976204,-7.23,0.44,-1.86,0.25,0.331,9.809,0.01,0.01,0.02
1777734503.2076285,-7.29,0.37,-1.85,0.172,0.436,9.811,-0.02,0.01,0.03
1777734503.2175798,-7.33,0.31,-1.82,0.056,0.616,9.811,-0.02,0.02,0.03
1777734503.227596,-7.37,0.25,-1.78,-0.028,0.732,9.811,-0.02,0.02,0.02
1777734503.2376127,-7.4,0.19,-1.7,-0.157,0.738,9.812,-0.02,0.02,0.02
1777734503.2475865,-7.51,0.06,-1.7,-0.48,0.614,9.812,-0.01,0.02,0.02
1777734503.257614,-7.58,0.03,-1.77,-0.335,0.416,9.812,-0.01,0.03,0.06
1777734503.2676485,-7.58,0.02,-1.83,-0.558,0.245,9.812,-0.05,0.0,0.02
1777734503.2776096,-7.54,-0.02,-1.95,-0.635,0.157,9.814,-0.05,-0.01,-0.02
1777734503.2876143,-7.49,-0.03,-2.03,-0.467,0.222,9.815,-0.06,-0.01,-0.03
1777734503.2976198,-7.41,-0.02,-2.05,-0.333,0.024,9.815,-0.04,-0.01,-0.03
1777734503.3076348,-7.29,0.02,-2.03,-0.451,-0.138,9.815,-0.02,-0.02,-0.05
1777734503.31765,-7.19,0.05,-2.0,-0.474,-0.49,9.815,0.02,-0.02,-0.07
1777734503.3267572,-7.11,0.08,-1.97,-0.301,-0.666,9.814,0.03,-0.03,-0.05
1777734503.3367574,-7.05,0.1,-1.97,-0.183,-0.827,9.815,0.04,-0.03,-0.05
1777734503.3467867,-7.02,0.12,-1.96,0.04,-0.672,9.815,0.02,-0.01,-0.03
1777734503.3576374,-7.02,0.19,-1.89,0.206,-0.35,9.815,0.02,0.0,-0.02
1777734503.3676245,-7.05,0.23,-1.78,0.123,-0.241,9.814,0.02,-0.02,0.0
1777734503.376798,-7.12,0.21,-1.7,0.098,-0.031,9.814,0.04,-0.02,0.02
1777734503.3868105,-7.21,0.19,-1.62,0.234,0.156,9.814,0.02,0.01,0.04
1777734503.3967772,-7.3,0.21,-1.55,0.219,0.29,9.812,0.02,0.01,0.05
1777734503.4076366,-7.39,0.19,-1.5,0.108,0.437,9.812,0.01,-0.01,0.05
1777734503.4168086,-7.46,0.15,-1.45,0.038,0.594,9.812,-0.01,0.0,0.05
1777734503.4268007,-7.49,0.11,-1.41,-0.032,0.722,9.812,-0.01,0.01,0.03
1777734503.436814,-7.47,0.08,-1.37,-0.074,0.777,9.812,-0.02,0.02,0.01
1777734503.4468055,-7.42,0.05,-1.36,-0.164,0.782,9.811,-0.02,0.01,-0.02
1777734503.4567983,-7.35,-0.0,-1.34,-0.243,0.713,9.811,-0.02,0.01,-0.04
1777734503.4668233,-7.26,-0.04,-1.34,-0.235,0.575,9.811,-0.02,0.01,-0.05
1777734503.4767935,-7.15,-0.05,-1.36,-0.23,0.316,9.812,-0.02,0.01,-0.05
1777734503.4868088,-7.08,-0.06,-1.42,-0.299,0.096,9.812,-0.02,-0.01,-0.06
1777734503.496813,-7.03,-0.07,-1.48,-0.259,-0.163,9.812,-0.03,-0.01,-0.05
1777734503.5068047,-7.03,-0.05,-1.55,-0.188,-0.376,9.812,-0.02,-0.01,-0.02
1777734503.5168045,-7.09,-0.03,-1.58,-0.12,-0.523,9.812,-0.02,-0.02,0.01
1777734503.5268075,-7.17,-0.0,-1.61,-0.067,-0.554,9.812,-0.01,-0.02,0.03
1777734503.5368567,-7.26,0.02,-1.61,-0.013,-0.469,9.812,-0.01,-0.02,0.05
1777734503.5468364,-7.33,0.04,-1.6,0.047,-0.311,9.814,0.0,-0.02,0.05
1777734503.5568094,-7.36,0.05,-1.57,0.091,-0.128,9.812,0.0,-0.01,0.03
1777734503.5670583,-7.36,0.06,-1.52,0.114,0.047,9.812,0.0,-0.01,0.01
1777734503.576864,-7.33,0.06,-1.45,0.113,0.174,9.811,0.01,0.0,-0.01
1777734503.5868235,-7.28,0.06,-1.39,0.091,0.244,9.812,0.01,0.0,-0.02
