timestamp,yaw,pitch,roll,accel_x,accel_y,accel_z,gyro_x,gyro_y,gyro_z
1776538046.619982,80.72,-0.94,-0.5,-0.158,-0.103,9.81,0.0,0.0,0.0
1776538046.6299284,80.72,-0.94,-0.5,-0.164,-0.103,9.81,0.0,-0.01,0.0
1776538046.6399052,80.72,-0.95,-0.5,-0.166,-0.11,9.81,0.0,-0.01,0.0
1776538046.6501288,80.72,-0.95,-0.5,-0.168,-0.108,9.81,-0.01,0.0,-0.01
1776538046.6598768,80.72,-0.95,-0.5,-0.174,-0.099,9.81,-0.01,-0.01,-0.01
1776538046.6698775,80.72,-0.94,-0.5,-0.168,-0.087,9.81,0.0,-0.01,0.0
1776538046.6798878,80.72,-0.94,-0.5,-0.165,-0.075,9.81,0.0,-0.01,0.0
1776538046.689866,80.72,-0.94,-0.49,-0.153,-0.073,9.81,0.0,-0.01,0.0
1776538046.699877,80.73,-0.92,-0.49,-0.301,-0.09,9.81,0.0,-0.01,-0.01
1776538046.7098956,80.75,-0.93,-0.49,-0.519,-0.154,9.81,0.0,-0.02,-0.01
1776538046.7198849,80.79,-0.93,-0.49,-0.702,-0.235,9.81,0.0,-0.02,-0.02
1776538046.7290106,80.83,-0.91,-0.49,-0.789,-0.311,9.81,0.01,-0.03,-0.02
1776538046.7398825,80.86,-0.87,-0.49,-0.71,-0.322,9.81,0.01,-0.04,-0.03
1776538046.750268,80.89,-0.8,-0.49,-0.532,-0.274,9.81,0.01,-0.05,-0.02
1776538046.759009,80.89,-0.72,-0.48,-0.269,-0.164,9.81,0.0,-0.04,-0.01
1776538046.7690115,80.87,-0.64,-0.47,-0.041,-0.028,9.809,-0.01,-0.04,0.0
1776538046.7790122,80.84,-0.57,-0.45,0.162,0.115,9.809,-0.01,-0.03,0.01
1776538046.7899013,80.83,-0.53,-0.43,0.291,0.192,9.809,-0.01,-0.02,0.01
1776538046.7999012,80.82,-0.51,-0.42,0.325,0.18,9.809,-0.01,-0.01,0.0
1776538046.8098764,80.83,-0.51,-0.42,0.248,0.103,9.81,-0.01,0.0,0.0
1776538046.8198676,80.83,-0.54,-0.43,0.087,-0.032,9.809,-0.01,0.01,-0.01
1776538046.8298864,80.83,-0.58,-0.44,-0.104,-0.16,9.809,-0.01,0.01,-0.01
1776538046.8389897,80.83,-0.62,-0.45,-0.337,-0.297,9.809,0.0,0.01,-0.01
1776538046.848993,80.82,-0.66,-0.46,-0.522,-0.352,9.809,0.01,0.0,0.0
1776538046.858988,80.82,-0.69,-0.46,-0.595,-0.304,9.809,0.01,-0.01,0.0
1776538046.8689876,80.83,-0.7,-0.45,-0.565,-0.194,9.81,0.0,-0.02,0.0
1776538046.8789876,80.84,-0.68,-0.43,-0.457,-0.093,9.809,0.0,-0.02,-0.01
1776538046.889,80.85,-0.66,-0.42,-0.316,-0.032,9.809,-0.01,-0.02,-0.02
1776538046.8990078,80.85,-0.64,-0.43,-0.198,0.013,9.809,-0.01,-0.02,-0.01
1776538046.9089696,80.83,-0.63,-0.42,-0.075,0.044,9.809,-0.01,-0.01,0.0
1776538046.9190109,80.82,-0.62,-0.42,-0.041,0.03,9.81,-0.01,0.0,0.01
1776538046.9290001,80.82,-0.63,-0.43,-0.063,-0.041,9.81,-0.01,0.0,0.0
1776538046.9390004,80.82,-0.65,-0.45,-0.146,-0.138,9.809,-0.01,0.0,-0.01
1776538046.94902,80.83,-0.67,-0.46,-0.235,-0.234,9.809,-0.01,0.0,-0.01
1776538046.9590333,80.83,-0.69,-0.48,-0.337,-0.279,9.809,0.0,0.0,-0.01
1776538046.969044,80.83,-0.71,-0.48,-0.392,-0.262,9.809,0.0,-0.01,-0.01
1776538046.9790149,80.83,-0.73,-0.47,-0.401,-0.187,9.809,0.0,-0.01,0.0
1776538046.9890213,80.83,-0.73,-0.46,-0.369,-0.079,9.809,0.0,-0.01,0.0
1776538046.9990149,80.84,-0.73,-0.44,-0.32,0.002,9.81,0.0,-0.01,-0.01
1776538047.0090182,80.84,-0.72,-0.43,-0.267,0.031,9.809,0.0,-0.01,-0.01
1776538047.0190337,80.84,-0.72,-0.43,-0.218,0.028,9.81,-0.01,-0.01,-0.01
1776538047.0290167,80.83,-0.72,-0.43,-0.187,-0.007,9.81,-0.01,0.0,0.0
1776538047.039017,80.82,-0.73,-0.44,-0.184,-0.083,9.809,-0.01,0.0,0.0
1776538047.0490139,80.82,-0.74,-0.46,-0.214,-0.175,9.809,-0.01,0.0,0.0
1776538047.0589852,80.82,-0.75,-0.48,-0.261,-0.25,9.809,-0.01,0.0,0.0
1776538047.0689883,80.82,-0.77,-0.49,-0.293,-0.281,9.809,-0.01,0.0,0.0
1776538047.0789857,80.83,-0.78,-0.5,-0.313,-0.267,9.81,0.0,-0.01,-0.01
1776538047.0889883,80.83,-0.78,-0.5,-0.313,-0.226,9.809,0.0,-0.01,-0.01
1776538047.098978,80.83,-0.79,-0.49,-0.298,-0.145,9.809,0.0,-0.01,-0.01
1776538047.1089747,80.83,-0.79,-0.48,-0.273,-0.054,9.809,0.0,-0.01,0.0
1776538047.1189735,80.83,-0.79,-0.47,-0.251,0.016,9.81,0.0,-0.01,0.0
1776538047.128979,80.83,-0.79,-0.45,-0.242,0.035,9.81,-0.01,-0.01,0.0
1776538047.1389608,80.83,-0.8,-0.45,-0.236,0.018,9.81,-0.01,0.0,-0.01
1776538047.1490028,80.83,-0.81,-0.46,-0.244,-0.025,9.81,-0.01,0.0,0.0
1776538047.158992,80.82,-0.82,-0.47,-0.271,-0.109,9.809,-0.01,0.0,0.0
1776538047.1689873,80.82,-0.82,-0.48,-0.28,-0.168,9.809,-0.01,0.0,0.0
1776538047.178973,80.82,-0.83,-0.49,-0.284,-0.205,9.809,-0.01,0.0,0.0
1776538047.188977,80.82,-0.83,-0.5,-0.266,-0.21,9.809,0.0,-0.01,0.0
1776538047.1989865,80.83,-0.83,-0.5,-0.256,-0.201,9.81,0.0,-0.01,-0.01
1776538047.2090397,80.83,-0.83,-0.5,-0.24,-0.164,9.81,0.0,-0.01,-0.01
1776538047.2189991,80.83,-0.84,-0.49,-0.229,-0.109,9.81,0.0,0.0,-0.01
1776538047.2289834,80.83,-0.84,-0.49,-0.228,-0.071,9.81,0.0,0.0,0.0
1776538047.2389936,80.82,-0.85,-0.48,-0.237,-0.03,9.809,-0.01,-0.01,0.0
1776538047.24896,80.83,-0.86,-0.48,-0.25,-0.023,9.81,-0.01,0.0,0.0
1776538047.2589755,80.83,-0.87,-0.48,-0.271,-0.056,9.81,-0.01,0.0,-0.01
1776538047.2690005,80.83,-0.87,-0.49,-0.279,-0.099,9.809,-0.01,0.0,-0.01
1776538047.279006,80.83,-0.88,-0.49,-0.281,-0.133,9.81,-0.01,-0.01,-0.01
1776538047.2890074,80.83,-0.88,-0.49,-0.265,-0.147,9.81,-0.01,-0.01,0.0
1776538047.2990162,80.83,-0.89,-0.5,-0.255,-0.148,9.81,0.0,-0.01,0.0
1776538047.3089902,80.83,-0.89,-0.5,-0.237,-0.123,9.81,0.0,-0.01,0.0
1776538047.3190162,80.83,-0.89,-0.5,-0.225,-0.102,9.81,0.0,-0.01,-0.01
1776538047.3289542,80.83,-0.89,-0.49,-0.224,-0.095,9.81,0.0,-0.01,-0.01
1776538047.3389924,80.83,-0.89,-0.49,-0.228,-0.092,9.81,0.0,0.0,-0.01
1776538047.3489594,80.83,-0.9,-0.49,-0.229,-0.087,9.81,-0.01,0.0,0.0
1776538047.358957,80.83,-0.91,-0.5,-0.235,-0.093,9.81,-0.01,0.0,0.0
1776538047.3689692,80.83,-0.91,-0.5,-0.244,-0.121,9.81,-0.01,0.0,0.0
1776538047.3789577,80.83,-0.92,-0.51,-0.255,-0.15,9.81,-0.01,0.0,-0.01
1776538047.3889592,80.83,-0.92,-0.52,-0.253,-0.166,9.81,-0.01,0.0,-0.01
1776538047.3990982,80.83,-0.92,-0.52,-0.255,-0.166,9.81,-0.01,-0.01,-0.01
1776538047.4089751,80.83,-0.92,-0.52,-0.247,-0.141,9.81,-0.01,-0.01,0.0
1776538047.4189713,80.83,-0.93,-0.52,-0.235,-0.108,9.81,0.0,-0.01,0.0
1776538047.4289668,80.83,-0.93,-0.52,-0.222,-0.074,9.81,0.0,-0.01,0.0
1776538047.4389563,80.83,-0.93,-0.51,-0.219,-0.057,9.81,0.0,0.0,-0.01
1776538047.4489563,80.83,-0.93,-0.5,-0.223,-0.055,9.81,0.0,-0.01,0.0
1776538047.4589562,80.83,-0.94,-0.51,-0.225,-0.056,9.81,-0.01,0.0,0.0
1776538047.468955,80.83,-0.94,-0.51,-0.235,-0.084,9.81,-0.01,-0.01,0.0
1776538047.4789214,80.83,-0.94,-0.51,-0.242,-0.125,9.81,-0.01,0.0,-0.01
1776538047.4889383,80.83,-0.95,-0.52,-0.24,-0.15,9.81,-0.01,0.0,-0.01
1776538047.4989574,80.83,-0.95,-0.52,-0.25,-0.168,9.81,-0.01,0.0,-0.01
1776538047.508936,80.83,-0.96,-0.53,-0.238,-0.159,9.81,0.0,-0.01,0.0
1776538047.5189576,80.83,-0.96,-0.53,-0.241,-0.138,9.81,-0.01,-0.01,0.0
1776538047.5289557,80.83,-0.97,-0.53,-0.235,-0.125,9.81,0.0,-0.01,-0.01
1776538047.5388896,80.83,-0.97,-0.53,-0.225,-0.099,9.81,0.0,0.0,-0.01
1776538047.5489416,80.83,-0.97,-0.52,-0.228,-0.078,9.81,-0.01,-0.01,0.0
1776538047.5589416,80.83,-0.97,-0.52,-0.224,-0.068,9.81,-0.01,0.0,0.0
1776538047.5689528,80.83,-0.97,-0.52,-0.219,-0.069,9.81,-0.01,0.0,0.0
1776538047.578955,80.83,-0.98,-0.52,-0.222,-0.075,9.81,-0.01,0.0,0.0
1776538047.5889542,80.83,-0.98,-0.52,-0.217,-0.09,9.81,-0.01,-0.01,0.0
1776538047.5989559,80.83,-0.98,-0.52,-0.226,-0.11,9.81,0.0,-0.01,-0.01
1776538047.6088872,80.83,-0.98,-0.53,-0.226,-0.127,9.81,0.0,-0.01,-0.01
1776538047.6189075,80.83,-0.98,-0.53,-0.229,-0.129,9.81,0.0,-0.01,-0.01
1776538047.628899,80.83,-0.99,-0.53,-0.226,-0.119,9.81,0.0,-0.01,0.0
1776538047.6389554,80.83,-0.99,-0.53,-0.229,-0.109,9.81,0.0,0.0,0.0
1776538047.6489203,80.83,-0.99,-0.53,-0.232,-0.103,9.81,0.0,0.0,0.0
1776538047.6588895,80.83,-0.99,-0.53,-0.234,-0.093,9.81,-0.01,-0.01,-0.01
1776538047.6688883,80.83,-1.0,-0.53,-0.238,-0.097,9.81,-0.01,0.0,-0.01
1776538047.6788921,80.83,-1.0,-0.53,-0.231,-0.103,9.81,-0.01,-0.01,0.0
1776538047.688894,80.83,-1.01,-0.54,-0.181,-0.144,9.81,-0.01,-0.01,0.0
1776538047.6988778,80.83,-1.02,-0.56,-0.013,-0.126,9.81,-0.01,0.0,0.0
1776538047.7088947,80.84,-1.01,-0.59,0.074,-0.025,9.81,-0.02,0.01,-0.01
1776538047.718901,80.88,-1.01,-0.61,0.079,0.134,9.811,-0.03,0.01,-0.02
1776538047.7280476,80.93,-1.04,-0.6,0.036,0.126,9.811,-0.02,0.02,-0.02
1776538047.7380505,80.95,-1.08,-0.6,-0.068,0.017,9.811,-0.01,0.02,-0.02
1776538047.748079,80.94,-1.13,-0.61,-0.182,-0.054,9.811,-0.01,0.02,-0.01
1776538047.7588806,80.92,-1.18,-0.66,-0.387,-0.386,9.811,-0.01,0.02,0.01
1776538047.7689023,80.91,-1.29,-0.83,-0.663,-0.394,9.812,-0.02,0.02,0.02
1776538047.7780616,80.95,-1.33,-0.98,-0.641,-0.152,9.812,-0.08,0.02,-0.01
1776538047.7880726,81.04,-1.35,-1.02,-0.844,-0.159,9.812,-0.08,0.0,-0.03
1776538047.798899,81.13,-1.37,-1.06,-0.71,-0.229,9.689,-0.03,-0.02,-0.06
1776538047.8080637,81.18,-1.28,-1.08,-0.559,-0.279,9.723,-0.02,-0.02,-0.05
1776538047.8194597,81.15,-1.28,-1.09,-0.419,-0.219,9.748,-0.01,-0.05,-0.02
1776538047.8297298,81.1,-1.22,-1.08,-0.057,-0.008,9.763,-0.01,-0.01,0.02
1776538047.8381958,81.05,-1.16,-1.1,0.079,0.127,9.776,-0.02,-0.01,0.02
1776538047.848041,81.0,-1.13,-1.1,0.214,0.37,9.786,-0.04,-0.02,0.02
1776538047.858033,80.98,-1.09,-1.06,0.305,0.491,9.793,-0.02,0.0,0.02
1776538047.868879,81.01,-1.08,-1.02,0.357,0.508,9.797,-0.01,0.0,0.0
1776538047.878236,81.07,-1.06,-1.02,0.271,0.311,9.8,-0.01,0.01,-0.03
1776538047.8880281,81.09,-1.09,-1.02,0.148,0.144,9.804,-0.01,0.01,-0.03
1776538047.8980343,81.08,-1.11,-1.0,-0.008,-0.017,9.805,0.0,0.01,-0.02
1776538047.907994,81.05,-1.16,-1.01,-0.22,-0.051,9.809,0.01,0.01,0.01
1776538047.9179938,81.0,-1.19,-1.0,-0.297,0.071,9.808,-0.01,0.01,0.02
1776538047.9280097,81.0,-1.2,-0.96,-0.435,0.202,9.809,-0.01,0.0,0.01
1776538047.9379942,81.04,-1.22,-0.92,-0.466,0.172,9.81,0.01,-0.01,-0.01
1776538047.9480116,81.07,-1.21,-0.91,-0.453,0.166,9.81,0.01,-0.01,-0.02
1776538047.9580455,81.09,-1.21,-0.89,-0.378,0.107,9.811,0.0,-0.02,-0.02
1776538047.9680357,81.08,-1.18,-0.9,-0.256,0.037,9.81,0.0,-0.02,-0.01
1776538047.9780138,81.06,-1.14,-0.91,-0.115,0.031,9.811,-0.01,-0.02,0.0
1776538047.9879885,81.05,-1.11,-0.92,-0.001,0.04,9.811,-0.02,-0.02,0.01
1776538047.9979913,81.05,-1.1,-0.92,0.081,0.017,9.811,-0.02,0.0,0.0
1776538048.0079894,81.06,-1.09,-0.92,0.074,-0.046,9.811,-0.01,0.0,-0.01
1776538048.0179958,81.06,-1.09,-0.92,0.028,-0.073,9.811,0.0,0.0,-0.01
1776538048.0279927,81.06,-1.11,-0.91,-0.057,-0.074,9.811,0.0,0.0,-0.01
1776538048.0380235,81.05,-1.13,-0.89,-0.166,-0.011,9.811,0.0,0.0,0.0
1776538048.047992,81.04,-1.16,-0.88,-0.247,0.092,9.811,0.0,0.0,0.0
1776538048.0579796,81.04,-1.17,-0.84,-0.321,0.2,9.812,0.0,0.0,0.0
1776538048.068019,81.04,-1.17,-0.8,-0.353,0.267,9.811,0.0,-0.01,0.0
1776538048.0779645,81.04,-1.17,-0.77,-0.341,0.295,9.811,0.0,-0.01,-0.01
1776538048.087973,81.05,-1.16,-0.75,-0.279,0.271,9.811,0.0,-0.01,-0.01
1776538048.097997,81.07,-1.15,-0.75,-0.196,0.172,9.811,-0.01,-0.01,-0.02
1776538048.1080182,81.07,-1.13,-0.76,-0.132,0.06,9.81,-0.01,-0.01,-0.01
1776538048.1180277,81.07,-1.11,-0.78,-0.078,-0.062,9.811,-0.01,-0.01,-0.01
1776538048.1280172,81.06,-1.11,-0.79,-0.036,-0.141,9.811,-0.01,0.0,0.0
1776538048.1379912,81.05,-1.1,-0.79,-0.038,-0.166,9.811,0.0,0.0,0.0
1776538048.1479735,81.05,-1.1,-0.8,-0.085,-0.15,9.811,0.0,0.0,0.0
1776538048.1579804,81.05,-1.12,-0.79,-0.137,-0.116,9.811,-0.01,0.0,-0.01
1776538048.167973,81.06,-1.13,-0.79,-0.195,-0.063,9.811,-0.01,0.0,-0.01
1776538048.1779816,81.05,-1.14,-0.77,-0.235,0.035,9.811,0.0,0.0,-0.01
1776538048.1879733,81.05,-1.14,-0.73,-0.265,0.115,9.811,0.0,-0.01,0.0
1776538048.1979666,81.04,-1.14,-0.71,-0.257,0.192,9.811,0.0,-0.01,0.0
1776538048.2079613,81.04,-1.14,-0.68,-0.226,0.244,9.811,-0.01,-0.01,0.0
1776538048.2179809,81.05,-1.13,-0.67,-0.187,0.234,9.811,-0.01,-0.01,-0.01
1776538048.2279994,81.06,-1.12,-0.67,-0.145,0.172,9.811,-0.01,-0.01,-0.01
1776538048.238036,81.06,-1.11,-0.67,-0.123,0.081,9.81,-0.01,-0.01,-0.01
1776538048.2480195,81.06,-1.1,-0.67,-0.115,-0.011,9.811,0.0,-0.01,-0.01
1776538048.2580128,81.05,-1.1,-0.68,-0.12,-0.079,9.81,0.0,0.0,0.0
1776538048.2679868,81.05,-1.1,-0.68,-0.131,-0.097,9.811,0.0,0.0,0.0
1776538048.277966,81.04,-1.1,-0.68,-0.15,-0.077,9.811,0.0,0.0,0.0
1776538048.287955,81.05,-1.11,-0.67,-0.176,-0.062,9.811,0.0,0.0,-0.01
1776538048.2980018,81.06,-1.11,-0.67,-0.201,-0.034,9.811,0.0,0.0,-0.01
1776538048.3080003,81.06,-1.11,-0.66,-0.218,-0.01,9.811,0.0,0.0,-0.01
1776538048.3179812,81.05,-1.12,-0.65,-0.212,0.036,9.81,0.0,-0.01,0.0
1776538048.3279834,81.05,-1.12,-0.63,-0.198,0.078,9.811,-0.01,-0.01,0.0
1776538048.3379862,81.04,-1.11,-0.63,-0.181,0.116,9.81,-0.01,-0.01,0.0
1776538048.3479507,81.05,-1.11,-0.62,-0.164,0.121,9.811,-0.01,-0.01,-0.01
1776538048.3579535,81.06,-1.11,-0.61,-0.159,0.067,9.811,-0.01,-0.01,-0.01
1776538048.3679523,81.06,-1.11,-0.61,-0.166,0.03,9.811,-0.01,0.0,-0.01
1776538048.3779583,81.05,-1.1,-0.6,-0.16,-0.002,9.811,0.0,0.0,0.0
1776538048.387954,81.04,-1.1,-0.6,-0.17,0.018,9.81,0.0,-0.01,0.0
1776538048.3979683,81.04,-1.1,-0.58,-0.16,0.038,9.811,0.0,-0.01,0.0
1776538048.4079492,81.05,-1.1,-0.57,-0.174,0.043,9.811,0.0,-0.01,0.0
1776538048.4179544,81.05,-1.1,-0.56,-0.171,0.03,9.81,0.0,0.0,-0.01
1776538048.42795,81.06,-1.1,-0.56,-0.184,0.017,9.811,0.0,0.0,-0.01
1776538048.4379547,81.05,-1.11,-0.56,-0.182,0.0,9.81,0.0,-0.01,-0.01
1776538048.447947,81.05,-1.1,-0.55,-0.184,0.0,9.811,-0.01,0.0,0.0
1776538048.4579515,81.05,-1.1,-0.55,-0.172,-0.001,9.811,-0.01,-0.01,0.0
1776538048.4679337,81.05,-1.1,-0.55,-0.166,-0.007,9.811,-0.01,0.0,0.0
1776538048.4779522,81.06,-1.1,-0.55,-0.169,-0.022,9.811,-0.01,-0.01,-0.01
1776538048.4879491,81.06,-1.1,-0.55,-0.166,-0.024,9.811,-0.01,0.0,-0.01
1776538048.4979541,81.05,-1.09,-0.55,-0.178,-0.019,9.81,0.0,-0.01,-0.01
1776538048.5079484,81.05,-1.1,-0.54,-0.178,0.014,9.811,0.0,0.0,0.0
1776538048.5179212,81.04,-1.09,-0.53,-0.172,0.057,9.81,-0.01,0.0,0.0
1776538048.527902,81.04,-1.1,-0.51,-0.163,0.085,9.81,0.0,-0.01,0.0
1776538048.537905,81.05,-1.1,-0.5,-0.162,0.074,9.811,0.0,-0.01,-0.01
1776538048.547901,81.05,-1.09,-0.5,-0.172,0.06,9.81,0.0,-0.01,-0.01
1776538048.5579538,81.05,-1.09,-0.49,-0.162,0.011,9.81,0.0,-0.01,-0.01
1776538048.5679467,81.05,-1.09,-0.5,-0.169,-0.013,9.811,0.0,-0.01,0.0
1776538048.5779607,81.05,-1.09,-0.5,-0.163,-0.028,9.811,-0.01,0.0,0.0
1776538048.587914,81.05,-1.09,-0.5,-0.178,-0.042,9.811,0.0,0.0,0.0
1776538048.5979574,81.05,-1.09,-0.5,-0.174,-0.055,9.811,-0.01,-0.01,-0.01
1776538048.607958,81.05,-1.09,-0.5,-0.195,-0.063,9.81,-0.01,0.0,-0.01
1776538048.6179051,81.05,-1.1,-0.49,-0.193,-0.056,9.81,-0.01,-0.01,-0.01
1776538048.627883,81.05,-1.09,-0.49,-0.199,-0.028,9.811,-0.01,0.0,0.0
1776538048.6378853,81.05,-1.09,-0.48,-0.184,0.005,9.811,-0.01,-0.01,0.0
1776538048.6479347,81.05,-1.09,-0.48,-0.18,0.042,9.811,-0.01,0.0,0.0
1776538048.6583428,81.05,-1.09,-0.47,-0.171,0.055,9.811,-0.01,-0.01,0.0
1776538048.6678495,81.05,-1.09,-0.46,-0.165,0.05,9.81,-0.01,0.0,-0.01
1776538048.6778922,81.05,-1.08,-0.46,-0.163,0.038,9.81,-0.01,-0.01,-0.01
1776538048.6878815,81.05,-1.09,-0.45,-0.162,0.017,9.81,-0.01,0.0,-0.01
1776538048.6970484,81.05,-1.09,-0.45,-0.166,0.0,9.811,0.0,-0.01,0.0
1776538048.7078776,81.05,-1.08,-0.45,-0.17,-0.01,9.811,0.0,0.0,0.0
1776538048.7178645,81.05,-1.09,-0.44,-0.177,-0.017,9.811,0.0,0.0,0.0
1776538048.7270372,81.05,-1.09,-0.44,-0.186,-0.026,9.811,0.0,0.0,-0.01
1776538048.7370384,81.05,-1.09,-0.44,-0.182,-0.03,9.81,0.0,-0.01,-0.01
1776538048.7478623,81.05,-1.09,-0.44,-0.181,-0.03,9.81,-0.01,-0.01,-0.01
1776538048.7570515,81.05,-1.08,-0.44,-0.176,-0.026,9.81,-0.01,0.0,0.0
1776538048.7670624,81.05,-1.08,-0.44,-0.17,-0.023,9.811,-0.01,-0.01,0.0
1776538048.7770386,81.05,-1.08,-0.44,-0.158,-0.024,9.811,-0.01,-0.01,0.0
1776538048.7879148,81.05,-1.08,-0.43,-0.158,0.0,9.811,-0.01,0.0,0.0
1776538048.7978861,81.05,-1.08,-0.43,-0.156,-0.012,9.811,0.0,0.0,-0.01
1776538048.8078873,81.05,-1.07,-0.42,-0.171,0.006,9.811,-0.01,0.0,-0.01
1776538048.817061,81.05,-1.08,-0.42,-0.172,0.004,9.811,-0.01,0.0,0.0
1776538048.827025,81.05,-1.08,-0.41,-0.19,0.022,9.811,0.0,-0.01,0.0
1776538048.837022,81.05,-1.08,-0.41,-0.194,0.024,9.811,-0.01,0.0,0.0
1776538048.8470244,81.05,-1.08,-0.4,-0.202,0.023,9.811,0.0,-0.01,0.0
1776538048.857018,81.05,-1.08,-0.4,-0.194,0.013,9.81,0.0,-0.01,-0.01
1776538048.8670037,81.05,-1.08,-0.39,-0.2,-0.004,9.81,0.0,-0.01,-0.01
1776538048.876999,81.05,-1.08,-0.39,-0.187,-0.02,9.81,0.0,-0.01,-0.01
1776538048.8870006,81.05,-1.08,-0.4,-0.18,-0.029,9.81,-0.01,-0.01,-0.01
1776538048.8970256,81.05,-1.08,-0.4,-0.17,-0.038,9.81,-0.01,-0.01,0.0
1776538048.9070525,81.05,-1.07,-0.39,-0.166,-0.043,9.81,-0.01,0.0,0.0
1776538048.9170368,81.05,-1.08,-0.4,-0.166,-0.04,9.81,-0.01,-0.01,0.0
1776538048.9270506,81.05,-1.07,-0.39,-0.17,-0.032,9.81,-0.01,0.0,-0.01
1776538048.9370358,81.05,-1.07,-0.39,-0.176,-0.025,9.81,-0.01,-0.01,0.0
1776538048.9470193,81.05,-1.08,-0.39,-0.184,-0.006,9.81,0.0,0.0,0.0
1776538048.9569995,81.05,-1.08,-0.38,-0.195,-0.007,9.81,0.0,0.0,0.0
1776538048.9669979,81.05,-1.08,-0.38,-0.194,0.0,9.81,0.0,-0.01,0.0
1776538048.9770021,81.05,-1.08,-0.37,-0.186,0.012,9.81,-0.01,0.0,0.0
1776538048.9870207,81.05,-1.08,-0.37,-0.187,0.0,9.81,0.0,-0.01,-0.01
1776538048.997003,81.05,-1.08,-0.37,-0.178,-0.002,9.81,-0.01,-0.01,-0.01
1776538049.0070183,81.05,-1.08,-0.37,-0.184,-0.028,9.81,0.0,-0.01,-0.01
1776538049.0170023,81.05,-1.08,-0.37,-0.175,-0.028,9.81,0.0,-0.01,-0.01
1776538049.0270185,81.05,-1.07,-0.36,-0.178,-0.04,9.81,-0.01,0.0,0.0
1776538049.0370016,81.05,-1.08,-0.37,-0.182,-0.043,9.81,0.0,-0.01,0.0
1776538049.0469635,81.05,-1.07,-0.36,-0.187,-0.048,9.81,0.0,0.0,0.0
1776538049.056971,81.05,-1.08,-0.37,-0.192,-0.046,9.81,0.0,-0.01,-0.01
1776538049.066974,81.05,-1.08,-0.36,-0.183,-0.038,9.81,-0.01,0.0,-0.01
1776538049.076985,81.05,-1.07,-0.36,-0.188,-0.03,9.81,-0.01,-0.01,-0.01
1776538049.0869849,81.05,-1.07,-0.36,-0.178,-0.016,9.81,-0.01,-0.01,0.0
1776538049.0969603,81.05,-1.07,-0.36,-0.174,-0.019,9.81,-0.01,0.0,0.0
1776538049.1069613,81.05,-1.07,-0.35,-0.174,0.0,9.81,-0.01,-0.01,0.0
1776538049.1169598,81.05,-1.07,-0.34,-0.164,-0.001,9.81,0.0,0.0,0.0
1776538049.126945,81.05,-1.07,-0.34,-0.174,0.001,9.81,0.0,-0.01,-0.01
1776538049.136971,81.05,-1.07,-0.34,-0.166,-0.007,9.81,-0.01,-0.01,0.0
1776538049.1469588,81.05,-1.07,-0.34,-0.177,-0.013,9.81,0.0,0.0,0.0
1776538049.1569471,81.05,-1.07,-0.34,-0.175,-0.016,9.81,-0.01,-0.01,-0.01
1776538049.167137,81.05,-1.07,-0.33,-0.186,-0.026,9.81,0.0,0.0,-0.01
1776538049.1770146,81.05,-1.07,-0.34,-0.183,-0.029,9.81,0.0,-0.01,-0.01
1776538049.1869988,81.05,-1.07,-0.33,-0.194,-0.036,9.81,-0.01,0.0,0.0
1776538049.1969907,81.05,-1.07,-0.34,-0.187,-0.043,9.81,-0.01,-0.01,0.0
1776538049.2069795,81.05,-1.07,-0.33,-0.183,-0.047,9.81,-0.01,0.0,0.0
1776538049.2169907,81.05,-1.07,-0.33,-0.176,-0.05,9.81,-0.01,-0.01,-0.01
1776538049.2269783,81.05,-1.07,-0.33,-0.177,-0.041,9.81,-0.01,0.0,0.0
1776538049.2369783,81.05,-1.07,-0.33,-0.186,-0.034,9.81,-0.01,-0.01,0.0
1776538049.2469735,81.05,-1.07,-0.33,-0.177,-0.024,9.81,-0.01,0.0,0.0
1776538049.2575748,81.05,-1.07,-0.33,-0.181,-0.02,9.81,-0.01,-0.01,0.0
1776538049.26776,81.05,-1.07,-0.33,-0.18,-0.011,9.81,-0.01,-0.01,-0.01
1776538049.2769525,81.05,-1.07,-0.32,-0.183,-0.011,9.81,-0.01,0.0,-0.01
1776538049.2869446,81.05,-1.07,-0.32,-0.187,-0.012,9.81,0.0,-0.01,-0.01
1776538049.2969725,81.05,-1.07,-0.32,-0.187,-0.02,9.81,-0.01,0.0,-0.01
1776538049.3069625,81.05,-1.07,-0.32,-0.194,-0.029,9.81,-0.01,-0.01,0.0
1776538049.316959,81.05,-1.07,-0.32,-0.194,-0.032,9.81,-0.01,-0.01,0.0
1776538049.3269892,81.05,-1.07,-0.32,-0.187,-0.043,9.81,-0.01,-0.01,0.0
1776538049.3369553,81.05,-1.07,-0.32,-0.182,-0.041,9.81,0.0,-0.01,0.0
1776538049.3469703,81.05,-1.07,-0.32,-0.178,-0.047,9.81,0.0,-0.01,0.0
1776538049.356955,81.05,-1.07,-0.32,-0.18,-0.046,9.81,0.0,-0.01,0.0
1776538049.3669686,81.05,-1.07,-0.32,-0.177,-0.03,9.81,-0.01,-0.01,0.0
1776538049.3769455,81.05,-1.07,-0.31,-0.184,-0.029,9.81,0.0,0.0,0.0
1776538049.3869793,81.05,-1.07,-0.31,-0.182,-0.014,9.81,-0.01,-0.01,-0.01
1776538049.3969398,81.05,-1.07,-0.31,-0.192,-0.016,9.81,-0.01,0.0,-0.01
1776538049.4069397,81.05,-1.07,-0.31,-0.186,-0.016,9.81,-0.01,-0.01,-0.01
1776538049.4170144,81.05,-1.07,-0.31,-0.194,-0.022,9.81,0.0,0.0,-0.01
1776538049.427013,81.05,-1.07,-0.31,-0.186,-0.028,9.81,0.0,-0.01,0.0
1776538049.4378421,81.05,-1.07,-0.3,-0.175,-0.03,9.81,-0.01,0.0,-0.01
1776538049.4470015,81.05,-1.07,-0.3,-0.172,-0.035,9.81,0.0,-0.01,-0.01
1776538049.4569445,81.05,-1.07,-0.3,-0.165,-0.034,9.81,0.0,0.0,-0.01
1776538049.4669416,81.05,-1.07,-0.3,-0.169,-0.041,9.81,0.0,-0.01,-0.01
1776538049.4769397,81.05,-1.07,-0.3,-0.168,-0.042,9.81,0.0,-0.01,0.0
1776538049.4869418,81.05,-1.07,-0.3,-0.175,-0.043,9.81,0.0,0.0,0.0
1776538049.4969382,81.05,-1.07,-0.3,-0.176,-0.035,9.81,-0.01,0.0,0.0
1776538049.5069404,81.05,-1.07,-0.3,-0.177,-0.035,9.81,-0.01,0.0,-0.01
1776538049.5169368,81.05,-1.07,-0.3,-0.18,-0.031,9.81,-0.01,0.0,0.0
1776538049.5269363,81.05,-1.07,-0.3,-0.182,-0.032,9.81,-0.01,0.0,-0.01
1776538049.5369442,81.05,-1.06,-0.29,-0.183,-0.037,9.81,0.0,-0.01,0.0
1776538049.5469382,81.05,-1.06,-0.29,-0.18,-0.034,9.81,-0.01,-0.01,0.0
1776538049.5569363,81.05,-1.06,-0.3,-0.174,-0.047,9.81,-0.01,-0.01,0.0
1776538049.5669382,81.05,-1.06,-0.3,-0.175,-0.03,9.81,-0.01,-0.01,0.0
1776538049.5769436,81.05,-1.06,-0.29,-0.17,-0.038,9.81,0.0,-0.01,0.0
1776538049.5869322,81.05,-1.06,-0.29,-0.181,-0.034,9.81,0.0,0.0,-0.01
1776538049.5973928,81.05,-1.06,-0.29,-0.176,-0.032,9.81,-0.01,0.0,0.0
1776538049.6068823,81.05,-1.06,-0.29,-0.187,-0.032,9.81,0.0,0.0,0.0
1776538049.6168966,81.05,-1.06,-0.29,-0.181,-0.036,9.81,-0.01,-0.01,-0.01
1776538049.6268802,81.05,-1.06,-0.29,-0.195,-0.042,9.81,-0.01,0.0,0.0
1776538049.6368957,81.05,-1.07,-0.29,-0.189,-0.042,9.81,-0.01,-0.01,-0.01
1776538049.6468956,81.05,-1.06,-0.29,-0.201,-0.049,9.81,0.0,-0.01,-0.01
1776538049.6569276,81.05,-1.06,-0.29,-0.184,-0.051,9.81,-0.01,-0.01,-0.01
1776538049.6669118,81.05,-1.06,-0.29,-0.177,-0.048,9.81,-0.01,0.0,0.0
1776538049.6768694,81.05,-1.06,-0.29,-0.176,-0.046,9.81,-0.01,-0.01,-0.01
1776538049.6868684,81.05,-1.06,-0.29,-0.175,-0.034,9.81,-0.01,0.0,-0.01
1776538049.696861,81.05,-1.06,-0.29,-0.178,-0.029,9.81,0.0,-0.01,0.0
1776538049.706896,81.05,-1.06,-0.28,-0.176,-0.023,9.81,0.0,0.0,-0.01
1776538049.716878,81.05,-1.06,-0.28,-0.184,-0.02,9.81,0.0,0.0,0.0
1776538049.7268956,81.05,-1.06,-0.28,-0.186,-0.018,9.81,-0.01,-0.01,-0.01
1776538049.7368612,81.05,-1.06,-0.28,-0.183,-0.025,9.81,0.0,0.0,0.0
1776538049.7468662,81.05,-1.06,-0.28,-0.19,-0.026,9.81,0.0,-0.01,-0.01
1776538049.7568777,81.05,-1.06,-0.28,-0.193,-0.036,9.81,-0.01,-0.01,-0.01
1776538049.7664883,81.05,-1.06,-0.28,-0.188,-0.048,9.81,-0.01,-0.01,-0.01
1776538049.7765036,81.05,-1.06,-0.28,-0.181,-0.047,9.81,-0.01,-0.01,0.0
1776538049.7860425,81.05,-1.06,-0.28,-0.177,-0.043,9.81,-0.01,-0.01,0.0
1776538049.796021,81.05,-1.06,-0.28,-0.18,-0.051,9.81,0.0,-0.01,0.0
1776538049.8068826,81.05,-1.06,-0.28,-0.182,-0.04,9.81,-0.01,-0.01,0.0
1776538049.8168612,81.05,-1.06,-0.28,-0.184,-0.038,9.81,0.0,0.0,0.0
1776538049.8260262,81.05,-1.07,-0.28,-0.181,-0.025,9.81,-0.01,-0.01,-0.01
1776538049.8360243,81.05,-1.06,-0.27,-0.192,-0.025,9.81,-0.01,0.0,-0.01
1776538049.846003,81.05,-1.06,-0.27,-0.187,-0.023,9.81,0.0,-0.01,-0.01
1776538049.8570573,81.05,-1.06,-0.27,-0.192,-0.023,9.81,-0.01,0.0,0.0
1776538049.8670218,81.05,-1.07,-0.27,-0.194,-0.022,9.81,0.0,-0.01,0.0
1776538049.8768632,81.05,-1.06,-0.27,-0.187,-0.024,9.81,-0.01,0.0,-0.01
1776538049.8860033,81.05,-1.06,-0.27,-0.187,-0.032,9.81,-0.01,-0.01,-0.01
1776538049.896172,81.05,-1.06,-0.27,-0.175,-0.031,9.81,-0.01,0.0,-0.01
1776538049.9060068,81.05,-1.06,-0.27,-0.18,-0.04,9.81,0.0,-0.01,-0.01
1776538049.9168622,81.05,-1.06,-0.27,-0.177,-0.042,9.81,0.0,-0.01,0.0
1776538049.9260435,81.05,-1.06,-0.27,-0.181,-0.05,9.81,0.0,0.0,0.0
1776538049.9368463,81.05,-1.06,-0.27,-0.182,-0.042,9.81,-0.01,-0.01,0.0
1776538049.9460356,81.05,-1.06,-0.27,-0.183,-0.041,9.81,-0.01,0.0,0.0
1776538049.9562266,81.05,-1.07,-0.27,-0.19,-0.041,9.81,0.0,-0.01,-0.01
1776538049.9660444,81.05,-1.07,-0.27,-0.189,-0.038,9.81,-0.01,0.0,-0.01
1776538049.9760566,81.05,-1.07,-0.27,-0.186,-0.046,9.81,-0.01,-0.01,0.0
1776538049.986006,81.04,-1.07,-0.27,-0.186,-0.028,9.81,-0.01,0.0,0.0
1776538049.996017,81.04,-1.06,-0.26,-0.182,-0.042,9.81,0.0,-0.01,0.0
1776538050.0059993,81.04,-1.07,-0.27,-0.186,-0.028,9.81,0.0,-0.01,-0.01
1776538050.016015,81.04,-1.06,-0.26,-0.181,-0.029,9.81,-0.01,0.0,0.0
1776538050.0260215,81.04,-1.06,-0.26,-0.187,-0.018,9.81,0.0,-0.01,-0.01
1776538050.036019,81.04,-1.07,-0.26,-0.178,-0.014,9.81,-0.01,0.0,-0.01
1776538050.0460439,81.04,-1.07,-0.26,-0.194,-0.011,9.81,0.0,-0.01,-0.01
1776538050.0560164,81.04,-1.07,-0.26,-0.183,-0.018,9.81,0.0,0.0,-0.01
1776538050.0659804,81.04,-1.07,-0.26,-0.194,-0.03,9.81,-0.01,-0.01,-0.01
1776538050.0759788,81.05,-1.07,-0.26,-0.187,-0.035,9.81,-0.01,-0.01,0.0
1776538050.0859582,81.05,-1.07,-0.26,-0.192,-0.048,9.81,-0.01,0.0,-0.01
1776538050.0959668,81.05,-1.07,-0.26,-0.193,-0.051,9.81,-0.01,-0.01,-0.01
1776538050.105973,81.05,-1.07,-0.26,-0.186,-0.048,9.81,-0.01,0.0,-0.01
1776538050.1159792,81.05,-1.07,-0.26,-0.189,-0.049,9.81,-0.01,-0.01,0.0
1776538050.1259696,81.05,-1.07,-0.26,-0.177,-0.04,9.81,0.0,0.0,-0.01
1776538050.1359682,81.05,-1.07,-0.26,-0.182,-0.037,9.81,-0.01,-0.01,0.0
1776538050.1459785,81.05,-1.07,-0.26,-0.177,-0.031,9.81,-0.01,-0.01,-0.01
1776538050.1559508,81.05,-1.07,-0.26,-0.181,-0.029,9.81,0.0,0.0,-0.01
1776538050.16598,81.05,-1.07,-0.26,-0.186,-0.025,9.81,-0.01,-0.01,-0.01
1776538050.1759531,81.05,-1.07,-0.25,-0.178,-0.034,9.81,-0.01,0.0,0.0
1776538050.1860113,81.05,-1.07,-0.25,-0.184,-0.032,9.81,0.0,-0.01,0.0
1776538050.1960156,81.05,-1.07,-0.25,-0.177,-0.046,9.81,-0.01,-0.01,0.0
1776538050.2059693,81.05,-1.07,-0.26,-0.183,-0.042,9.81,0.0,0.0,-0.01
1776538050.215981,81.05,-1.07,-0.25,-0.177,-0.043,9.81,-0.01,-0.01,0.0
1776538050.2259881,81.05,-1.07,-0.26,-0.189,-0.04,9.81,0.0,-0.01,-0.01
1776538050.2359664,81.05,-1.07,-0.25,-0.174,-0.036,9.81,-0.01,0.0,-0.01
1776538050.2459745,81.05,-1.07,-0.25,-0.187,-0.032,9.81,-0.01,-0.01,-0.01
1776538050.255952,81.05,-1.07,-0.25,-0.176,-0.031,9.81,-0.01,-0.01,0.0
1776538050.2659473,81.05,-1.07,-0.25,-0.181,-0.034,9.81,-0.01,0.0,0.0
1776538050.275965,81.05,-1.07,-0.25,-0.17,-0.042,9.81,-0.01,-0.01,-0.01
1776538050.2859454,81.04,-1.06,-0.25,-0.17,-0.048,9.81,-0.01,0.0,0.0
1776538050.295952,81.04,-1.07,-0.25,-0.171,-0.044,9.81,-0.01,-0.01,0.0
1776538050.305981,81.04,-1.06,-0.25,-0.17,-0.053,9.81,0.0,0.0,0.0
1776538050.3159657,81.04,-1.06,-0.25,-0.177,-0.043,9.81,-0.01,-0.01,0.0
1776538050.325957,81.04,-1.06,-0.25,-0.177,-0.043,9.81,-0.01,0.0,0.0
1776538050.3359659,81.04,-1.06,-0.25,-0.187,-0.037,9.81,0.0,-0.01,-0.01
1776538050.3459537,81.04,-1.07,-0.25,-0.183,-0.032,9.81,-0.01,0.0,-0.01
1776538050.3559506,81.04,-1.07,-0.25,-0.193,-0.035,9.81,0.0,-0.01,-0.01
1776538050.3659208,81.04,-1.07,-0.25,-0.181,-0.04,9.81,-0.01,-0.01,-0.01
1776538050.3759496,81.04,-1.06,-0.25,-0.186,-0.046,9.81,0.0,-0.01,0.0
1776538050.3859527,81.04,-1.06,-0.25,-0.176,-0.048,9.81,-0.01,-0.01,0.0
1776538050.3959324,81.04,-1.06,-0.25,-0.176,-0.05,9.81,-0.01,0.0,0.0
1776538050.4059525,81.04,-1.06,-0.25,-0.172,-0.055,9.81,-0.01,-0.01,-0.01
1776538050.4159348,81.04,-1.06,-0.25,-0.176,-0.057,9.81,-0.01,0.0,-0.01
1776538050.4259555,81.04,-1.06,-0.25,-0.175,-0.048,9.81,-0.01,-0.01,-0.01
1776538050.4367778,81.04,-1.06,-0.25,-0.171,-0.04,9.81,0.0,0.0,0.0
1776538050.4468105,81.04,-1.06,-0.25,-0.176,-0.029,9.81,-0.01,-0.01,0.0
1776538050.4561138,81.04,-1.06,-0.25,-0.18,-0.025,9.81,-0.01,0.0,-0.01
1776538050.465931,81.04,-1.06,-0.25,-0.181,-0.028,9.81,0.0,-0.01,-0.01
1776538050.4759188,81.04,-1.06,-0.25,-0.184,-0.032,9.81,-0.01,-0.01,-0.01
1776538050.4859054,81.05,-1.06,-0.25,-0.187,-0.041,9.81,-0.01,-0.01,-0.01
1776538050.49592,81.05,-1.06,-0.25,-0.18,-0.053,9.81,-0.01,-0.01,-0.01
1776538050.5059233,81.04,-1.06,-0.25,-0.182,-0.043,9.81,-0.01,-0.01,0.0
1776538050.5159168,81.04,-1.06,-0.25,-0.176,-0.044,9.81,-0.01,-0.01,0.0
1776538050.525919,81.04,-1.06,-0.25,-0.178,-0.042,9.81,0.0,-0.01,-0.01
1776538050.5359168,81.04,-1.06,-0.25,-0.171,-0.036,9.81,-0.01,0.0,-0.01
1776538050.5459023,81.05,-1.06,-0.25,-0.176,-0.035,9.81,0.0,0.0,-0.01
1776538050.5559165,81.05,-1.06,-0.25,-0.17,-0.026,9.81,-0.01,0.0,-0.01
1776538050.5658705,81.05,-1.06,-0.25,-0.181,-0.025,9.81,0.0,0.0,0.0
1776538050.5758681,81.05,-1.06,-0.24,-0.174,-0.025,9.81,-0.01,-0.01,0.0
1776538050.5858693,81.05,-1.06,-0.25,-0.18,-0.03,9.81,-0.01,0.0,-0.01
1776538050.5958922,81.05,-1.06,-0.24,-0.178,-0.043,9.81,-0.01,-0.01,-0.01
1776538050.6058886,81.05,-1.06,-0.25,-0.172,-0.056,9.81,-0.01,0.0,-0.01
1776538050.6158698,81.04,-1.06,-0.25,-0.169,-0.044,9.81,0.0,-0.01,0.0
1776538050.625928,81.04,-1.06,-0.25,-0.164,-0.056,9.81,0.0,0.0,0.0
1776538050.6359212,81.04,-1.06,-0.25,-0.171,-0.049,9.81,0.0,-0.01,-0.01
1776538050.6459231,81.04,-1.06,-0.25,-0.163,-0.051,9.81,-0.01,0.0,0.0
1776538050.6559188,81.04,-1.06,-0.25,-0.178,-0.038,9.81,0.0,-0.01,-0.01
1776538050.6659214,81.04,-1.06,-0.25,-0.176,-0.029,9.81,-0.01,0.0,-0.01
1776538050.6759055,81.04,-1.06,-0.24,-0.188,-0.03,9.81,0.0,-0.01,0.0
1776538050.6859229,81.04,-1.06,-0.25,-0.181,-0.031,9.81,-0.01,0.0,-0.01
1776538050.695901,81.04,-1.06,-0.25,-0.187,-0.034,9.81,-0.01,-0.01,0.0
1776538050.7059212,81.04,-1.06,-0.25,-0.177,-0.042,9.81,-0.01,-0.01,0.0
1776538050.7158678,81.04,-1.06,-0.25,-0.178,-0.044,9.81,-0.01,0.0,0.0
1776538050.7258856,81.04,-1.06,-0.25,-0.175,-0.048,9.81,-0.01,-0.01,-0.01
1776538050.7358842,81.04,-1.06,-0.25,-0.174,-0.049,9.81,-0.01,0.0,-0.01
1776538050.7459,81.04,-1.05,-0.25,-0.172,-0.043,9.81,0.0,-0.01,-0.01
1776538050.7558768,81.04,-1.05,-0.25,-0.169,-0.029,9.81,0.0,0.0,0.0
1776538050.7658951,81.04,-1.05,-0.25,-0.176,-0.022,9.81,-0.01,-0.01,0.0
1776538050.7758694,81.04,-1.06,-0.24,-0.177,-0.019,9.81,-0.01,0.0,0.0
1776538050.7858565,81.04,-1.06,-0.24,-0.182,-0.031,9.81,0.0,0.0,-0.01
1776538050.795868,81.04,-1.06,-0.24,-0.18,-0.047,9.81,-0.01,-0.01,-0.01
1776538050.8058686,81.04,-1.05,-0.25,-0.182,-0.04,9.81,-0.01,-0.01,0.0
1776538050.8159258,81.04,-1.05,-0.25,-0.177,-0.059,9.81,0.0,-0.01,0.0
1776538050.825854,81.04,-1.05,-0.25,-0.186,-0.047,9.81,-0.01,-0.01,0.0
1776538050.8358521,81.04,-1.05,-0.25,-0.178,-0.047,9.81,-0.01,-0.01,0.0
1776538050.8458698,81.04,-1.05,-0.25,-0.188,-0.037,9.81,0.0,-0.01,-0.01
1776538050.855868,81.04,-1.06,-0.24,-0.178,-0.037,9.81,-0.01,0.0,-0.01
1776538050.865852,81.04,-1.05,-0.25,-0.182,-0.032,9.81,0.0,-0.01,-0.01
1776538050.8758497,81.04,-1.05,-0.25,-0.17,-0.028,9.81,-0.01,0.0,-0.01
1776538050.8858514,81.04,-1.06,-0.24,-0.18,-0.035,9.81,0.0,-0.01,0.0
1776538050.8950315,81.04,-1.06,-0.24,-0.168,-0.03,9.81,0.0,0.0,0.0
1776538050.9050295,81.04,-1.06,-0.24,-0.183,-0.031,9.81,-0.01,0.0,-0.01
1776538050.9150586,81.04,-1.06,-0.24,-0.187,-0.04,9.81,0.0,-0.01,-0.01
1776538050.9250424,81.04,-1.06,-0.24,-0.192,-0.054,9.81,-0.01,0.0,-0.01
1776538050.9350238,81.04,-1.06,-0.24,-0.19,-0.047,9.81,-0.01,-0.01,0.0
1776538050.945033,81.04,-1.06,-0.24,-0.183,-0.053,9.81,-0.01,0.0,0.0
1776538050.9550323,81.04,-1.06,-0.24,-0.192,-0.044,9.81,0.0,-0.01,0.0
1776538050.9650156,81.04,-1.06,-0.24,-0.176,-0.036,9.81,-0.01,0.0,0.0
1776538050.9749875,81.04,-1.06,-0.24,-0.193,-0.032,9.81,0.0,0.0,-0.01
1776538050.984999,81.04,-1.06,-0.24,-0.184,-0.03,9.81,-0.01,-0.01,-0.01
1776538050.9949841,81.04,-1.06,-0.24,-0.192,-0.031,9.81,0.0,0.0,0.0
1776538051.004998,81.04,-1.06,-0.24,-0.18,-0.028,9.81,-0.01,-0.01,-0.01
1776538051.014988,81.04,-1.06,-0.24,-0.188,-0.031,9.81,-0.01,0.0,0.0
1776538051.0249858,81.04,-1.06,-0.24,-0.178,-0.034,9.81,-0.01,-0.01,0.0
1776538051.0353625,81.04,-1.06,-0.24,-0.182,-0.04,9.81,-0.01,0.0,-0.01
1776538051.044999,81.04,-1.06,-0.24,-0.181,-0.051,9.81,-0.01,-0.01,-0.01
1776538051.0549998,81.04,-1.06,-0.24,-0.18,-0.059,9.81,-0.01,0.0,-0.01
1776538051.0650058,81.04,-1.06,-0.24,-0.186,-0.044,9.81,0.0,-0.01,0.0
1776538051.0749853,81.04,-1.06,-0.24,-0.178,-0.054,9.81,0.0,0.0,0.0
1776538051.0850039,81.04,-1.06,-0.24,-0.181,-0.037,9.81,-0.01,-0.01,0.0
1776538051.095009,81.04,-1.06,-0.24,-0.177,-0.041,9.81,-0.01,0.0,0.0
1776538051.1050105,81.04,-1.07,-0.24,-0.186,-0.035,9.81,-0.01,-0.01,-0.01
1776538051.114993,81.05,-1.07,-0.24,-0.194,-0.042,9.81,-0.01,0.0,-0.01
1776538051.1252337,81.05,-1.07,-0.24,-0.198,-0.043,9.81,-0.01,-0.01,-0.01
1776538051.1349788,81.05,-1.06,-0.24,-0.19,-0.049,9.81,-0.01,0.0,0.0
1776538051.1449785,81.04,-1.06,-0.24,-0.184,-0.051,9.81,-0.01,-0.01,0.0
1776538051.155149,81.05,-1.06,-0.24,-0.168,-0.056,9.81,-0.01,0.0,0.0
1776538051.1649804,81.05,-1.06,-0.25,-0.169,-0.063,9.81,-0.01,-0.01,-0.01
1776538051.1749732,81.04,-1.06,-0.24,-0.164,-0.047,9.81,0.0,0.0,0.0
1776538051.1850014,81.04,-1.06,-0.24,-0.162,-0.049,9.81,0.0,0.0,0.0
1776538051.1954386,81.04,-1.06,-0.24,-0.171,-0.03,9.81,0.0,-0.01,0.0
1776538051.204981,81.04,-1.06,-0.24,-0.175,-0.038,9.81,-0.01,0.0,0.0
1776538051.2149873,81.04,-1.06,-0.24,-0.196,-0.029,9.81,0.0,-0.01,-0.01
1776538051.2249587,81.04,-1.06,-0.23,-0.196,-0.036,9.81,-0.01,0.0,-0.01
1776538051.2349737,81.05,-1.07,-0.24,-0.206,-0.04,9.81,0.0,-0.01,-0.01
1776538051.2449658,81.04,-1.07,-0.24,-0.189,-0.041,9.81,-0.01,0.0,-0.01
1776538051.254964,81.04,-1.06,-0.24,-0.195,-0.048,9.81,-0.01,-0.01,0.0
1776538051.2649643,81.04,-1.06,-0.24,-0.177,-0.048,9.81,-0.01,-0.01,0.0
1776538051.2749364,81.04,-1.06,-0.24,-0.18,-0.047,9.81,-0.01,-0.01,-0.01
1776538051.2849498,81.05,-1.06,-0.24,-0.168,-0.048,9.81,0.0,-0.01,-0.01
1776538051.2949536,81.05,-1.06,-0.24,-0.171,-0.047,9.81,-0.01,0.0,-0.01
1776538051.305134,81.05,-1.06,-0.24,-0.171,-0.042,9.81,0.0,-0.01,-0.01
1776538051.3149571,81.05,-1.06,-0.24,-0.174,-0.031,9.81,-0.01,0.0,0.0
1776538051.3249447,81.05,-1.06,-0.24,-0.186,-0.025,9.81,-0.01,-0.01,0.0
1776538051.334955,81.05,-1.06,-0.23,-0.182,-0.022,9.81,-0.01,0.0,-0.01
1776538051.3451447,81.05,-1.06,-0.23,-0.19,-0.03,9.81,0.0,0.0,-0.01
1776538051.355132,81.05,-1.06,-0.23,-0.193,-0.042,9.81,0.0,-0.01,-0.01
1776538051.3649726,81.05,-1.06,-0.24,-0.186,-0.054,9.81,-0.01,0.0,-0.01
1776538051.3751562,81.05,-1.06,-0.24,-0.182,-0.035,9.81,-0.01,-0.01,0.0
1776538051.3849277,81.04,-1.06,-0.24,-0.17,-0.049,9.81,0.0,0.0,0.0
1776538051.3949213,81.04,-1.06,-0.24,-0.169,-0.032,9.81,-0.01,0.0,0.0
1776538051.4049141,81.04,-1.06,-0.24,-0.172,-0.036,9.81,-0.01,0.0,0.0
1776538051.4149098,81.05,-1.06,-0.23,-0.178,-0.028,9.81,0.0,-0.01,-0.01
1776538051.4249132,81.05,-1.06,-0.23,-0.183,-0.025,9.81,-0.01,-0.01,-0.01
1776538051.4349108,81.05,-1.06,-0.23,-0.198,-0.029,9.81,-0.01,0.0,-0.01
1776538051.4449103,81.05,-1.06,-0.23,-0.194,-0.038,9.81,0.0,0.0,0.0
1776538051.4549081,81.05,-1.06,-0.23,-0.201,-0.04,9.81,-0.01,-0.01,0.0
1776538051.4649117,81.05,-1.06,-0.23,-0.187,-0.036,9.81,-0.01,-0.01,-0.01
1776538051.4749434,81.05,-1.06,-0.23,-0.189,-0.046,9.81,-0.01,-0.01,-0.01
1776538051.4849126,81.05,-1.07,-0.24,-0.176,-0.051,9.81,-0.01,-0.01,-0.01
1776538051.4950876,81.05,-1.06,-0.24,-0.177,-0.057,9.81,-0.01,0.0,-0.01
1776538051.5049098,81.05,-1.06,-0.24,-0.176,-0.051,9.81,-0.01,-0.01,-0.01
1776538051.5149224,81.05,-1.06,-0.24,-0.177,-0.048,9.81,0.0,0.0,0.0
1776538051.5249348,81.05,-1.06,-0.24,-0.177,-0.047,9.81,-0.01,-0.01,0.0
1776538051.5349183,81.05,-1.06,-0.24,-0.174,-0.043,9.81,-0.01,0.0,-0.01
1776538051.5449219,81.05,-1.06,-0.24,-0.174,-0.051,9.81,-0.01,0.0,-0.01
1776538051.5549095,81.05,-1.06,-0.24,-0.176,-0.036,9.81,-0.01,0.0,0.0
1776538051.5811086,81.05,-1.06,-0.24,-0.18,-0.048,9.81,-0.01,0.0,0.0
1776538051.5955935,81.04,-1.06,-0.24,-0.192,-0.044,9.81,0.0,-0.01,0.0
1776538051.6005826,81.04,-1.06,-0.24,-0.183,-0.048,9.81,-0.01,0.0,0.0
1776538051.6073263,81.05,-1.06,-0.24,-0.195,-0.044,9.81,0.0,-0.01,-0.01
1776538051.6144783,81.05,-1.06,-0.24,-0.184,-0.047,9.81,-0.01,0.0,-0.01
1776538051.6221027,81.05,-1.06,-0.24,-0.19,-0.04,9.81,0.0,-0.01,-0.01
1776538051.6284647,81.05,-1.06,-0.24,-0.176,-0.038,9.81,-0.01,-0.01,-0.01
1776538051.6358738,81.05,-1.06,-0.24,-0.183,-0.041,9.81,0.0,-0.01,0.0
1776538051.6461606,81.05,-1.06,-0.24,-0.171,-0.048,9.81,-0.01,-0.01,0.0
1776538051.6550286,81.05,-1.06,-0.24,-0.177,-0.051,9.81,-0.01,0.0,0.0
1776538051.66594,81.05,-1.06,-0.24,-0.184,-0.05,9.81,-0.01,-0.01,-0.01
1776538051.6755223,81.05,-1.06,-0.24,-0.187,-0.065,9.81,-0.01,0.0,-0.01
1776538051.6849551,81.05,-1.06,-0.24,-0.193,-0.051,9.81,0.0,-0.01,0.0
1776538051.6957939,81.05,-1.06,-0.24,-0.181,-0.059,9.81,0.0,0.0,0.0
1776538051.7053275,81.05,-1.06,-0.24,-0.189,-0.049,9.81,0.0,-0.01,0.0
1776538051.715855,81.05,-1.06,-0.24,-0.175,-0.047,9.81,-0.01,0.0,0.0
1776538051.7256615,81.05,-1.06,-0.24,-0.181,-0.038,9.81,0.0,-0.01,-0.01
1776538051.7348819,81.05,-1.06,-0.24,-0.175,-0.04,9.81,-0.01,-0.01,-0.01
1776538051.7454746,81.05,-1.06,-0.24,-0.184,-0.037,9.81,-0.01,-0.01,-0.01
1776538051.7548964,81.05,-1.06,-0.24,-0.175,-0.034,9.81,-0.01,-0.01,0.0
1776538051.7648275,81.05,-1.06,-0.24,-0.184,-0.035,9.81,-0.01,-0.01,0.0
1776538051.7751923,81.05,-1.06,-0.24,-0.18,-0.04,9.81,-0.01,-0.01,0.0
1776538051.7840512,81.05,-1.06,-0.24,-0.182,-0.05,9.81,-0.01,0.0,0.0
1776538051.7955017,81.05,-1.06,-0.24,-0.178,-0.043,9.81,0.0,-0.01,0.0
1776538051.8050842,81.05,-1.06,-0.24,-0.177,-0.051,9.81,0.0,0.0,0.0
1776538051.8154078,81.05,-1.06,-0.24,-0.187,-0.04,9.81,-0.01,-0.01,0.0
1776538051.8254478,81.04,-1.06,-0.24,-0.188,-0.037,9.81,0.0,0.0,0.0
1776538051.8354716,81.05,-1.06,-0.24,-0.198,-0.028,9.81,-0.01,-0.01,0.0
1776538051.8451319,81.05,-1.07,-0.24,-0.193,-0.024,9.81,-0.01,0.0,-0.01
1776538051.8551798,81.05,-1.07,-0.24,-0.199,-0.028,9.81,-0.01,0.0,-0.01
1776538051.8652754,81.05,-1.07,-0.24,-0.192,-0.037,9.81,-0.01,-0.01,-0.01
1776538051.8742867,81.05,-1.06,-0.24,-0.19,-0.042,9.81,-0.01,-0.01,0.0
1776538051.887046,81.05,-1.06,-0.24,-0.175,-0.041,9.81,-0.01,-0.01,0.0
1776538051.8957064,81.05,-1.06,-0.24,-0.177,-0.043,9.81,-0.01,-0.01,0.0
1776538051.9040282,81.05,-1.06,-0.24,-0.175,-0.043,9.81,0.0,-0.01,-0.01
1776538051.9140413,81.05,-1.06,-0.24,-0.169,-0.037,9.81,-0.01,0.0,0.0
1776538051.9259734,81.05,-1.06,-0.24,-0.17,-0.036,9.81,-0.01,-0.01,-0.01
1776538051.934722,81.05,-1.06,-0.24,-0.17,-0.034,9.81,0.0,0.0,0.0
1776538051.9440176,81.05,-1.06,-0.24,-0.176,-0.028,9.81,-0.01,-0.01,0.0
1776538051.9545014,81.05,-1.06,-0.24,-0.172,-0.026,9.81,-0.01,-0.01,0.0
1776538051.9640296,81.05,-1.06,-0.24,-0.172,-0.038,9.81,-0.01,-0.01,0.0
1776538051.9740088,81.05,-1.06,-0.24,-0.182,-0.053,9.81,-0.01,-0.01,-0.01
1776538051.9840002,81.05,-1.06,-0.25,-0.182,-0.062,9.81,-0.01,-0.01,-0.01
1776538051.99402,81.04,-1.06,-0.24,-0.181,-0.053,9.81,-0.01,-0.01,0.0
1776538052.003998,81.04,-1.06,-0.25,-0.18,-0.063,9.81,0.0,-0.01,0.0
1776538052.013997,81.04,-1.06,-0.25,-0.178,-0.046,9.81,-0.01,-0.01,0.0
1776538052.0240016,81.04,-1.06,-0.24,-0.18,-0.041,9.81,-0.01,0.0,0.0
1776538052.0342603,81.05,-1.06,-0.24,-0.186,-0.031,9.81,0.0,-0.01,-0.01
1776538052.0439937,81.05,-1.06,-0.24,-0.184,-0.024,9.81,-0.01,0.0,-0.01
1776538052.0539978,81.05,-1.06,-0.24,-0.19,-0.026,9.81,-0.01,-0.01,-0.01
1776538052.0639956,81.05,-1.06,-0.24,-0.184,-0.028,9.81,-0.01,0.0,0.0
1776538052.0739973,81.05,-1.06,-0.24,-0.186,-0.034,9.81,-0.01,-0.01,0.0
1776538052.0844238,81.05,-1.06,-0.24,-0.175,-0.038,9.81,-0.01,0.0,-0.01
1776538052.0943983,81.05,-1.06,-0.25,-0.182,-0.047,9.81,-0.01,-0.01,-0.01
1776538052.103963,81.05,-1.06,-0.25,-0.174,-0.049,9.81,-0.01,-0.01,-0.01
1776538052.1139622,81.05,-1.06,-0.25,-0.177,-0.051,9.81,-0.01,0.0,-0.01
1776538052.129791,81.05,-1.06,-0.25,-0.169,-0.051,9.81,0.0,-0.01,0.0
1776538052.1476593,81.05,-1.06,-0.25,-0.169,-0.043,9.81,-0.01,0.0,0.0
1776538052.1524658,81.05,-1.06,-0.25,-0.172,-0.034,9.81,-0.01,-0.01,0.0
1776538052.1632147,81.05,-1.05,-0.25,-0.172,-0.024,9.81,0.0,0.0,0.0
1776538052.1728783,81.05,-1.06,-0.24,-0.183,-0.034,9.81,0.0,0.0,-0.01
1776538052.1740406,81.05,-1.06,-0.25,-0.171,-0.06,9.81,-0.01,-0.01,-0.01
1776538052.1840625,81.05,-1.05,-0.26,-0.187,-0.14,9.81,-0.01,0.0,0.0
1776538052.1940439,81.04,-1.05,-0.28,-0.208,-0.029,9.81,-0.01,-0.01,0.0
1776538052.2039292,81.04,-1.05,-0.21,-0.172,0.126,9.81,-0.01,-0.01,0.0
1776538052.2139604,81.04,-1.04,-0.15,-0.186,0.143,9.81,0.02,-0.01,-0.01
1776538052.2239127,81.03,-1.04,-0.12,-0.201,0.254,9.81,0.02,-0.01,0.0
1776538052.2339451,81.03,-1.03,-0.07,-0.176,0.241,9.81,0.0,-0.01,-0.01
1776538052.243929,81.04,-1.04,-0.08,-0.212,0.108,9.81,0.01,-0.01,-0.01
1776538052.2539587,81.06,-1.05,-0.13,-0.206,-0.063,9.81,-0.01,0.0,-0.01
1776538052.2639532,81.08,-1.05,-0.2,-0.198,-0.277,9.81,-0.02,0.0,-0.02
1776538052.2739737,81.09,-1.06,-0.26,-0.201,-0.536,9.81,-0.02,-0.01,-0.02
1776538052.2839673,81.09,-1.07,-0.33,-0.188,-0.677,9.81,-0.02,0.0,-0.01
1776538052.293976,81.08,-1.07,-0.4,-0.254,-0.673,9.811,-0.02,0.01,0.0
1776538052.303916,81.06,-1.08,-0.41,-0.183,-0.474,9.811,-0.02,-0.01,0.01
1776538052.3139403,81.05,-1.07,-0.38,-0.177,-0.188,9.81,-0.01,0.0,0.01
1776538052.3239298,81.04,-1.08,-0.32,-0.174,0.103,9.81,0.01,-0.01,0.0
1776538052.3339515,81.05,-1.07,-0.25,-0.154,0.319,9.81,0.01,0.0,-0.01
1776538052.3439143,81.03,-1.06,-0.22,-0.196,0.456,9.81,0.0,-0.01,-0.01
1776538052.3539462,81.02,-1.07,-0.2,-0.145,0.594,9.81,-0.01,-0.01,0.0
1776538052.3639035,81.02,-1.06,-0.16,-0.125,0.58,9.81,-0.02,0.0,0.0
1776538052.3739464,81.04,-1.05,-0.17,-0.156,0.386,9.81,-0.01,-0.01,-0.01
1776538052.383953,81.07,-1.05,-0.19,-0.131,0.153,9.81,-0.02,-0.01,-0.02
1776538052.393909,81.08,-1.05,-0.23,-0.127,-0.164,9.81,-0.01,-0.01,-0.02
1776538052.4039063,81.07,-1.05,-0.27,-0.174,-0.387,9.81,0.0,-0.01,-0.01
1776538052.4139524,81.06,-1.05,-0.3,-0.165,-0.51,9.81,0.0,0.0,0.0
1776538052.4239404,81.05,-1.06,-0.32,-0.19,-0.478,9.81,0.0,-0.01,0.01
1776538052.433914,81.05,-1.07,-0.32,-0.223,-0.364,9.81,0.0,0.0,0.0
1776538052.4439018,81.06,-1.07,-0.31,-0.229,-0.214,9.81,0.0,0.0,-0.01
1776538052.4539,81.06,-1.07,-0.3,-0.237,-0.084,9.81,0.0,0.0,-0.01
1776538052.4639122,81.06,-1.07,-0.28,-0.235,0.06,9.81,-0.01,-0.01,-0.01
1776538052.4738996,81.05,-1.07,-0.26,-0.187,0.186,9.81,-0.01,0.0,0.0
1776538052.4839048,81.05,-1.07,-0.25,-0.152,0.25,9.81,-0.01,0.0,0.0
1776538052.493901,81.05,-1.06,-0.23,-0.116,0.274,9.81,-0.01,-0.01,0.0
1776538052.5038998,81.06,-1.05,-0.23,-0.079,0.133,9.81,-0.01,0.0,-0.01
1776538052.513904,81.06,-1.04,-0.25,-0.121,0.02,9.81,0.0,-0.01,-0.01
1776538052.5238998,81.06,-1.05,-0.26,-0.144,-0.102,9.81,-0.01,0.0,-0.01
1776538052.533902,81.06,-1.06,-0.29,-0.18,-0.153,9.811,-0.01,0.0,0.0
1776538052.5439026,81.05,-1.06,-0.31,-0.199,-0.236,9.81,-0.01,0.0,0.0
1776538052.553902,81.04,-1.08,-0.34,-0.257,-0.195,9.81,-0.01,-0.01,0.0
1776538052.5638838,81.05,-1.09,-0.34,-0.242,-0.187,9.81,-0.01,0.0,0.0
1776538052.5738966,81.06,-1.1,-0.36,-0.231,-0.143,9.81,-0.01,0.0,-0.01
1776538052.5838838,81.08,-1.1,-0.37,-0.281,-0.085,9.81,-0.02,0.0,-0.02
1776538052.5939004,81.09,-1.11,-0.38,-0.175,-0.022,9.81,-0.01,-0.01,-0.02
1776538052.6039028,81.08,-1.1,-0.4,-0.147,0.073,9.81,-0.02,0.0,-0.01
1776538052.6139143,81.07,-1.11,-0.4,-0.135,0.134,9.81,-0.02,0.0,0.0
1776538052.6238992,81.06,-1.09,-0.42,-0.098,0.23,9.811,-0.02,0.01,0.0
1776538052.6339014,81.05,-1.1,-0.4,-0.159,0.22,9.811,-0.02,-0.01,0.0
1776538052.6438692,81.04,-1.1,-0.39,-0.151,0.127,9.81,0.0,-0.01,0.0
1776538052.653852,81.03,-1.1,-0.39,-0.194,0.117,9.81,0.0,-0.01,0.0
1776538052.66383,81.02,-1.09,-0.36,-0.192,0.084,9.81,0.0,-0.01,0.0
1776538052.6738582,81.04,-1.09,-0.33,-0.207,0.031,9.81,0.01,-0.01,-0.01
1776538052.6841145,81.05,-1.08,-0.32,-0.214,0.03,9.81,0.01,-0.02,-0.01
1776538052.6938536,81.05,-1.08,-0.31,-0.17,0.0,9.81,0.0,-0.01,-0.01
1776538052.703845,81.05,-1.07,-0.33,-0.171,-0.019,9.81,0.0,-0.01,-0.01
1776538052.7138317,81.05,-1.08,-0.37,-0.119,-0.05,9.81,-0.02,0.0,0.0
1776538052.7238474,81.05,-1.07,-0.43,-0.129,-0.084,9.811,-0.02,0.0,0.0
1776538052.7338977,81.05,-1.08,-0.5,-0.104,-0.102,9.811,-0.04,0.0,0.0
1776538052.74381,81.05,-1.07,-0.56,-0.208,-0.054,9.81,-0.04,0.0,-0.01
1776538052.753849,81.07,-1.11,-0.61,-0.279,-0.057,9.81,-0.04,-0.01,-0.01
1776538052.763845,81.1,-1.12,-0.65,-0.339,0.041,9.811,-0.04,0.01,-0.02
1776538052.7738614,81.12,-1.13,-0.61,-0.404,0.075,9.811,-0.02,-0.01,-0.02
1776538052.7838106,81.12,-1.09,-0.54,-0.342,0.035,9.81,0.02,-0.02,-0.02
1776538052.7938108,81.09,-1.05,-0.44,-0.262,0.062,9.81,0.04,-0.03,0.0
1776538052.8038259,81.05,-1.02,-0.37,-0.129,0.074,9.81,0.05,-0.02,0.02
1776538052.8138137,81.0,-0.99,-0.31,0.02,0.218,9.81,0.03,-0.02,0.02
1776538052.8238344,80.98,-0.96,-0.26,0.144,0.28,9.81,0.02,-0.01,0.02
1776538052.8329926,80.99,-0.95,-0.24,0.169,0.253,9.81,0.01,0.0,0.0
1776538052.842995,81.0,-0.96,-0.25,0.105,0.166,9.81,-0.01,0.0,-0.01
1776538052.8529887,81.0,-0.98,-0.26,-0.016,0.065,9.81,-0.01,0.01,-0.01
1776538052.8638465,80.99,-1.01,-0.27,-0.187,-0.026,9.81,-0.01,0.01,0.0
1776538052.873823,80.99,-1.05,-0.28,-0.347,-0.055,9.81,-0.01,0.01,0.0
1776538052.883851,81.01,-1.08,-0.29,-0.483,-0.163,9.81,-0.01,0.0,-0.01
1776538052.8938496,81.02,-1.1,-0.33,-0.53,-0.269,9.81,0.0,-0.01,-0.02
1776538052.9030123,81.03,-1.11,-0.37,-0.465,-0.371,9.81,-0.02,-0.01,-0.02
1776538052.9130049,81.01,-1.09,-0.42,-0.366,-0.353,9.811,-0.02,-0.01,0.0
1776538052.9238331,80.99,-1.07,-0.44,-0.242,-0.238,9.811,-0.02,-0.01,0.01
1776538052.9338298,81.0,-1.05,-0.46,-0.152,-0.051,9.811,-0.02,-0.01,0.0
1776538052.9429955,81.04,-1.05,-0.45,-0.107,0.109,9.81,-0.02,-0.01,-0.02
1776538052.9529865,81.1,-1.04,-0.43,-0.077,0.198,9.81,-0.02,0.0,-0.03
1776538052.9629903,81.13,-1.04,-0.41,-0.111,0.214,9.811,-0.01,0.0,-0.03
1776538052.9730005,81.12,-1.04,-0.38,-0.113,0.251,9.81,0.0,0.0,-0.02
1776538052.9829705,81.08,-1.03,-0.34,-0.121,0.245,9.81,0.01,-0.01,0.01
1776538052.9929953,81.04,-1.03,-0.29,-0.109,0.313,9.81,0.01,-0.01,0.02
1776538053.0038044,81.0,-1.02,-0.24,-0.096,0.348,9.811,0.01,0.0,0.02
1776538053.013815,80.99,-1.02,-0.21,-0.098,0.281,9.81,0.01,-0.01,0.01
1776538053.0229998,81.0,-1.02,-0.21,-0.119,0.141,9.811,0.0,0.0,0.0
1776538053.0329995,81.01,-1.04,-0.23,-0.147,-0.067,9.81,-0.01,0.0,-0.01
1776538053.0430086,81.02,-1.04,-0.26,-0.223,-0.175,9.81,-0.01,0.0,-0.01
1776538053.0529869,81.01,-1.05,-0.27,-0.281,-0.307,9.81,0.0,-0.01,-0.01
1776538053.0629652,81.0,-1.07,-0.31,-0.321,-0.293,9.81,0.0,0.0,0.0
1776538053.0729697,81.0,-1.07,-0.31,-0.295,-0.242,9.811,-0.01,0.0,0.0
1776538053.0829632,81.0,-1.07,-0.3,-0.287,-0.195,9.81,0.0,-0.01,0.0
1776538053.0929754,81.02,-1.07,-0.32,-0.256,-0.154,9.81,0.0,-0.01,-0.01
1776538053.1029713,81.04,-1.06,-0.34,-0.218,-0.069,9.81,-0.02,0.0,-0.02
1776538053.112967,81.05,-1.06,-0.34,-0.184,0.023,9.81,-0.02,-0.01,-0.01
1776538053.1229696,81.06,-1.06,-0.35,-0.159,0.096,9.811,-0.02,0.0,-0.01
1776538053.1329465,81.07,-1.05,-0.36,-0.152,0.166,9.81,-0.02,0.0,-0.01
1776538053.1429698,81.08,-1.05,-0.34,-0.129,0.175,9.81,-0.02,0.0,-0.01
1776538053.1532478,81.07,-1.05,-0.32,-0.127,0.143,9.81,0.0,-0.01,-0.01
1776538053.162968,81.06,-1.04,-0.31,-0.116,0.113,9.81,0.0,-0.01,0.0
1776538053.1729157,81.04,-1.04,-0.29,-0.115,0.146,9.81,0.0,0.0,0.01
1776538053.182939,81.02,-1.04,-0.25,-0.134,0.168,9.81,0.01,0.0,0.01
1776538053.1929185,81.02,-1.04,-0.23,-0.169,0.134,9.81,0.01,-0.01,0.0
1776538053.2029414,81.02,-1.04,-0.21,-0.205,0.085,9.81,0.01,0.0,-0.01
1776538053.2129352,81.03,-1.05,-0.21,-0.244,-0.013,9.81,0.0,-0.01,-0.01
1776538053.2229424,81.03,-1.06,-0.22,-0.265,-0.092,9.81,0.0,-0.01,-0.01
1776538053.2329323,81.02,-1.06,-0.22,-0.259,-0.109,9.81,-0.01,0.0,0.0
1776538053.2429514,81.02,-1.06,-0.22,-0.24,-0.104,9.81,0.0,-0.01,0.0
1776538053.2529204,81.02,-1.05,-0.23,-0.187,-0.114,9.81,0.0,-0.01,0.0
1776538053.262935,81.02,-1.05,-0.24,-0.163,-0.066,9.81,-0.01,-0.01,0.0
1776538053.2729573,81.02,-1.05,-0.24,-0.129,-0.072,9.81,-0.01,-0.01,-0.01
1776538053.2829378,81.03,-1.05,-0.27,-0.144,-0.141,9.81,-0.01,0.0,-0.01
1776538053.292948,81.04,-1.06,-0.3,-0.162,-0.148,9.81,-0.02,0.0,-0.01
1776538053.3029156,81.04,-1.06,-0.32,-0.189,-0.151,9.81,-0.02,0.0,-0.01
1776538053.312922,81.04,-1.07,-0.33,-0.217,-0.109,9.81,-0.01,0.0,-0.01
1776538053.3228877,81.04,-1.08,-0.32,-0.242,0.041,9.81,-0.01,0.0,0.0
1776538053.332893,81.05,-1.08,-0.28,-0.231,0.17,9.81,-0.01,-0.01,-0.01
1776538053.342922,81.06,-1.07,-0.24,-0.224,0.231,9.81,0.01,-0.01,-0.01
1776538053.3528976,81.06,-1.06,-0.22,-0.183,0.244,9.81,0.0,-0.01,-0.01
1776538053.3628945,81.06,-1.04,-0.2,-0.138,0.232,9.81,0.0,-0.01,-0.01
1776538053.3728929,81.04,-1.04,-0.19,-0.086,0.159,9.81,0.0,-0.01,0.0
1776538053.3828945,81.02,-1.02,-0.18,-0.074,0.12,9.81,0.0,-0.01,0.01
1776538053.3931832,81.02,-1.02,-0.17,-0.072,0.053,9.81,0.0,0.0,0.0
1776538053.402925,81.02,-1.03,-0.18,-0.113,-0.077,9.81,0.0,0.0,0.0
1776538053.4129102,81.02,-1.03,-0.2,-0.159,-0.138,9.809,0.0,0.0,-0.01
1776538053.4230864,81.03,-1.05,-0.21,-0.22,-0.166,9.81,-0.01,0.0,-0.01
1776538053.4329038,81.03,-1.06,-0.21,-0.255,-0.202,9.81,0.0,0.0,-0.01
1776538053.442876,81.02,-1.06,-0.23,-0.287,-0.178,9.81,0.0,-0.01,0.0
1776538053.4529176,81.02,-1.07,-0.22,-0.262,-0.125,9.81,-0.01,-0.01,0.0
1776538053.4629416,81.01,-1.06,-0.23,-0.248,-0.11,9.809,0.0,0.0,0.0
1776538053.4728808,81.02,-1.07,-0.25,-0.217,-0.061,9.81,-0.01,-0.01,0.0
1776538053.4828959,81.03,-1.06,-0.25,-0.169,-0.004,9.81,-0.02,0.0,-0.01
1776538053.492893,81.05,-1.05,-0.25,-0.144,-0.005,9.81,-0.01,0.0,-0.01
1776538053.5028882,81.05,-1.06,-0.26,-0.129,0.048,9.81,-0.01,0.0,-0.01
1776538053.512876,81.05,-1.05,-0.25,-0.139,0.102,9.81,-0.01,0.0,-0.01
1776538053.5228877,81.05,-1.05,-0.23,-0.147,0.126,9.81,0.0,0.0,0.0
1776538053.532887,81.05,-1.05,-0.21,-0.166,0.162,9.81,0.0,-0.01,0.0
1776538053.5431824,81.05,-1.05,-0.19,-0.176,0.146,9.81,0.0,-0.01,-0.01
1776538053.5528896,81.04,-1.05,-0.18,-0.187,0.114,9.81,0.0,0.0,-0.01
1776538053.5628872,81.04,-1.05,-0.17,-0.186,0.063,9.81,0.0,-0.01,0.0
1776538053.572854,81.03,-1.05,-0.17,-0.172,0.016,9.81,0.0,-0.01,0.0
1776538053.5828996,81.02,-1.05,-0.18,-0.171,-0.055,9.81,0.0,-0.01,0.0
1776538053.5928903,81.02,-1.05,-0.19,-0.172,-0.113,9.81,0.0,0.0,0.0
1776538053.602963,81.02,-1.05,-0.2,-0.177,-0.131,9.81,-0.01,0.0,0.0
1776538053.6128802,81.02,-1.05,-0.2,-0.19,-0.146,9.81,0.0,0.0,-0.01
1776538053.6228735,81.03,-1.06,-0.19,-0.219,-0.117,9.81,0.0,0.0,-0.01
1776538053.6328845,81.03,-1.06,-0.19,-0.237,-0.048,9.81,0.0,-0.01,-0.01
1776538053.6428912,81.03,-1.07,-0.18,-0.248,0.012,9.81,-0.01,0.0,-0.01
1776538053.6655295,81.04,-1.07,-0.18,-0.231,0.049,9.81,-0.01,-0.01,-0.01
1776538053.6673102,81.04,-1.06,-0.18,-0.214,0.044,9.81,-0.01,0.0,-0.01
1776538053.672902,81.04,-1.06,-0.19,-0.174,0.035,9.81,-0.01,-0.01,-0.01
1776538053.6829176,81.04,-1.05,-0.2,-0.141,0.013,9.81,-0.01,0.0,0.0
1776538053.6928723,81.04,-1.05,-0.2,-0.115,-0.038,9.81,-0.01,0.0,0.0
1776538053.702868,81.05,-1.05,-0.22,-0.127,-0.06,9.81,-0.01,0.0,-0.01
1776538053.7128768,81.05,-1.05,-0.22,-0.139,-0.053,9.81,-0.01,0.0,-0.01
1776538053.722847,81.05,-1.06,-0.21,-0.166,-0.055,9.81,0.0,0.0,-0.01
1776538053.7328708,81.04,-1.06,-0.2,-0.184,-0.001,9.81,0.0,-0.01,0.0
1776538053.7428432,81.03,-1.06,-0.18,-0.22,0.038,9.81,0.01,0.0,0.0
1776538053.7528856,81.02,-1.06,-0.16,-0.219,0.092,9.81,0.0,-0.01,0.0
1776538053.7628567,81.02,-1.06,-0.15,-0.226,0.14,9.81,-0.01,0.0,0.0
1776538053.7728648,81.03,-1.07,-0.14,-0.198,0.117,9.81,-0.01,-0.01,0.0
1776538053.7828348,81.04,-1.05,-0.15,-0.199,0.032,9.81,0.0,0.0,-0.01
1776538053.7928581,81.05,-1.05,-0.16,-0.177,-0.02,9.81,-0.01,-0.01,-0.01
1776538053.80284,81.04,-1.05,-0.16,-0.16,-0.089,9.81,-0.01,0.0,-0.01
1776538053.8128211,81.04,-1.05,-0.18,-0.147,-0.133,9.81,0.0,-0.01,0.0
1776538053.8228219,81.03,-1.04,-0.19,-0.141,-0.123,9.81,-0.01,0.0,0.0
1776538053.832826,81.03,-1.05,-0.19,-0.156,-0.12,9.81,-0.01,-0.01,0.0
1776538053.8420222,81.04,-1.06,-0.19,-0.178,-0.107,9.81,0.0,0.0,-0.01
1776538053.8520207,81.04,-1.06,-0.19,-0.192,-0.05,9.81,-0.01,0.0,-0.01
1776538053.8620036,81.04,-1.06,-0.19,-0.213,-0.02,9.81,0.0,0.0,-0.01
1776538053.8719594,81.04,-1.07,-0.18,-0.214,0.056,9.81,-0.01,-0.01,0.0
1776538053.8828506,81.04,-1.06,-0.16,-0.205,0.084,9.81,-0.01,0.0,-0.01
1776538053.8928387,81.04,-1.06,-0.15,-0.187,0.095,9.81,0.0,-0.01,-0.01
1776538053.9028494,81.04,-1.05,-0.16,-0.159,0.051,9.81,-0.01,0.0,-0.01
1776538053.9128363,81.04,-1.05,-0.16,-0.14,0.023,9.81,-0.01,-0.01,0.0
1776538053.9228277,81.04,-1.04,-0.17,-0.146,-0.017,9.81,0.0,0.0,0.0
1776538053.9320114,81.04,-1.05,-0.17,-0.151,-0.054,9.81,0.0,-0.01,0.0
1776538053.9419916,81.04,-1.05,-0.18,-0.183,-0.056,9.81,-0.01,0.0,0.0
1776538053.9519858,81.04,-1.06,-0.18,-0.19,-0.071,9.81,-0.01,0.0,-0.01
1776538053.9620035,81.05,-1.06,-0.18,-0.206,-0.083,9.81,0.0,0.0,-0.01
1776538053.9720247,81.06,-1.06,-0.18,-0.207,-0.077,9.811,0.0,-0.01,-0.01
1776538053.9819815,81.05,-1.06,-0.17,-0.212,-0.023,9.81,0.0,-0.01,-0.01
1776538053.9919932,81.03,-1.06,-0.16,-0.176,0.029,9.81,0.0,-0.01,0.0
1776538054.0019646,81.03,-1.05,-0.16,-0.174,0.054,9.81,-0.01,-0.01,0.0
1776538054.0119865,81.03,-1.05,-0.16,-0.148,0.075,9.81,-0.01,0.0,0.0
1776538054.0229578,81.05,-1.05,-0.15,-0.159,0.031,9.81,-0.01,0.0,-0.01
1776538054.0320294,81.06,-1.05,-0.16,-0.181,-0.029,9.81,0.0,-0.01,-0.01
1776538054.0419958,81.05,-1.05,-0.17,-0.187,-0.059,9.81,-0.01,0.0,-0.01
1776538054.0520012,81.05,-1.06,-0.18,-0.2,-0.073,9.81,-0.01,0.0,0.0
1776538054.0619643,81.04,-1.06,-0.18,-0.193,-0.061,9.81,-0.01,0.0,0.0
1776538054.0719652,81.04,-1.06,-0.18,-0.195,-0.06,9.81,0.0,-0.01,0.0
1776538054.0819452,81.05,-1.06,-0.18,-0.188,-0.059,9.81,0.0,-0.01,-0.01
1776538054.0920618,81.06,-1.06,-0.18,-0.188,-0.029,9.811,-0.01,0.0,-0.01
1776538054.1019647,81.06,-1.05,-0.17,-0.188,-0.017,9.81,0.0,0.0,-0.01
1776538054.111934,81.05,-1.06,-0.16,-0.188,0.049,9.81,-0.01,-0.01,0.0
1776538054.1219542,81.05,-1.05,-0.16,-0.187,0.047,9.81,0.0,0.0,0.0
1776538054.1319437,81.05,-1.06,-0.16,-0.192,0.034,9.81,-0.01,-0.01,0.0
1776538054.1419444,81.06,-1.05,-0.17,-0.184,0.007,9.81,-0.01,0.0,-0.01
1776538054.1519625,81.06,-1.06,-0.16,-0.184,-0.035,9.81,-0.01,-0.01,-0.01
1776538054.1619427,81.06,-1.05,-0.17,-0.186,-0.084,9.81,0.0,-0.01,-0.01
1776538054.1719255,81.05,-1.06,-0.18,-0.181,-0.086,9.81,-0.01,-0.01,0.0
1776538054.1819446,81.04,-1.06,-0.19,-0.175,-0.065,9.81,-0.01,0.0,0.0
1776538054.1919248,81.04,-1.06,-0.18,-0.168,-0.025,9.81,-0.01,0.0,0.0
1776538054.2019432,81.05,-1.05,-0.17,-0.184,-0.019,9.81,0.0,0.0,-0.01
1776538054.211941,81.06,-1.05,-0.17,-0.206,-0.001,9.81,0.0,-0.01,-0.01
1776538054.2219582,81.06,-1.06,-0.16,-0.212,0.049,9.811,-0.01,0.0,-0.01
1776538054.2319064,81.06,-1.06,-0.15,-0.2,0.066,9.811,-0.01,0.0,0.0
1776538054.2419245,81.06,-1.05,-0.14,-0.2,0.053,9.81,0.0,-0.01,-0.01
1776538054.251902,81.06,-1.05,-0.14,-0.189,0.049,9.81,0.0,-0.01,-0.01
1776538054.2618861,81.06,-1.05,-0.13,-0.166,0.02,9.81,0.0,0.0,-0.01
1776538054.2719352,81.06,-1.05,-0.13,-0.16,-0.031,9.81,0.0,0.0,0.0
1776538054.2819362,81.04,-1.04,-0.15,-0.153,-0.126,9.81,0.0,0.0,0.0
1776538054.2920218,81.04,-1.05,-0.18,-0.16,-0.096,9.81,-0.01,-0.01,0.0
1776538054.3022225,81.05,-1.04,-0.17,-0.144,-0.116,9.81,-0.01,0.0,0.0
1776538054.3119187,81.07,-1.05,-0.18,-0.19,-0.133,9.81,0.0,-0.01,-0.01
1776538054.3218982,81.08,-1.06,-0.18,-0.182,-0.084,9.81,-0.01,-0.01,-0.02
1776538054.3318682,81.08,-1.05,-0.17,-0.207,-0.116,9.81,0.0,0.0,-0.01
1776538054.3418822,81.06,-1.06,-0.18,-0.236,-0.066,9.81,0.0,-0.01,0.0
1776538054.3518755,81.03,-1.06,-0.15,-0.213,0.113,9.81,-0.01,0.0,0.01
1776538054.3619125,81.03,-1.06,-0.12,-0.219,0.153,9.81,0.0,0.0,0.01
1776538054.3718956,81.04,-1.06,-0.12,-0.216,0.174,9.81,0.0,-0.01,0.0
1776538054.3819034,81.06,-1.06,-0.12,-0.195,0.098,9.81,-0.01,0.0,-0.01
1776538054.391866,81.07,-1.06,-0.14,-0.211,0.0,9.81,-0.01,-0.01,-0.02
1776538054.4019058,81.08,-1.06,-0.15,-0.178,-0.085,9.81,-0.01,0.0,-0.01
1776538054.4124932,81.07,-1.04,-0.17,-0.166,-0.165,9.81,-0.01,-0.01,0.0
1776538054.4220073,81.06,-1.04,-0.18,-0.144,-0.128,9.81,-0.01,-0.01,0.0
1776538054.4319265,81.06,-1.04,-0.17,-0.119,-0.129,9.81,0.0,0.0,0.0
1776538054.4418874,81.06,-1.03,-0.19,-0.131,-0.159,9.81,0.0,0.0,0.0
1776538054.4518895,81.05,-1.03,-0.2,-0.163,-0.063,9.81,-0.02,-0.02,0.0
1776538054.4618812,81.05,-1.03,-0.21,-0.201,0.022,9.81,-0.02,0.0,0.0
1776538054.4718828,81.06,-1.07,-0.2,-0.275,0.096,9.811,-0.02,0.0,0.0
1776538054.4818811,81.06,-1.07,-0.19,-0.292,0.08,9.81,-0.01,0.0,-0.01
1776538054.491894,81.07,-1.09,-0.14,-0.299,0.008,9.81,0.01,-0.01,-0.01
1776538054.5018804,81.07,-1.09,-0.13,-0.271,-0.105,9.81,0.02,0.0,-0.01
1776538054.5118947,81.06,-1.09,-0.14,-0.249,-0.107,9.81,0.01,-0.01,0.0
1776538054.5218766,81.05,-1.08,-0.18,-0.195,-0.018,9.81,-0.01,0.0,0.0
1776538054.5318806,81.06,-1.07,-0.19,-0.16,0.061,9.81,-0.02,-0.01,0.0
1776538054.5418854,81.07,-1.05,-0.19,-0.113,0.095,9.81,-0.02,-0.01,-0.01
1776538054.5519054,81.08,-1.05,-0.17,-0.139,0.042,9.81,-0.01,-0.01,-0.02
1776538054.56187,81.07,-1.06,-0.16,-0.147,-0.002,9.81,0.01,0.0,-0.01
1776538054.5718796,81.05,-1.07,-0.15,-0.202,-0.031,9.81,0.01,0.0,0.01
1776538054.5818887,81.03,-1.08,-0.15,-0.217,-0.004,9.81,0.0,0.0,0.01
1776538054.5918612,81.03,-1.08,-0.14,-0.218,0.036,9.81,0.0,0.0,0.0
1776538054.6018739,81.06,-1.08,-0.15,-0.245,0.044,9.81,-0.01,-0.01,-0.01
1776538054.6118712,81.08,-1.08,-0.15,-0.219,0.053,9.81,-0.01,-0.01,-0.02
1776538054.6218832,81.09,-1.07,-0.13,-0.226,-0.019,9.81,0.0,-0.01,-0.02
1776538054.6318805,81.08,-1.08,-0.13,-0.186,-0.077,9.81,0.01,-0.01,-0.01
1776538054.6418834,81.04,-1.07,-0.11,-0.146,0.001,9.81,0.01,0.0,0.01
1776538054.651879,81.02,-1.05,-0.08,-0.137,0.017,9.81,0.01,-0.01,0.02
1776538054.6619177,81.03,-1.05,-0.1,-0.135,-0.014,9.81,0.01,-0.01,0.0
1776538054.6718836,81.07,-1.05,-0.11,-0.122,0.0,9.81,-0.02,0.0,-0.02
1776538054.681879,81.09,-1.05,-0.09,-0.126,-0.085,9.81,-0.01,0.0,-0.02
1776538054.6918836,81.09,-1.04,-0.09,-0.168,-0.164,9.81,0.01,-0.01,-0.02
1776538054.7019627,81.09,-1.05,-0.1,-0.193,-0.138,9.81,0.0,-0.01,-0.01
1776538054.7118635,81.07,-1.06,-0.09,-0.237,-0.12,9.81,0.0,0.0,0.0
1776538054.7218635,81.05,-1.06,-0.1,-0.268,-0.097,9.811,0.0,0.0,0.01
1776538054.7318764,81.05,-1.07,-0.1,-0.248,-0.008,9.811,-0.01,-0.01,0.01
1776538054.7418845,81.07,-1.06,-0.07,-0.218,0.042,9.81,-0.01,0.0,-0.01
1776538054.7519054,81.09,-1.05,-0.05,-0.198,-0.048,9.81,0.01,-0.01,-0.02
1776538054.7618163,81.1,-1.04,-0.06,-0.146,-0.086,9.81,0.01,-0.01,-0.02
1776538054.7718227,81.09,-1.03,-0.07,-0.137,-0.091,9.809,-0.01,-0.01,-0.01
1776538054.7818282,81.08,-1.04,-0.09,-0.115,-0.139,9.81,-0.01,0.0,0.0
1776538054.791814,81.07,-1.04,-0.13,-0.135,-0.051,9.81,-0.02,0.0,0.01
1776538054.801818,81.07,-1.05,-0.11,-0.146,-0.043,9.81,-0.02,0.0,0.0
1776538054.8110003,81.08,-1.06,-0.11,-0.208,-0.102,9.81,0.0,0.0,-0.01
1776538054.8218567,81.09,-1.07,-0.12,-0.24,-0.147,9.81,0.0,0.0,-0.01
1776538054.8318472,81.08,-1.08,-0.15,-0.267,-0.138,9.81,-0.01,0.0,-0.01
1776538054.8418286,81.07,-1.09,-0.16,-0.256,-0.083,9.81,-0.02,0.0,0.0
1776538054.8518186,81.07,-1.08,-0.16,-0.244,-0.005,9.81,-0.01,0.0,0.0
1776538054.8618138,81.08,-1.08,-0.15,-0.193,0.051,9.81,-0.01,-0.01,0.0
1776538054.8718119,81.08,-1.07,-0.14,-0.15,0.062,9.809,0.0,-0.01,-0.01
1776538054.8818078,81.09,-1.06,-0.15,-0.122,-0.004,9.81,-0.01,-0.01,-0.01
1776538054.89182,81.08,-1.04,-0.21,-0.102,-0.051,9.81,-0.02,-0.01,-0.01
1776538054.901828,81.07,-1.05,-0.25,-0.172,-0.028,9.81,-0.03,-0.01,0.0
1776538054.9118226,81.06,-1.07,-0.26,-0.125,-0.049,9.81,-0.02,0.0,0.01
1776538054.9218252,81.07,-1.06,-0.24,-0.144,-0.016,9.81,-0.01,0.01,0.0
1776538054.9310074,81.08,-1.09,-0.17,-0.212,-0.038,9.81,0.02,-0.01,-0.01
1776538054.9409878,81.09,-1.08,-0.15,-0.205,-0.098,9.81,0.03,0.0,-0.01
1776538054.951005,81.08,-1.09,-0.18,-0.269,-0.085,9.81,0.01,-0.01,-0.01
1776538054.9609888,81.07,-1.09,-0.24,-0.218,-0.01,9.81,-0.02,0.0,0.0
1776538054.9709954,81.07,-1.09,-0.25,-0.213,0.126,9.81,-0.03,0.0,0.0
1776538054.9809935,81.09,-1.08,-0.22,-0.157,0.14,9.81,-0.02,-0.01,-0.01
1776538054.991015,81.09,-1.07,-0.18,-0.181,0.051,9.81,0.01,-0.01,-0.02
1776538055.0018227,81.09,-1.08,-0.17,-0.177,-0.037,9.81,0.02,-0.01,-0.01
1776538055.0109792,81.07,-1.08,-0.17,-0.131,0.0,9.811,0.0,0.0,0.01
1776538055.021799,81.06,-1.07,-0.18,-0.152,0.01,9.81,-0.01,-0.01,0.01
1776538055.0310102,81.07,-1.06,-0.22,-0.123,-0.02,9.81,-0.02,0.0,0.0
1776538055.040974,81.09,-1.06,-0.22,-0.207,0.036,9.81,-0.02,-0.02,-0.02
1776538055.0509357,81.1,-1.07,-0.16,-0.21,-0.023,9.81,0.0,-0.01,-0.02
1776538055.06097,81.08,-1.07,-0.14,-0.247,-0.049,9.81,0.02,-0.01,-0.01
1776538055.0709486,81.05,-1.06,-0.13,-0.201,0.001,9.81,0.02,-0.02,0.01
1776538055.0809689,81.03,-1.05,-0.11,-0.195,0.113,9.81,0.0,-0.01,0.02
1776538055.0909195,81.05,-1.05,-0.09,-0.159,0.113,9.81,0.0,-0.01,0.0
1776538055.1009438,81.09,-1.04,-0.1,-0.159,-0.018,9.81,0.0,0.0,-0.02
1776538055.110996,81.12,-1.05,-0.12,-0.159,-0.121,9.81,-0.01,-0.01,-0.02
1776538055.120977,81.12,-1.06,-0.11,-0.154,-0.262,9.81,0.0,0.0,-0.02
1776538055.1309462,81.11,-1.06,-0.15,-0.204,-0.351,9.81,0.01,0.0,0.0
1776538055.140943,81.09,-1.08,-0.18,-0.192,-0.189,9.81,-0.02,0.0,0.01
1776538055.1509235,81.09,-1.08,-0.13,-0.245,-0.085,9.81,-0.01,0.01,0.0
1776538055.160943,81.1,-1.07,-0.12,-0.175,-0.043,9.81,0.02,-0.01,0.0
1776538055.1709552,81.1,-1.07,-0.09,-0.247,0.025,9.81,0.0,-0.02,-0.01
1776538055.1809952,81.1,-1.06,-0.11,-0.217,-0.046,9.81,0.01,-0.01,-0.01
1776538055.191179,81.1,-1.07,-0.12,-0.208,0.107,9.81,-0.02,-0.01,0.0
1776538055.2013783,81.1,-1.05,-0.1,-0.153,0.074,9.81,-0.01,0.0,0.0
1776538055.2112956,81.1,-1.06,-0.09,-0.146,0.079,9.81,0.0,-0.01,0.0
1776538055.2209074,81.09,-1.04,-0.09,-0.144,-0.046,9.81,0.0,-0.01,-0.01
1776538055.2309103,81.09,-1.06,-0.14,-0.205,-0.18,9.81,-0.01,-0.01,0.0
1776538055.2409072,81.09,-1.08,-0.18,-0.184,-0.153,9.81,-0.02,0.01,0.0
1776538055.2509012,81.08,-1.08,-0.19,-0.195,-0.194,9.81,-0.02,0.0,0.0
1776538055.260911,81.09,-1.08,-0.22,-0.204,-0.166,9.81,-0.01,-0.01,0.0
1776538055.2709289,81.1,-1.08,-0.19,-0.169,-0.11,9.81,-0.01,-0.01,-0.01
1776538055.280931,81.1,-1.06,-0.18,-0.2,-0.17,9.81,0.02,-0.01,-0.01
1776538055.2909281,81.09,-1.07,-0.19,-0.181,-0.031,9.81,0.0,-0.01,0.0
1776538055.3008964,81.09,-1.07,-0.15,-0.158,0.152,9.81,-0.01,0.0,0.0
1776538055.3108964,81.09,-1.06,-0.13,-0.151,0.145,9.81,0.01,0.0,0.0
1776538055.3208988,81.09,-1.06,-0.14,-0.193,0.205,9.81,-0.01,-0.01,-0.01
1776538055.3309033,81.1,-1.07,-0.11,-0.174,0.157,9.81,-0.02,0.0,-0.01
1776538055.3409145,81.09,-1.07,-0.12,-0.234,-0.002,9.81,0.01,0.0,-0.01
1776538055.3509264,81.08,-1.08,-0.16,-0.24,-0.053,9.81,-0.01,-0.01,0.0
1776538055.3609035,81.08,-1.08,-0.16,-0.224,-0.037,9.81,-0.02,0.0,0.0
1776538055.3708713,81.08,-1.08,-0.14,-0.228,-0.083,9.81,0.0,0.0,0.0
1776538055.3808987,81.09,-1.08,-0.15,-0.202,-0.154,9.81,0.01,-0.01,-0.01
1776538055.3909054,81.11,-1.05,-0.16,-0.174,-0.129,9.81,0.0,-0.01,-0.02
1776538055.400938,81.11,-1.06,-0.16,-0.163,-0.22,9.81,0.0,-0.01,-0.01
1776538055.410946,81.11,-1.06,-0.19,-0.139,-0.175,9.81,0.0,0.0,-0.01
1776538055.4209585,81.1,-1.06,-0.19,-0.139,-0.059,9.81,-0.02,0.0,0.0
1776538055.4308836,81.1,-1.06,-0.15,-0.129,-0.016,9.81,0.0,0.0,0.0
1776538055.4408617,81.1,-1.06,-0.14,-0.177,0.017,9.81,0.01,0.0,0.0
1776538055.4511678,81.1,-1.07,-0.13,-0.206,0.035,9.81,0.0,0.0,-0.01
1776538055.4608836,81.1,-1.07,-0.15,-0.24,-0.02,9.81,-0.01,0.0,0.0
1776538055.4709044,81.1,-1.09,-0.18,-0.25,-0.01,9.81,-0.02,-0.01,0.0
1776538055.480905,81.1,-1.09,-0.18,-0.248,-0.02,9.81,-0.02,0.0,-0.01
1776538055.4908695,81.11,-1.08,-0.19,-0.206,-0.103,9.81,-0.01,-0.01,-0.01
1776538055.5008676,81.11,-1.07,-0.2,-0.211,-0.111,9.81,0.0,-0.01,-0.01
1776538055.5111737,81.11,-1.07,-0.21,-0.151,-0.147,9.81,0.0,-0.01,-0.01
1776538055.5208712,81.1,-1.07,-0.22,-0.141,-0.068,9.81,-0.01,0.0,0.0
1776538055.5309103,81.1,-1.06,-0.22,-0.121,-0.031,9.81,-0.01,0.0,0.0
1776538055.5408833,81.1,-1.06,-0.21,-0.126,0.019,9.81,-0.01,0.0,0.0
1776538055.5508633,81.1,-1.07,-0.19,-0.141,0.008,9.81,0.0,0.0,-0.01
1776538055.5608664,81.1,-1.07,-0.19,-0.166,0.011,9.81,0.0,-0.01,0.0
1776538055.570866,81.1,-1.08,-0.19,-0.193,0.032,9.81,-0.01,0.0,0.0
1776538055.580866,81.09,-1.08,-0.19,-0.211,0.038,9.81,-0.01,0.0,0.0
1776538055.5910118,81.1,-1.08,-0.19,-0.228,0.013,9.81,-0.01,0.0,-0.01
1776538055.6008618,81.11,-1.08,-0.19,-0.23,-0.026,9.81,-0.01,-0.01,-0.01
1776538055.6108675,81.11,-1.08,-0.19,-0.222,-0.089,9.81,0.0,-0.01,-0.01
1776538055.6208704,81.11,-1.08,-0.21,-0.198,-0.101,9.81,-0.01,-0.01,-0.01
1776538055.6308644,81.11,-1.08,-0.21,-0.171,-0.077,9.81,-0.01,0.0,0.0
1776538055.6408706,81.11,-1.07,-0.21,-0.154,-0.054,9.81,-0.01,-0.01,0.0
1776538055.650869,81.11,-1.07,-0.2,-0.156,-0.04,9.81,0.0,-0.01,0.0
1776538055.6608655,81.11,-1.07,-0.2,-0.159,-0.019,9.81,0.0,-0.01,-0.01
1776538055.6708694,81.11,-1.07,-0.19,-0.168,-0.016,9.81,-0.01,0.0,0.0
1776538055.6808658,81.11,-1.07,-0.2,-0.18,-0.022,9.81,-0.01,-0.01,0.0
1776538055.6908417,81.11,-1.07,-0.21,-0.184,-0.038,9.81,-0.01,0.0,0.0
1776538055.7008717,81.11,-1.07,-0.21,-0.19,-0.068,9.81,-0.01,-0.01,-0.01
1776538055.7108455,81.11,-1.07,-0.21,-0.178,-0.042,9.81,0.0,0.0,-0.01
1776538055.7208605,81.11,-1.07,-0.2,-0.195,-0.072,9.81,0.0,-0.01,0.0
1776538055.7308323,81.11,-1.07,-0.22,-0.181,-0.03,9.81,-0.01,-0.01,0.0
1776538055.740836,81.12,-1.07,-0.21,-0.188,-0.025,9.811,-0.01,-0.01,-0.01
1776538055.7508268,81.12,-1.07,-0.22,-0.195,-0.031,9.81,0.0,0.0,-0.01
1776538055.7608335,81.12,-1.07,-0.22,-0.181,-0.041,9.81,-0.01,0.0,-0.01
1776538055.7708454,81.12,-1.07,-0.22,-0.18,-0.028,9.81,-0.01,-0.01,-0.01
1776538055.7808292,81.12,-1.07,-0.21,-0.165,-0.026,9.81,0.0,-0.01,0.0
1776538055.790808,81.11,-1.06,-0.22,-0.178,-0.026,9.81,0.0,0.0,0.0
1776538055.8008175,81.11,-1.07,-0.22,-0.163,0.013,9.81,-0.01,-0.01,0.0
1776538055.8108149,81.12,-1.06,-0.21,-0.174,0.0,9.81,-0.01,0.0,-0.01
1776538055.8208134,81.13,-1.07,-0.21,-0.183,-0.029,9.81,0.0,-0.01,-0.01
1776538055.8308153,81.13,-1.07,-0.22,-0.194,-0.051,9.81,-0.01,0.0,-0.01
1776538055.8408122,81.12,-1.07,-0.23,-0.213,-0.059,9.81,-0.01,0.0,-0.01
1776538055.8508286,81.12,-1.07,-0.22,-0.249,-0.046,9.81,-0.01,-0.01,0.0
1776538055.8608341,81.12,-1.07,-0.22,-0.314,-0.02,9.81,-0.01,-0.01,0.0
1776538055.8700125,81.14,-1.07,-0.22,-0.311,-0.032,9.81,0.0,-0.01,-0.01
1776538055.8807807,81.15,-1.06,-0.22,-0.297,-0.048,9.81,0.0,-0.01,-0.02
1776538055.8907754,81.16,-1.05,-0.22,-0.25,-0.069,9.81,0.0,-0.02,-0.01
1776538055.9000142,81.16,-1.04,-0.23,-0.175,-0.048,9.81,0.0,-0.01,-0.01
1776538055.9100025,81.15,-1.02,-0.22,-0.101,-0.008,9.81,-0.01,-0.01,0.0
1776538055.919962,81.15,-1.0,-0.21,-0.062,0.037,9.81,-0.01,-0.01,0.0
1776538055.9300303,81.15,-1.0,-0.21,-0.047,0.037,9.81,-0.01,-0.01,0.0
1776538055.9399638,81.15,-1.0,-0.22,-0.069,0.013,9.809,-0.01,0.0,-0.01
1776538055.9499886,81.15,-1.01,-0.21,-0.122,-0.028,9.81,-0.01,0.0,-0.01
1776538055.9608583,81.15,-1.03,-0.23,-0.174,-0.061,9.81,-0.01,0.0,0.0
1776538055.9708157,81.14,-1.04,-0.24,-0.244,-0.072,9.81,-0.01,0.0,0.0
1776538055.980807,81.14,-1.05,-0.24,-0.275,-0.071,9.81,-0.01,0.0,0.0
1776538055.9908252,81.14,-1.06,-0.24,-0.301,-0.06,9.81,-0.01,-0.01,0.0
1776538055.9999628,81.15,-1.06,-0.25,-0.275,-0.047,9.81,-0.01,-0.01,-0.01
1776538056.0099435,81.16,-1.05,-0.25,-0.248,-0.05,9.81,-0.01,-0.01,-0.01
1776538056.0199547,81.17,-1.04,-0.26,-0.193,-0.051,9.81,-0.01,-0.01,-0.01
1776538056.0307968,81.16,-1.03,-0.26,-0.146,-0.031,9.81,-0.01,-0.01,-0.01
1776538056.040799,81.15,-1.02,-0.26,-0.107,0.0,9.81,-0.01,-0.01,0.0
1776538056.0499516,81.15,-1.02,-0.25,-0.099,0.032,9.81,-0.01,0.0,0.0
1776538056.0599673,81.15,-1.02,-0.25,-0.122,0.05,9.81,-0.01,0.0,0.0
1776538056.0699716,81.15,-1.03,-0.25,-0.162,0.054,9.81,-0.01,0.0,-0.01
1776538056.0799663,81.15,-1.04,-0.24,-0.208,0.05,9.81,-0.01,0.0,-0.01
1776538056.0899448,81.15,-1.04,-0.23,-0.251,0.037,9.81,0.0,0.0,-0.01
1776538056.0999389,81.15,-1.05,-0.22,-0.267,0.028,9.81,0.0,-0.01,-0.01
1776538056.1099732,81.15,-1.06,-0.22,-0.262,0.0,9.81,0.0,-0.01,0.0
1776538056.1199558,81.15,-1.05,-0.22,-0.243,-0.012,9.81,0.0,-0.01,0.0
1776538056.1299608,81.16,-1.04,-0.23,-0.205,-0.041,9.81,-0.01,-0.01,0.0
1776538056.139928,81.16,-1.04,-0.24,-0.172,-0.084,9.81,-0.01,-0.01,-0.01
1776538056.1499462,81.16,-1.03,-0.25,-0.157,-0.096,9.81,-0.01,-0.01,-0.01
1776538056.1599514,81.16,-1.04,-0.24,-0.144,-0.089,9.81,-0.01,0.0,-0.01
1776538056.1699092,81.16,-1.04,-0.24,-0.168,-0.056,9.81,0.0,0.0,0.0
1776538056.179942,81.16,-1.04,-0.23,-0.181,-0.02,9.81,0.0,0.0,0.0
1776538056.1899486,81.16,-1.05,-0.24,-0.211,-0.005,9.81,-0.01,0.0,0.0
1776538056.1999435,81.16,-1.06,-0.24,-0.238,-0.002,9.81,-0.01,0.0,-0.01
1776538056.209922,81.16,-1.06,-0.25,-0.263,-0.008,9.81,-0.01,0.0,-0.01
1776538056.219922,81.15,-1.07,-0.25,-0.253,-0.034,9.81,-0.01,-0.01,0.0
1776538056.2299278,81.15,-1.06,-0.25,-0.22,-0.014,9.81,-0.01,-0.01,0.0
1776538056.2399225,81.15,-1.05,-0.25,-0.195,0.01,9.81,0.0,-0.01,0.0
1776538056.2499235,81.16,-1.05,-0.24,-0.157,0.018,9.81,0.0,0.0,-0.01
1776538056.2598968,81.18,-1.04,-0.23,-0.15,0.0,9.81,0.0,0.0,-0.01
1776538056.2698965,81.18,-1.05,-0.24,-0.148,-0.04,9.81,0.0,-0.01,-0.01
1776538056.279921,81.17,-1.05,-0.25,-0.162,-0.057,9.81,-0.01,-0.01,0.0
1776538056.2899072,81.16,-1.05,-0.26,-0.172,-0.036,9.81,-0.01,0.0,0.0
1776538056.299883,81.15,-1.06,-0.25,-0.196,-0.006,9.81,-0.01,0.0,0.0
1776538056.309879,81.15,-1.06,-0.24,-0.222,0.0,9.81,0.0,0.0,0.0
1776538056.3203044,81.16,-1.06,-0.23,-0.231,0.026,9.81,0.0,-0.01,-0.01
1776538056.32985,81.17,-1.06,-0.22,-0.23,0.022,9.81,0.0,0.0,-0.01
1776538056.3398633,81.17,-1.06,-0.22,-0.214,0.01,9.81,0.0,-0.01,-0.01
1776538056.3498816,81.17,-1.05,-0.23,-0.199,-0.001,9.81,-0.01,-0.01,-0.01
1776538056.3598723,81.17,-1.05,-0.24,-0.182,-0.023,9.81,-0.01,-0.01,0.0
1776538056.3698997,81.16,-1.05,-0.25,-0.174,-0.057,9.81,-0.01,-0.01,0.0
1776538056.3798807,81.16,-1.05,-0.25,-0.143,-0.053,9.81,-0.01,0.0,0.0
1776538056.3898804,81.16,-1.05,-0.24,-0.123,-0.049,9.81,0.0,0.0,0.0
1776538056.3998585,81.18,-1.05,-0.24,-0.114,-0.069,9.81,0.0,0.0,-0.01
1776538056.4098747,81.18,-1.06,-0.24,-0.15,-0.059,9.81,0.0,0.0,-0.01
1776538056.4198556,81.18,-1.07,-0.25,-0.176,-0.057,9.81,-0.01,0.0,-0.01
1776538056.4298651,81.17,-1.07,-0.26,-0.219,-0.025,9.81,-0.01,0.0,0.0
1776538056.439908,81.17,-1.08,-0.26,-0.249,-0.001,9.81,-0.01,0.0,0.0
1776538056.4499013,81.17,-1.09,-0.26,-0.268,0.016,9.81,-0.01,0.0,0.0
1776538056.4598863,81.17,-1.09,-0.25,-0.261,0.026,9.81,0.0,-0.01,-0.01
1776538056.4698913,81.17,-1.08,-0.23,-0.241,0.043,9.81,0.0,-0.01,0.0
1776538056.47991,81.18,-1.07,-0.22,-0.183,0.04,9.81,0.0,-0.01,-0.01
1776538056.4899032,81.18,-1.07,-0.23,-0.153,0.036,9.81,0.0,-0.01,-0.01
1776538056.4998412,81.18,-1.06,-0.23,-0.125,0.016,9.81,-0.01,-0.01,-0.01
1776538056.5098908,81.18,-1.05,-0.23,-0.131,-0.016,9.81,-0.01,-0.01,-0.01
1776538056.5198886,81.17,-1.06,-0.24,-0.14,-0.047,9.81,-0.01,-0.01,0.0
1776538056.5298865,81.17,-1.06,-0.24,-0.16,-0.055,9.81,-0.01,0.0,0.0
1776538056.5398512,81.17,-1.07,-0.23,-0.187,-0.056,9.81,0.0,0.0,0.0
1776538056.5498574,81.18,-1.07,-0.23,-0.205,-0.05,9.81,0.0,0.0,-0.01
1776538056.5598562,81.18,-1.08,-0.23,-0.217,-0.068,9.811,0.0,0.0,-0.01
1776538056.5698562,81.18,-1.08,-0.24,-0.234,-0.066,9.811,-0.01,0.0,-0.01
1776538056.5798488,81.18,-1.08,-0.24,-0.225,-0.071,9.81,-0.01,-0.01,0.0
1776538056.5899222,81.17,-1.08,-0.26,-0.224,-0.043,9.81,-0.01,-0.01,0.0
1776538056.5998683,81.18,-1.07,-0.26,-0.192,-0.024,9.81,-0.01,-0.01,0.0
1776538056.6099496,81.19,-1.07,-0.26,-0.178,-0.032,9.811,-0.01,0.0,-0.01
1776538056.6198568,81.19,-1.07,-0.26,-0.159,-0.042,9.811,-0.01,0.0,-0.01
1776538056.6298652,81.18,-1.07,-0.25,-0.158,-0.013,9.81,0.0,0.0,0.0
1776538056.6398392,81.18,-1.07,-0.24,-0.159,0.026,9.81,0.0,0.0,0.0
1776538056.6498578,81.17,-1.07,-0.23,-0.169,0.057,9.81,0.0,0.0,0.0
1776538056.6598494,81.17,-1.07,-0.23,-0.189,0.072,9.81,0.0,0.0,0.0
1776538056.669845,81.17,-1.07,-0.23,-0.205,0.069,9.81,-0.01,-0.01,-0.01
1776538056.6798594,81.18,-1.07,-0.23,-0.212,0.026,9.81,-0.01,-0.01,-0.01
1776538056.6898353,81.18,-1.07,-0.23,-0.224,-0.013,9.811,-0.01,-0.01,-0.01
1776538056.6998649,81.19,-1.08,-0.24,-0.21,-0.065,9.81,-0.01,-0.01,-0.01
1776538056.7098281,81.18,-1.08,-0.24,-0.201,-0.109,9.811,0.0,-0.01,0.0
1776538056.7198062,81.18,-1.08,-0.25,-0.181,-0.125,9.81,0.0,0.0,0.0
1776538056.7298594,81.17,-1.07,-0.25,-0.174,-0.116,9.81,-0.01,0.0,0.0
1776538056.7398515,81.18,-1.08,-0.26,-0.172,-0.079,9.81,-0.01,0.0,0.0
1776538056.7501752,81.18,-1.07,-0.25,-0.175,-0.046,9.81,-0.01,0.0,-0.01
1776538056.7598057,81.19,-1.08,-0.25,-0.181,-0.008,9.81,0.0,-0.01,-0.01
1776538056.769796,81.19,-1.07,-0.24,-0.186,0.014,9.81,0.0,-0.01,-0.01
1776538056.7798064,81.19,-1.08,-0.24,-0.189,0.041,9.81,0.0,-0.01,-0.01
1776538056.7899084,81.18,-1.07,-0.23,-0.188,0.051,9.811,-0.01,0.0,0.0
1776538056.7998247,81.18,-1.07,-0.23,-0.183,0.028,9.81,-0.01,-0.01,0.0
1776538056.810171,81.18,-1.07,-0.24,-0.183,0.007,9.81,-0.01,-0.01,0.0
1776538056.819956,81.18,-1.08,-0.25,-0.183,-0.034,9.81,-0.01,0.0,0.0
1776538056.8297844,81.18,-1.08,-0.25,-0.202,-0.053,9.811,-0.01,0.0,-0.01
1776538056.8407776,81.19,-1.08,-0.25,-0.207,-0.084,9.81,0.0,0.0,-0.01
1776538056.8498116,81.18,-1.08,-0.25,-0.211,-0.089,9.811,0.0,-0.01,-0.01
1776538056.8609738,81.18,-1.08,-0.26,-0.2,-0.037,9.81,0.0,-0.01,0.0
1776538056.8698125,81.19,-1.08,-0.25,-0.187,0.014,9.81,-0.01,-0.01,0.0
1776538056.8797963,81.19,-1.08,-0.24,-0.176,0.035,9.81,-0.01,0.0,-0.01
1776538056.8888738,81.2,-1.07,-0.23,-0.169,0.023,9.81,0.0,-0.01,-0.01
1776538056.8998084,81.19,-1.06,-0.22,-0.166,-0.002,9.81,0.0,-0.01,-0.01
1776538056.9097903,81.18,-1.07,-0.23,-0.171,0.01,9.81,0.0,0.0,0.0
1776538056.9197664,81.18,-1.07,-0.23,-0.18,0.02,9.81,-0.01,0.0,0.0
1776538056.9297936,81.18,-1.07,-0.23,-0.201,0.0,9.811,-0.01,0.0,-0.01
1776538056.9397614,81.2,-1.08,-0.23,-0.225,-0.056,9.811,-0.01,0.0,-0.01
1776538056.9538896,81.2,-1.08,-0.24,-0.236,-0.117,9.81,0.0,0.0,-0.01
1776538057.0130954,81.19,-1.09,-0.26,-0.229,-0.128,9.81,-0.01,-0.01,0.0
1776538057.0146456,81.19,-1.08,-0.26,-0.207,-0.084,9.81,-0.01,-0.01,0.0
1776538057.0160897,81.19,-1.08,-0.26,-0.165,-0.028,9.81,-0.01,-0.01,0.0
1776538057.0175369,81.19,-1.07,-0.24,-0.152,0.001,9.81,0.0,0.0,-0.01
1776538057.019001,81.2,-1.07,-0.24,-0.154,-0.01,9.81,0.0,-0.01,-0.01
1776538057.0204213,81.19,-1.07,-0.24,-0.158,0.028,9.81,0.0,0.0,-0.01
1776538057.021865,81.18,-1.07,-0.23,-0.162,0.073,9.81,-0.01,0.0,0.0
1776538057.0289528,81.18,-1.08,-0.22,-0.176,0.095,9.811,-0.01,0.0,0.0
1776538057.079116,81.2,-1.08,-0.22,-0.194,0.062,9.811,-0.01,0.0,-0.01
1776538057.0996149,81.2,-1.08,-0.22,-0.23,0.016,9.81,-0.01,-0.01,-0.01
1776538057.1019838,81.2,-1.09,-0.22,-0.238,-0.055,9.81,0.0,-0.01,-0.01
1776538057.1046019,81.2,-1.09,-0.23,-0.231,-0.091,9.81,0.0,-0.01,0.0
1776538057.1063864,81.19,-1.09,-0.24,-0.206,-0.089,9.81,-0.01,-0.01,0.0
1776538057.1098485,81.19,-1.08,-0.24,-0.187,-0.079,9.81,-0.01,-0.01,0.0
1776538057.1118643,81.2,-1.08,-0.25,-0.165,-0.079,9.81,-0.01,-0.01,-0.01
1776538057.114954,81.2,-1.07,-0.24,-0.164,-0.062,9.81,0.0,-0.01,-0.01
1776538057.1191962,81.2,-1.07,-0.24,-0.162,-0.043,9.81,0.0,0.0,-0.01
1776538057.1291797,81.2,-1.07,-0.24,-0.175,-0.004,9.81,0.0,0.0,0.0
1776538057.138923,81.2,-1.08,-0.23,-0.186,0.031,9.811,-0.01,0.0,0.0
1776538057.149271,81.2,-1.08,-0.23,-0.2,0.051,9.81,-0.01,0.0,0.0
1776538057.1590822,81.2,-1.08,-0.23,-0.204,0.029,9.81,-0.01,0.0,-0.01
1776538057.1693985,81.2,-1.08,-0.23,-0.212,0.0,9.81,0.0,-0.01,-0.01
1776538057.17894,81.2,-1.08,-0.23,-0.198,-0.029,9.81,0.0,-0.01,-0.01
1776538057.188943,81.2,-1.08,-0.23,-0.192,-0.043,9.81,0.0,-0.01,0.0
1776538057.1989415,81.2,-1.08,-0.23,-0.187,-0.04,9.81,-0.01,-0.01,0.0
1776538057.20939,81.2,-1.08,-0.23,-0.181,-0.035,9.81,-0.01,-0.01,0.0
1776538057.2189405,81.2,-1.08,-0.23,-0.186,-0.017,9.81,0.0,-0.01,-0.01
1776538057.2289429,81.21,-1.08,-0.22,-0.186,-0.014,9.81,0.0,-0.01,-0.01
1776538057.2395942,81.21,-1.08,-0.22,-0.193,-0.014,9.81,0.0,0.0,-0.01
1776538057.248922,81.21,-1.08,-0.23,-0.188,-0.036,9.81,-0.01,0.0,-0.01
1776538057.2589362,81.2,-1.08,-0.23,-0.187,-0.036,9.81,-0.01,-0.01,0.0
1776538057.2689037,81.2,-1.08,-0.23,-0.177,-0.034,9.81,-0.01,0.0,0.0
1776538057.2789204,81.2,-1.08,-0.23,-0.177,-0.043,9.81,-0.01,-0.01,0.0
1776538057.2889109,81.2,-1.08,-0.24,-0.183,-0.037,9.81,-0.01,0.0,-0.01
1776538057.2988956,81.21,-1.08,-0.24,-0.187,-0.043,9.81,-0.01,0.0,-0.01
1776538057.3088963,81.21,-1.08,-0.24,-0.205,-0.028,9.81,-0.01,0.0,-0.01
1776538057.3188603,81.21,-1.08,-0.24,-0.205,-0.008,9.81,-0.01,-0.01,-0.01
1776538057.3288627,81.21,-1.08,-0.23,-0.21,0.02,9.81,-0.01,-0.01,0.0
1776538057.3388543,81.21,-1.08,-0.23,-0.193,0.028,9.81,-0.01,-0.01,-0.01
1776538057.3488662,81.21,-1.08,-0.22,-0.178,0.013,9.81,0.0,-0.01,-0.01
1776538057.358888,81.21,-1.08,-0.22,-0.164,-0.016,9.81,-0.01,-0.01,-0.01
1776538057.3688686,81.21,-1.07,-0.23,-0.171,-0.043,9.81,-0.01,-0.01,0.0
1776538057.378904,81.21,-1.08,-0.23,-0.17,-0.057,9.81,-0.01,0.0,0.0
1776538057.3888702,81.21,-1.08,-0.23,-0.18,-0.06,9.81,-0.01,0.0,0.0
1776538057.3989267,81.21,-1.08,-0.24,-0.193,-0.062,9.81,0.0,0.0,0.0
1776538057.4088378,81.21,-1.08,-0.24,-0.207,-0.055,9.81,-0.01,0.0,-0.01
1776538057.4188354,81.21,-1.08,-0.24,-0.219,-0.037,9.81,-0.01,0.0,-0.01
1776538057.4288697,81.21,-1.08,-0.24,-0.218,-0.028,9.809,-0.01,-0.01,-0.01
1776538057.4389188,81.21,-1.08,-0.24,-0.208,-0.014,9.809,-0.01,-0.01,-0.01
1776538057.4488711,81.21,-1.08,-0.23,-0.186,-0.008,9.81,-0.01,-0.01,0.0
1776538057.4588728,81.21,-1.08,-0.23,-0.17,0.0,9.81,-0.01,-0.01,0.0
1776538057.468869,81.21,-1.07,-0.23,-0.156,0.0,9.81,-0.01,-0.01,0.0
1776538057.4788435,81.21,-1.07,-0.23,-0.164,0.005,9.81,-0.01,0.0,0.0
1776538057.488837,81.21,-1.07,-0.23,-0.17,-0.006,9.81,-0.01,0.0,-0.01
1776538057.4988365,81.22,-1.07,-0.23,-0.19,-0.008,9.81,-0.01,0.0,-0.01
1776538057.5088384,81.22,-1.08,-0.23,-0.204,-0.018,9.81,0.0,0.0,-0.01
1776538057.518838,81.22,-1.08,-0.23,-0.213,-0.019,9.81,-0.01,-0.01,-0.01
1776538057.5288699,81.22,-1.08,-0.23,-0.216,-0.036,9.81,-0.01,-0.01,-0.01
1776538057.538871,81.22,-1.08,-0.23,-0.205,-0.036,9.81,-0.01,-0.01,0.0
1776538057.5492694,81.22,-1.08,-0.23,-0.194,-0.043,9.81,-0.01,-0.01,0.0
1776538057.5588663,81.21,-1.08,-0.23,-0.184,-0.047,9.809,-0.01,-0.01,0.0
1776538057.5688658,81.21,-1.08,-0.23,-0.181,-0.036,9.809,-0.01,0.0,0.0
1776538057.578835,81.21,-1.08,-0.23,-0.183,-0.037,9.809,-0.01,0.0,0.0
1776538057.5888329,81.22,-1.08,-0.23,-0.188,-0.016,9.81,-0.01,0.0,-0.01
1776538057.598833,81.22,-1.08,-0.23,-0.183,-0.008,9.81,-0.01,0.0,-0.01
1776538057.6088336,81.22,-1.08,-0.23,-0.196,0.0,9.81,-0.01,-0.01,-0.01
1776538057.6191127,81.22,-1.08,-0.23,-0.194,-0.013,9.81,-0.01,0.0,-0.01
1776538057.6288383,81.22,-1.08,-0.23,-0.194,-0.017,9.81,-0.01,-0.01,-0.01
1776538057.6389747,81.22,-1.08,-0.23,-0.178,-0.025,9.81,-0.01,-0.01,0.0
1776538057.6488063,81.22,-1.08,-0.23,-0.178,-0.023,9.81,0.0,-0.01,0.0
1776538057.6588063,81.22,-1.08,-0.23,-0.168,-0.024,9.81,-0.01,-0.01,0.0
1776538057.6688304,81.22,-1.08,-0.23,-0.174,-0.029,9.81,-0.01,-0.01,-0.01
1776538057.6789348,81.22,-1.08,-0.23,-0.183,-0.031,9.81,-0.01,0.0,-0.01
1776538057.6888733,81.22,-1.08,-0.23,-0.194,-0.023,9.81,-0.01,0.0,-0.01
1776538057.6988328,81.22,-1.08,-0.23,-0.195,-0.022,9.81,-0.01,-0.01,-0.01
1776538057.708834,81.22,-1.08,-0.23,-0.19,-0.031,9.81,-0.01,-0.01,-0.01
1776538057.7188027,81.22,-1.08,-0.23,-0.183,-0.03,9.81,-0.01,-0.01,-0.01
1776538057.7288,81.22,-1.08,-0.23,-0.166,-0.035,9.81,-0.01,-0.01,0.0
1776538057.7388327,81.22,-1.07,-0.24,-0.165,-0.032,9.81,0.0,-0.01,0.0
1776538057.7488344,81.22,-1.07,-0.24,-0.162,-0.028,9.81,-0.01,0.0,0.0
1776538057.7588413,81.22,-1.08,-0.23,-0.171,-0.012,9.81,-0.01,0.0,0.0
1776538057.768829,81.22,-1.08,-0.23,-0.188,-0.004,9.81,-0.01,0.0,-0.01
1776538057.7787814,81.22,-1.08,-0.23,-0.2,0.005,9.81,-0.01,-0.01,-0.01
1776538057.7891533,81.23,-1.08,-0.23,-0.212,0.014,9.81,-0.01,0.0,-0.01
1776538057.7990782,81.23,-1.08,-0.22,-0.211,0.011,9.81,-0.01,-0.01,-0.01
1776538057.809091,81.23,-1.08,-0.22,-0.204,-0.008,9.81,-0.01,-0.01,-0.01
1776538057.818839,81.23,-1.08,-0.22,-0.183,-0.022,9.81,-0.01,-0.01,-0.01
1776538057.8287685,81.23,-1.07,-0.23,-0.172,-0.037,9.81,-0.01,-0.01,0.0
1776538057.8387833,81.23,-1.07,-0.23,-0.166,-0.048,9.81,-0.01,-0.01,0.0
1776538057.848782,81.23,-1.07,-0.23,-0.172,-0.042,9.81,-0.01,0.0,0.0
1776538057.858796,81.23,-1.08,-0.23,-0.184,-0.047,9.81,-0.01,0.0,-0.01
1776538057.868789,81.23,-1.08,-0.23,-0.2,-0.03,9.81,-0.01,0.0,-0.01
1776538057.8787847,81.23,-1.08,-0.23,-0.208,-0.013,9.81,-0.01,0.0,-0.01
1776538057.888784,81.23,-1.08,-0.23,-0.211,-0.006,9.81,-0.01,-0.01,-0.01
1776538057.8988132,81.23,-1.08,-0.23,-0.207,-0.005,9.81,-0.01,-0.01,-0.01
1776538057.908798,81.23,-1.08,-0.23,-0.188,-0.017,9.81,-0.01,-0.01,0.0
1776538057.9188032,81.23,-1.08,-0.22,-0.181,-0.016,9.81,0.0,-0.01,0.0
1776538057.9288113,81.23,-1.07,-0.23,-0.175,-0.019,9.81,-0.01,-0.01,0.0
1776538057.9387803,81.23,-1.08,-0.22,-0.183,-0.013,9.81,-0.01,0.0,0.0
1776538057.9487767,81.23,-1.08,-0.23,-0.192,-0.019,9.81,-0.01,0.0,-0.01
1776538057.9579337,81.23,-1.08,-0.23,-0.2,-0.019,9.81,-0.01,-0.01,-0.01
1776538057.9687843,81.23,-1.08,-0.23,-0.21,-0.011,9.81,-0.01,0.0,-0.01
1776538057.977979,81.23,-1.08,-0.23,-0.214,-0.011,9.81,-0.01,-0.01,-0.01
1776538057.9887624,81.23,-1.08,-0.23,-0.212,-0.018,9.81,-0.01,-0.01,-0.01
1776538057.9987593,81.23,-1.08,-0.23,-0.193,-0.026,9.81,-0.01,-0.01,0.0
1776538058.0087528,81.23,-1.08,-0.23,-0.183,-0.04,9.81,-0.01,-0.01,0.0
1776538058.0187669,81.23,-1.08,-0.23,-0.174,-0.031,9.81,-0.01,-0.01,-0.01
1776538058.028764,81.23,-1.08,-0.23,-0.177,-0.036,9.81,-0.01,0.0,-0.01
1776538058.0379379,81.24,-1.08,-0.23,-0.188,-0.031,9.81,-0.01,-0.01,-0.01
1776538058.0479274,81.24,-1.08,-0.23,-0.196,-0.029,9.81,-0.01,0.0,-0.01
1776538058.057948,81.24,-1.08,-0.23,-0.196,-0.016,9.81,-0.01,-0.01,0.0
1776538058.067944,81.23,-1.08,-0.23,-0.183,-0.005,9.81,-0.01,-0.01,0.0
1776538058.07791,81.23,-1.08,-0.22,-0.18,-0.005,9.81,0.0,-0.01,0.0
1776538058.0879118,81.23,-1.08,-0.22,-0.176,-0.004,9.81,-0.01,-0.01,0.0
1776538058.0979223,81.23,-1.08,-0.22,-0.175,-0.002,9.81,-0.01,-0.01,-0.01
1776538058.1079268,81.24,-1.08,-0.22,-0.18,0.0,9.81,-0.01,0.0,-0.01
1776538058.118173,81.24,-1.08,-0.22,-0.188,-0.013,9.81,-0.01,0.0,-0.01
1776538058.128211,81.24,-1.08,-0.23,-0.195,-0.022,9.81,-0.01,0.0,-0.01
1776538058.1390116,81.24,-1.08,-0.23,-0.2,-0.037,9.81,-0.01,-0.01,-0.01
1776538058.1478908,81.24,-1.08,-0.23,-0.202,-0.036,9.81,-0.01,-0.01,0.0
1776538058.1579597,81.24,-1.08,-0.23,-0.184,-0.041,9.81,-0.01,-0.01,0.0
1776538058.167942,81.24,-1.08,-0.23,-0.177,-0.029,9.81,0.0,-0.01,0.0
1776538058.1779575,81.24,-1.07,-0.23,-0.166,-0.02,9.81,-0.01,-0.01,0.0
1776538058.1879294,81.24,-1.08,-0.22,-0.168,-0.002,9.81,-0.01,-0.01,-0.01
1776538058.1978965,81.24,-1.08,-0.22,-0.18,0.001,9.81,-0.01,0.0,-0.01
1776538058.2078955,81.24,-1.08,-0.22,-0.193,0.011,9.81,-0.01,0.0,-0.01
1776538058.2178988,81.24,-1.08,-0.22,-0.205,0.012,9.81,-0.01,0.0,-0.01
1776538058.227904,81.24,-1.08,-0.22,-0.208,0.005,9.81,-0.01,-0.01,-0.01
1776538058.237927,81.24,-1.08,-0.22,-0.204,-0.013,9.81,-0.01,-0.01,-0.01
1776538058.2478855,81.24,-1.08,-0.22,-0.195,-0.026,9.81,-0.01,-0.01,-0.01
1776538058.2578743,81.24,-1.08,-0.22,-0.19,-0.043,9.81,-0.01,-0.01,-0.01
1776538058.2678883,81.24,-1.08,-0.22,-0.177,-0.055,9.81,-0.01,-0.01,-0.01
1776538058.2784672,81.25,-1.07,-0.23,-0.175,-0.046,9.811,-0.01,0.0,-0.01
1776538058.2878997,81.25,-1.07,-0.23,-0.175,-0.049,9.811,-0.01,-0.01,-0.01
1776538058.2978837,81.25,-1.08,-0.23,-0.18,-0.034,9.811,-0.01,0.0,-0.01
1776538058.3079014,81.24,-1.08,-0.22,-0.174,-0.032,9.81,-0.01,0.0,0.0
1776538058.3178976,81.24,-1.08,-0.22,-0.182,-0.016,9.81,0.0,0.0,0.0
1776538058.327872,81.24,-1.08,-0.22,-0.183,-0.012,9.81,-0.01,0.0,0.0
1776538058.337859,81.24,-1.08,-0.22,-0.194,-0.001,9.81,-0.01,0.0,0.0
1776538058.3478749,81.24,-1.08,-0.22,-0.2,-0.008,9.81,-0.01,0.0,-0.01
1776538058.3578713,81.25,-1.08,-0.23,-0.211,-0.013,9.81,-0.01,-0.01,-0.01
1776538058.3678856,81.25,-1.08,-0.23,-0.213,-0.025,9.81,-0.01,0.0,-0.01
1776538058.378237,81.25,-1.08,-0.23,-0.202,-0.026,9.81,-0.01,-0.01,-0.01
1776538058.3878436,81.25,-1.08,-0.23,-0.189,-0.024,9.81,-0.01,-0.01,0.0
1776538058.3978581,81.25,-1.08,-0.23,-0.18,-0.032,9.81,-0.01,-0.01,0.0
1776538058.4078503,81.25,-1.07,-0.23,-0.163,-0.035,9.811,-0.01,-0.01,0.0
1776538058.417859,81.25,-1.07,-0.23,-0.164,-0.03,9.811,-0.01,0.0,0.0
1776538058.4279003,81.25,-1.07,-0.23,-0.166,-0.034,9.811,-0.01,0.0,0.0
1776538058.4378903,81.25,-1.08,-0.22,-0.184,-0.017,9.811,-0.01,0.0,0.0
1776538058.4483602,81.25,-1.08,-0.23,-0.202,-0.012,9.81,-0.01,0.0,-0.01
1776538058.4578695,81.25,-1.09,-0.22,-0.224,-0.006,9.81,-0.01,-0.01,-0.01
1776538058.467849,81.25,-1.09,-0.22,-0.23,-0.007,9.81,-0.01,0.0,-0.01
1776538058.4778657,81.25,-1.09,-0.22,-0.229,-0.012,9.81,-0.01,-0.01,-0.01
1776538058.4878793,81.25,-1.09,-0.22,-0.218,-0.014,9.81,-0.01,-0.01,-0.01
1776538058.4982028,81.25,-1.08,-0.23,-0.198,-0.023,9.81,-0.01,-0.01,-0.01
1776538058.507871,81.25,-1.08,-0.23,-0.17,-0.022,9.81,-0.01,-0.01,0.0
1776538058.517873,81.25,-1.08,-0.23,-0.151,-0.028,9.81,-0.01,-0.01,0.0
1776538058.5278742,81.25,-1.08,-0.22,-0.141,-0.031,9.811,-0.01,0.0,0.0
1776538058.537856,81.25,-1.07,-0.23,-0.154,-0.017,9.811,0.0,0.0,0.0
1776538058.5478532,81.25,-1.08,-0.23,-0.166,-0.011,9.81,-0.01,0.0,0.0
1776538058.5578632,81.25,-1.08,-0.23,-0.202,-0.002,9.81,-0.01,0.0,-0.01
1776538058.5678544,81.25,-1.08,-0.22,-0.219,-0.007,9.81,-0.01,0.0,-0.01
1776538058.5778258,81.25,-1.09,-0.22,-0.236,-0.006,9.81,-0.01,-0.01,-0.01
1776538058.5878217,81.26,-1.09,-0.22,-0.226,-0.016,9.811,-0.01,-0.01,-0.01
1776538058.5978394,81.26,-1.09,-0.22,-0.22,-0.026,9.811,-0.01,-0.01,-0.01
1776538058.6083362,81.26,-1.09,-0.22,-0.201,-0.034,9.811,-0.01,-0.01,-0.01
1776538058.6178725,81.26,-1.08,-0.23,-0.177,-0.053,9.811,-0.01,-0.01,0.0
1776538058.627826,81.25,-1.08,-0.23,-0.163,-0.055,9.81,-0.01,0.0,0.0
1776538058.637835,81.25,-1.08,-0.23,-0.158,-0.046,9.81,-0.01,0.0,0.0
1776538058.6478217,81.25,-1.08,-0.23,-0.166,-0.014,9.81,-0.01,0.0,0.0
1776538058.6578255,81.25,-1.08,-0.23,-0.183,0.004,9.81,0.0,0.0,0.0
1776538058.6678224,81.26,-1.09,-0.22,-0.201,0.011,9.811,-0.01,0.0,-0.01
1776538058.6778252,81.26,-1.09,-0.22,-0.214,0.001,9.81,-0.01,0.0,-0.01
1776538058.687825,81.26,-1.09,-0.22,-0.224,-0.008,9.81,-0.01,-0.01,-0.01
1776538058.6978295,81.26,-1.09,-0.22,-0.225,-0.024,9.81,-0.01,-0.01,0.0
1776538058.7078242,81.26,-1.09,-0.23,-0.211,-0.03,9.811,-0.01,-0.01,0.0
1776538058.7178378,81.26,-1.09,-0.22,-0.192,-0.041,9.811,-0.01,-0.01,0.0
1776538058.7277942,81.26,-1.08,-0.23,-0.181,-0.047,9.81,-0.01,-0.01,-0.01
1776538058.7378838,81.26,-1.08,-0.23,-0.17,-0.048,9.81,-0.01,-0.01,-0.01
1776538058.7478611,81.26,-1.08,-0.23,-0.172,-0.036,9.811,-0.01,0.0,0.0
1776538058.7577941,81.25,-1.08,-0.23,-0.178,-0.008,9.81,-0.01,0.0,0.0
1776538058.7678204,81.26,-1.09,-0.22,-0.186,0.016,9.811,-0.01,0.0,0.0
1776538058.7777777,81.26,-1.09,-0.22,-0.199,0.017,9.81,-0.01,0.0,-0.01
1776538058.7880301,81.26,-1.09,-0.22,-0.208,-0.002,9.81,-0.01,0.0,-0.01
1776538058.797795,81.26,-1.09,-0.22,-0.206,-0.031,9.81,-0.01,-0.01,-0.01
1776538058.807787,81.26,-1.09,-0.23,-0.193,-0.048,9.81,-0.01,-0.01,0.0
1776538058.818126,81.26,-1.08,-0.23,-0.184,-0.053,9.811,-0.01,-0.01,0.0
1776538058.8278098,81.26,-1.08,-0.23,-0.172,-0.048,9.811,-0.01,-0.01,0.0
1776538058.8377914,81.26,-1.08,-0.23,-0.17,-0.034,9.81,0.0,0.0,-0.01
1776538058.847812,81.26,-1.08,-0.23,-0.177,-0.035,9.81,-0.01,0.0,-0.01
1776538058.857806,81.26,-1.09,-0.22,-0.188,-0.018,9.81,-0.01,0.0,-0.01
1776538058.867795,81.26,-1.09,-0.22,-0.196,0.004,9.81,-0.01,0.0,0.0
1776538058.8777735,81.26,-1.09,-0.22,-0.198,0.024,9.81,-0.01,-0.01,0.0
1776538058.8878,81.26,-1.09,-0.21,-0.199,0.0,9.81,-0.01,-0.01,-0.01
1776538058.8979044,81.27,-1.09,-0.22,-0.195,-0.012,9.811,-0.01,-0.01,-0.01
1776538058.9077575,81.26,-1.09,-0.22,-0.187,-0.035,9.81,-0.01,-0.01,0.0
1776538058.9177587,81.26,-1.09,-0.22,-0.178,-0.044,9.81,-0.01,-0.01,0.0
1776538058.9269536,81.26,-1.08,-0.23,-0.178,-0.042,9.81,-0.01,0.0,0.0
1776538058.9378211,81.26,-1.08,-0.23,-0.182,-0.044,9.81,-0.01,-0.01,0.0
1776538058.9469578,81.26,-1.09,-0.22,-0.196,-0.029,9.81,-0.01,0.0,-0.01
1776538058.9569488,81.27,-1.09,-0.22,-0.202,-0.011,9.81,-0.01,0.0,-0.01
1776538058.9677293,81.27,-1.09,-0.22,-0.2,0.012,9.81,-0.01,-0.01,-0.01
1776538058.977741,81.27,-1.09,-0.22,-0.196,0.007,9.81,-0.01,-0.01,-0.01
1776538058.9877524,81.27,-1.09,-0.21,-0.187,-0.01,9.81,-0.01,-0.01,-0.01
1776538058.9977582,81.27,-1.08,-0.22,-0.178,-0.024,9.81,-0.01,-0.01,0.0
1776538059.007751,81.26,-1.09,-0.22,-0.17,-0.036,9.81,-0.01,-0.01,0.0
1776538059.017743,81.26,-1.08,-0.23,-0.166,-0.031,9.81,-0.01,0.0,0.0
1776538059.0277696,81.27,-1.08,-0.23,-0.182,-0.04,9.81,-0.01,0.0,-0.01
1776538059.0377493,81.27,-1.08,-0.23,-0.199,-0.037,9.81,-0.01,0.0,-0.01
1776538059.0477479,81.27,-1.09,-0.22,-0.206,-0.035,9.81,-0.01,-0.01,-0.01
1776538059.0569336,81.27,-1.09,-0.22,-0.207,-0.02,9.81,-0.01,-0.01,-0.01
1776538059.06689,81.27,-1.09,-0.22,-0.195,-0.005,9.81,-0.01,-0.01,0.0
1776538059.0768933,81.27,-1.08,-0.22,-0.186,0.002,9.81,-0.01,-0.01,0.0
1776538059.0868907,81.27,-1.08,-0.22,-0.186,0.002,9.81,-0.01,-0.01,0.0
1776538059.097842,81.27,-1.08,-0.22,-0.18,-0.001,9.81,-0.01,-0.01,0.0
1776538059.1069467,81.27,-1.08,-0.22,-0.187,-0.008,9.81,-0.01,0.0,-0.01
1776538059.1169393,81.27,-1.09,-0.22,-0.193,-0.024,9.81,-0.01,0.0,-0.01
1776538059.1269312,81.27,-1.09,-0.22,-0.2,-0.041,9.81,-0.01,0.0,-0.01
1776538059.1369185,81.27,-1.09,-0.22,-0.196,-0.037,9.81,-0.01,0.0,0.0
1776538059.1468985,81.27,-1.09,-0.22,-0.193,-0.032,9.81,0.0,-0.01,0.0
1776538059.1568909,81.27,-1.09,-0.22,-0.187,-0.025,9.81,0.0,-0.01,0.0
1776538059.167286,81.27,-1.08,-0.22,-0.182,-0.011,9.81,-0.01,-0.01,-0.01
1776538059.1769078,81.27,-1.08,-0.22,-0.181,-0.005,9.809,-0.01,-0.01,-0.01
1776538059.1869106,81.28,-1.08,-0.22,-0.181,-0.002,9.81,-0.01,-0.01,-0.01
1776538059.1968622,81.28,-1.08,-0.22,-0.187,-0.014,9.81,-0.01,-0.01,-0.01
1776538059.2068987,81.28,-1.08,-0.22,-0.181,-0.026,9.81,-0.01,-0.01,-0.01
1776538059.2168798,81.27,-1.08,-0.22,-0.186,-0.031,9.81,-0.01,0.0,0.0
1776538059.226892,81.27,-1.08,-0.22,-0.186,-0.03,9.81,-0.01,-0.01,0.0
1776538059.2369137,81.27,-1.08,-0.22,-0.18,-0.034,9.81,-0.01,0.0,0.0
1776538059.2469456,81.27,-1.08,-0.22,-0.186,-0.023,9.81,-0.01,-0.01,-0.01
1776538059.2569113,81.28,-1.08,-0.22,-0.187,-0.02,9.81,-0.01,0.0,-0.01
1776538059.2670953,81.28,-1.08,-0.22,-0.198,-0.013,9.81,-0.01,-0.01,-0.01
1776538059.2768593,81.28,-1.08,-0.22,-0.194,-0.012,9.81,-0.01,0.0,-0.01
1776538059.2868905,81.28,-1.08,-0.22,-0.198,-0.005,9.81,-0.01,-0.01,-0.01
1776538059.296874,81.28,-1.08,-0.22,-0.194,-0.007,9.81,-0.01,-0.01,-0.01
1776538059.3068953,81.28,-1.08,-0.22,-0.184,-0.019,9.81,-0.01,-0.01,0.0
1776538059.3168757,81.28,-1.08,-0.22,-0.17,-0.037,9.81,-0.01,-0.01,0.0
1776538059.3268936,81.28,-1.08,-0.23,-0.168,-0.051,9.81,-0.01,-0.01,0.0
1776538059.3368905,81.28,-1.08,-0.23,-0.166,-0.049,9.81,-0.01,0.0,0.0
1776538059.346892,81.28,-1.08,-0.23,-0.171,-0.047,9.81,-0.01,0.0,0.0
1776538059.3568954,81.28,-1.08,-0.23,-0.182,-0.031,9.81,-0.01,0.0,-0.01
1776538059.3668764,81.28,-1.08,-0.23,-0.192,-0.019,9.81,-0.01,0.0,-0.01
1776538059.376833,81.28,-1.08,-0.23,-0.195,-0.011,9.81,-0.01,-0.01,-0.01
1776538059.3868444,81.28,-1.08,-0.23,-0.199,-0.004,9.81,-0.01,-0.01,-0.01
1776538059.3968506,81.28,-1.08,-0.23,-0.192,-0.012,9.81,-0.01,-0.01,0.0
1776538059.40686,81.28,-1.08,-0.23,-0.186,-0.012,9.81,-0.01,-0.01,0.0
1776538059.4168634,81.28,-1.08,-0.23,-0.186,-0.019,9.81,-0.01,-0.01,0.0
1776538059.426861,81.29,-1.08,-0.23,-0.183,-0.017,9.81,-0.01,0.0,-0.01
1776538059.4368727,81.29,-1.08,-0.23,-0.187,-0.034,9.81,-0.01,-0.01,-0.01
1776538059.4468281,81.29,-1.08,-0.24,-0.187,-0.034,9.81,-0.01,-0.01,-0.01
1776538059.4568248,81.29,-1.07,-0.23,-0.174,-0.047,9.81,-0.01,-0.01,0.0
1776538059.4668186,81.28,-1.07,-0.23,-0.18,-0.034,9.81,0.0,-0.01,0.0
1776538059.4768763,81.28,-1.08,-0.23,-0.165,-0.023,9.81,-0.01,0.0,0.0
1776538059.4868612,81.28,-1.08,-0.23,-0.177,-0.004,9.81,0.0,0.0,0.0
1776538059.4968898,81.29,-1.08,-0.23,-0.175,-0.01,9.81,-0.01,0.0,-0.01
1776538059.5068767,81.29,-1.08,-0.23,-0.194,-0.013,9.81,-0.01,0.0,-0.01
1776538059.516844,81.29,-1.08,-0.23,-0.204,-0.02,9.81,-0.01,0.0,-0.01
1776538059.5268638,81.29,-1.08,-0.23,-0.212,-0.022,9.81,-0.01,-0.01,0.0
1776538059.5368502,81.29,-1.08,-0.23,-0.202,-0.028,9.81,-0.01,-0.01,0.0
1776538059.5469596,81.29,-1.08,-0.23,-0.187,-0.029,9.81,-0.01,-0.01,0.0
1776538059.556816,81.29,-1.07,-0.23,-0.17,-0.04,9.81,-0.01,-0.01,-0.01
1776538059.56681,81.29,-1.07,-0.23,-0.164,-0.041,9.81,-0.01,-0.01,-0.01
1776538059.5768108,81.29,-1.07,-0.23,-0.156,-0.042,9.81,-0.01,-0.01,0.0
1776538059.5868142,81.29,-1.07,-0.23,-0.163,-0.022,9.81,0.0,0.0,0.0
1776538059.596843,81.29,-1.07,-0.23,-0.166,-0.01,9.81,-0.01,0.0,0.0
1776538059.6071236,81.29,-1.08,-0.23,-0.19,0.006,9.81,-0.01,0.0,-0.01
1776538059.6168303,81.29,-1.08,-0.23,-0.205,0.01,9.81,-0.01,0.0,-0.01
1776538059.626827,81.29,-1.08,-0.22,-0.218,0.0,9.81,-0.01,-0.01,-0.01
1776538059.6368458,81.29,-1.08,-0.23,-0.213,-0.02,9.81,-0.01,-0.01,-0.01
1776538059.646847,81.29,-1.08,-0.23,-0.206,-0.03,9.81,-0.01,-0.01,0.0
1776538059.6568303,81.29,-1.08,-0.23,-0.182,-0.037,9.81,-0.01,-0.01,0.0
1776538059.6668398,81.29,-1.07,-0.23,-0.169,-0.041,9.81,-0.01,-0.01,0.0
1776538059.6768403,81.29,-1.07,-0.23,-0.169,-0.029,9.81,-0.01,-0.01,0.0
1776538059.686963,81.29,-1.07,-0.23,-0.171,-0.018,9.81,-0.01,0.0,-0.01
1776538059.6968317,81.29,-1.08,-0.23,-0.182,-0.004,9.81,0.0,0.0,-0.01
1776538059.7067769,81.3,-1.08,-0.23,-0.192,0.0,9.81,-0.01,0.0,-0.01
1776538059.7168303,81.3,-1.08,-0.23,-0.201,0.0,9.81,-0.01,0.0,-0.01
1776538059.7268124,81.29,-1.08,-0.23,-0.205,-0.01,9.81,-0.01,0.0,0.0
1776538059.736806,81.29,-1.08,-0.22,-0.208,-0.022,9.81,-0.01,-0.01,0.0
1776538059.7471764,81.29,-1.08,-0.23,-0.201,-0.037,9.81,-0.01,-0.01,0.0
1776538059.7567647,81.29,-1.08,-0.23,-0.198,-0.048,9.81,-0.01,-0.01,-0.01
1776538059.7667823,81.29,-1.08,-0.23,-0.189,-0.044,9.81,-0.01,-0.01,-0.01
1776538059.776812,81.3,-1.08,-0.24,-0.198,-0.038,9.81,-0.01,-0.01,-0.01
1776538059.7868116,81.3,-1.08,-0.23,-0.199,-0.026,9.81,-0.01,-0.01,-0.01
1776538059.7968087,81.3,-1.08,-0.23,-0.198,-0.013,9.81,-0.01,-0.01,-0.01
1776538059.8067772,81.3,-1.08,-0.23,-0.188,-0.011,9.81,-0.01,-0.01,-0.01
1776538059.816801,81.3,-1.08,-0.23,-0.187,-0.012,9.81,-0.01,-0.01,-0.01
1776538059.8267975,81.3,-1.08,-0.23,-0.176,-0.024,9.81,-0.01,-0.01,0.0
1776538059.8368058,81.29,-1.08,-0.23,-0.176,-0.023,9.81,-0.01,-0.01,0.0
1776538059.846807,81.29,-1.08,-0.23,-0.176,-0.022,9.81,-0.01,0.0,0.0
1776538059.8567958,81.29,-1.08,-0.23,-0.187,-0.022,9.81,-0.01,0.0,0.0
1776538059.8667955,81.3,-1.08,-0.23,-0.206,-0.016,9.81,-0.01,0.0,-0.01
1776538059.876797,81.3,-1.09,-0.22,-0.208,-0.018,9.81,-0.01,0.0,-0.01
1776538059.8869429,81.3,-1.09,-0.22,-0.218,-0.01,9.81,-0.01,0.0,-0.01
1776538059.89675,81.3,-1.08,-0.22,-0.205,-0.006,9.81,-0.01,-0.01,-0.01
1776538059.9067662,81.3,-1.08,-0.23,-0.194,-0.008,9.81,-0.01,-0.01,-0.01
1776538059.9167619,81.3,-1.08,-0.23,-0.174,-0.017,9.81,-0.01,-0.01,-0.01
1776538059.926778,81.3,-1.08,-0.23,-0.162,-0.028,9.81,-0.01,-0.01,0.0
1776538059.9367971,81.3,-1.07,-0.23,-0.162,-0.034,9.81,-0.01,-0.01,-0.01
1776538059.9467769,81.3,-1.08,-0.23,-0.17,-0.025,9.81,-0.01,0.0,0.0
1776538059.9567559,81.3,-1.08,-0.23,-0.189,-0.022,9.81,0.0,0.0,0.0
1776538059.96676,81.3,-1.09,-0.22,-0.202,-0.007,9.81,-0.01,0.0,-0.01
1776538059.9767451,81.3,-1.09,-0.22,-0.222,-0.002,9.81,-0.01,0.0,-0.01
1776538059.9867632,81.31,-1.09,-0.22,-0.213,-0.006,9.811,-0.01,-0.01,-0.01
1776538059.9959214,81.31,-1.08,-0.22,-0.206,-0.014,9.811,-0.01,-0.01,-0.01
1776538060.0059228,81.3,-1.08,-0.22,-0.186,-0.023,9.81,-0.01,-0.01,0.0
1776538060.0167568,81.3,-1.08,-0.22,-0.175,-0.024,9.81,0.0,-0.01,0.0
1776538060.0267708,81.3,-1.08,-0.23,-0.166,-0.023,9.81,-0.01,-0.01,0.0
1776538060.036762,81.3,-1.08,-0.23,-0.162,-0.017,9.81,-0.01,0.0,0.0
1776538060.0459154,81.3,-1.08,-0.23,-0.182,-0.016,9.81,-0.01,0.0,-0.01
1776538060.055903,81.31,-1.08,-0.22,-0.199,-0.016,9.811,-0.01,0.0,-0.01
1776538060.0659218,81.31,-1.09,-0.22,-0.213,-0.018,9.811,-0.01,0.0,-0.01
1776538060.0759377,81.31,-1.09,-0.22,-0.212,-0.014,9.811,-0.01,-0.01,-0.01
1776538060.086727,81.31,-1.09,-0.22,-0.21,-0.019,9.811,-0.01,-0.01,0.0
1776538060.0967479,81.31,-1.08,-0.22,-0.183,-0.014,9.811,-0.01,-0.01,0.0
1776538060.1067417,81.31,-1.08,-0.22,-0.172,-0.024,9.81,-0.01,-0.01,0.0
1776538060.1167421,81.31,-1.08,-0.23,-0.168,-0.025,9.81,0.0,-0.01,-0.01
1776538060.1267655,81.31,-1.08,-0.23,-0.166,-0.025,9.81,-0.01,0.0,-0.01
1776538060.1367228,81.31,-1.08,-0.23,-0.18,-0.026,9.81,0.0,0.0,0.0
1776538060.145914,81.31,-1.08,-0.22,-0.182,-0.016,9.81,-0.01,0.0,0.0
1776538060.1559505,81.31,-1.08,-0.22,-0.192,-0.01,9.81,-0.01,0.0,-0.01
1776538060.1659436,81.31,-1.08,-0.22,-0.192,-0.011,9.81,-0.01,0.0,-0.01
1776538060.1767232,81.31,-1.08,-0.22,-0.198,-0.028,9.81,-0.01,-0.01,-0.01
1776538060.1859076,81.31,-1.08,-0.22,-0.187,-0.037,9.81,-0.01,-0.01,-0.01
1776538060.1959121,81.31,-1.08,-0.23,-0.177,-0.04,9.81,-0.01,-0.01,0.0
1776538060.2059062,81.31,-1.08,-0.23,-0.177,-0.034,9.81,-0.01,-0.01,0.0
1776538060.2159102,81.31,-1.08,-0.23,-0.184,-0.022,9.81,-0.01,0.0,-0.01
1776538060.225899,81.31,-1.08,-0.22,-0.192,-0.024,9.81,-0.01,0.0,-0.01
1776538060.2359247,81.32,-1.08,-0.22,-0.194,-0.025,9.811,-0.01,-0.01,-0.01
1776538060.2458591,81.31,-1.08,-0.23,-0.199,-0.036,9.81,-0.01,-0.01,-0.01
1776538060.2558584,81.31,-1.08,-0.23,-0.193,-0.031,9.81,-0.01,-0.01,0.0
1776538060.2661288,81.31,-1.08,-0.23,-0.18,-0.031,9.81,0.0,-0.01,0.0
1776538060.275887,81.31,-1.08,-0.23,-0.17,-0.03,9.81,-0.01,-0.01,0.0
1776538060.2859,81.31,-1.08,-0.23,-0.176,-0.019,9.81,-0.01,0.0,-0.01
1776538060.2959232,81.32,-1.08,-0.23,-0.175,-0.026,9.811,-0.01,-0.01,-0.01
1776538060.3060484,81.33,-1.08,-0.23,-0.196,-0.019,9.81,-0.01,0.0,-0.01
1776538060.3160076,81.33,-1.08,-0.23,-0.198,-0.025,9.81,-0.01,-0.01,-0.01
1776538060.3258646,81.33,-1.08,-0.23,-0.213,-0.014,9.81,-0.01,-0.01,0.0
1776538060.3358643,81.33,-1.08,-0.23,-0.211,-0.022,9.81,-0.01,-0.01,0.0
1776538060.34589,81.33,-1.08,-0.23,-0.204,-0.029,9.81,-0.01,-0.01,-0.01
1776538060.3559103,81.33,-1.08,-0.23,-0.182,-0.047,9.81,-0.01,-0.01,-0.01
1776538060.3659647,81.33,-1.08,-0.24,-0.181,-0.051,9.81,-0.01,-0.01,-0.01
1776538060.3758633,81.33,-1.08,-0.24,-0.165,-0.053,9.81,-0.01,-0.01,0.0
1776538060.3860095,81.33,-1.08,-0.24,-0.169,-0.032,9.81,-0.01,0.0,0.0
1776538060.3959146,81.33,-1.08,-0.24,-0.174,-0.02,9.81,-0.01,0.0,0.0
1776538060.4059036,81.33,-1.08,-0.23,-0.193,-0.005,9.81,-0.01,0.0,-0.01
1776538060.4158795,81.33,-1.08,-0.23,-0.206,0.001,9.81,-0.01,0.0,-0.01
1776538060.425925,81.34,-1.09,-0.23,-0.206,-0.002,9.81,-0.01,-0.01,-0.01
1776538060.4358497,81.34,-1.08,-0.23,-0.205,-0.019,9.81,-0.01,-0.01,-0.01
1776538060.4458709,81.33,-1.08,-0.23,-0.189,-0.022,9.81,-0.01,-0.01,0.0
1776538060.4558735,81.33,-1.08,-0.23,-0.182,-0.029,9.81,0.0,-0.01,0.0
1776538060.472394,81.33,-1.07,-0.23,-0.164,-0.032,9.81,-0.01,-0.01,0.0
1776538060.4800317,81.33,-1.07,-0.23,-0.166,-0.025,9.81,-0.01,0.0,0.0
1776538060.4858277,81.33,-1.07,-0.23,-0.171,-0.024,9.81,-0.01,0.0,-0.01
1776538060.4958436,81.34,-1.07,-0.23,-0.193,-0.014,9.81,-0.01,0.0,-0.01
1776538060.505847,81.34,-1.08,-0.23,-0.205,-0.018,9.81,-0.01,0.0,-0.01
1776538060.5158577,81.34,-1.08,-0.23,-0.216,-0.007,9.81,-0.01,-0.01,-0.01
1776538060.5258842,81.34,-1.08,-0.23,-0.212,-0.013,9.81,-0.01,-0.01,-0.01
1776538060.535806,81.34,-1.08,-0.23,-0.204,-0.011,9.81,-0.01,-0.01,-0.01
1776538060.5458188,81.34,-1.08,-0.23,-0.183,-0.026,9.81,-0.01,-0.01,0.0
1776538060.555802,81.34,-1.08,-0.23,-0.177,-0.037,9.81,-0.01,-0.01,0.0
1776538060.5658114,81.34,-1.08,-0.24,-0.17,-0.043,9.81,-0.01,0.0,0.0
1776538060.5758038,81.34,-1.08,-0.24,-0.172,-0.028,9.81,-0.01,-0.01,0.0
1776538060.5858104,81.34,-1.08,-0.24,-0.18,-0.018,9.81,-0.01,0.0,0.0
1776538060.595808,81.34,-1.08,-0.23,-0.192,-0.004,9.81,-0.01,-0.01,-0.01
1776538060.6058044,81.34,-1.08,-0.23,-0.199,0.001,9.81,-0.01,0.0,-0.01
1776538060.615825,81.34,-1.08,-0.23,-0.202,-0.006,9.81,-0.01,-0.01,-0.01
1776538060.6258423,81.34,-1.08,-0.23,-0.194,-0.016,9.809,-0.01,-0.01,-0.01
1776538060.6358542,81.34,-1.08,-0.23,-0.188,-0.03,9.81,-0.01,-0.01,0.0
1776538060.645847,81.34,-1.08,-0.24,-0.175,-0.044,9.81,-0.01,0.0,0.0
1776538060.6558454,81.34,-1.08,-0.24,-0.171,-0.051,9.81,-0.01,-0.01,0.0
1776538060.6658547,81.34,-1.08,-0.24,-0.176,-0.057,9.81,-0.01,0.0,0.0
1776538060.675835,81.34,-1.08,-0.24,-0.183,-0.038,9.81,-0.01,0.0,0.0
1776538060.685809,81.34,-1.08,-0.24,-0.192,-0.019,9.81,0.0,0.0,-0.01
1776538060.6958084,81.34,-1.08,-0.23,-0.2,-0.01,9.81,-0.01,-0.01,-0.01
1776538060.7057927,81.35,-1.08,-0.23,-0.206,0.002,9.81,-0.01,-0.01,-0.01
1776538060.7158399,81.35,-1.08,-0.23,-0.201,-0.002,9.81,-0.01,-0.01,-0.01
1776538060.7258167,81.35,-1.08,-0.23,-0.195,-0.012,9.81,-0.01,-0.01,-0.01
1776538060.735809,81.34,-1.08,-0.23,-0.178,-0.026,9.809,-0.01,-0.01,0.0
1776538060.7458074,81.34,-1.08,-0.24,-0.168,-0.04,9.809,-0.01,-0.01,0.0
1776538060.7558048,81.34,-1.08,-0.24,-0.162,-0.046,9.809,-0.01,0.0,0.0
1776538060.765809,81.34,-1.08,-0.24,-0.172,-0.043,9.81,-0.01,0.0,0.0
1776538060.7757826,81.34,-1.08,-0.24,-0.189,-0.034,9.809,-0.01,0.0,0.0
1776538060.785811,81.35,-1.08,-0.23,-0.198,-0.018,9.81,-0.01,0.0,-0.01
1776538060.795813,81.35,-1.08,-0.23,-0.198,-0.012,9.81,-0.01,0.0,-0.01
1776538060.8058572,81.35,-1.08,-0.23,-0.196,-0.01,9.81,-0.01,-0.01,-0.01
1776538060.8158345,81.35,-1.08,-0.23,-0.186,-0.014,9.81,-0.01,-0.01,-0.01
1776538060.825814,81.35,-1.08,-0.23,-0.175,-0.02,9.81,-0.01,-0.01,0.0
1776538060.8357654,81.34,-1.07,-0.23,-0.174,-0.022,9.809,-0.01,-0.01,0.0
1776538060.8457787,81.35,-1.08,-0.24,-0.175,-0.023,9.81,-0.01,0.0,0.0
1776538060.8558092,81.35,-1.08,-0.24,-0.189,-0.026,9.81,-0.01,0.0,-0.01
1776538060.8658175,81.35,-1.08,-0.23,-0.201,-0.03,9.81,-0.01,0.0,-0.01
1776538060.8757503,81.35,-1.08,-0.23,-0.217,-0.025,9.81,-0.01,-0.01,-0.01
1776538060.8857603,81.35,-1.08,-0.23,-0.207,-0.026,9.81,-0.01,-0.01,0.0
1776538060.895801,81.35,-1.08,-0.23,-0.195,-0.013,9.81,-0.01,-0.01,-0.01
1776538060.9057925,81.35,-1.08,-0.23,-0.178,-0.016,9.81,0.0,-0.01,0.0
1776538060.9158192,81.35,-1.08,-0.23,-0.168,-0.017,9.81,-0.01,-0.01,0.0
1776538060.9258325,81.35,-1.08,-0.23,-0.174,-0.01,9.81,-0.01,0.0,0.0
1776538060.9357557,81.35,-1.08,-0.23,-0.176,-0.005,9.81,-0.01,0.0,0.0
1776538060.9458425,81.35,-1.08,-0.23,-0.199,-0.012,9.81,-0.01,0.0,-0.01
1776538060.956052,81.35,-1.09,-0.23,-0.208,-0.022,9.81,-0.01,0.0,-0.01
1776538060.9657965,81.35,-1.08,-0.23,-0.223,-0.014,9.81,-0.01,0.0,-0.01
1776538060.9757674,81.36,-1.09,-0.23,-0.216,-0.018,9.81,-0.01,-0.01,-0.01
1776538060.9857612,81.36,-1.08,-0.23,-0.21,-0.03,9.81,-0.01,-0.01,-0.01
1776538060.9959722,81.36,-1.08,-0.23,-0.182,-0.036,9.81,-0.01,-0.01,-0.01
1776538061.0057788,81.36,-1.08,-0.24,-0.169,-0.046,9.81,-0.01,-0.01,0.0
1776538061.015015,81.35,-1.08,-0.24,-0.158,-0.036,9.81,-0.01,-0.01,0.0
1776538061.0257733,81.35,-1.08,-0.24,-0.165,-0.024,9.81,-0.01,0.0,0.0
1776538061.0349076,81.36,-1.08,-0.24,-0.183,-0.011,9.81,-0.01,0.0,-0.01
1776538061.0449276,81.36,-1.08,-0.23,-0.2,-0.006,9.81,-0.01,0.0,-0.01
1776538061.0549526,81.36,-1.09,-0.24,-0.212,-0.008,9.81,-0.01,0.0,-0.01
1776538061.0657427,81.36,-1.09,-0.24,-0.213,-0.018,9.81,-0.01,-0.01,-0.01
1776538061.0757563,81.36,-1.09,-0.24,-0.21,-0.026,9.81,-0.01,-0.01,0.0
1776538061.0857615,81.36,-1.09,-0.24,-0.196,-0.034,9.81,-0.01,-0.01,0.0
1776538061.0949073,81.36,-1.08,-0.24,-0.186,-0.031,9.81,-0.01,-0.01,0.0
1776538061.1049366,81.36,-1.08,-0.23,-0.181,-0.014,9.81,-0.01,-0.01,-0.01
1776538061.1149235,81.36,-1.08,-0.23,-0.182,-0.012,9.81,-0.01,0.0,-0.01
1776538061.1257238,81.36,-1.09,-0.24,-0.188,-0.007,9.81,-0.01,-0.01,-0.01
1776538061.1357372,81.36,-1.08,-0.23,-0.194,-0.006,9.81,-0.01,0.0,-0.01
1776538061.1457381,81.36,-1.08,-0.23,-0.194,-0.011,9.81,-0.01,-0.01,0.0
1776538061.1557367,81.36,-1.08,-0.23,-0.198,-0.008,9.81,-0.01,-0.01,0.0
1776538061.1657233,81.36,-1.08,-0.23,-0.184,-0.026,9.81,-0.01,-0.01,0.0
1776538061.1757178,81.36,-1.08,-0.23,-0.181,-0.03,9.81,-0.01,-0.01,0.0
1776538061.1851592,81.36,-1.08,-0.23,-0.18,-0.034,9.81,-0.01,-0.01,-0.01
1776538061.1948748,81.36,-1.08,-0.23,-0.182,-0.029,9.81,-0.01,0.0,-0.01
1776538061.2048683,81.36,-1.08,-0.23,-0.192,-0.024,9.81,-0.01,0.0,-0.01
1776538061.2149,81.36,-1.09,-0.24,-0.193,-0.018,9.81,-0.01,-0.01,-0.01
1776538061.2248752,81.36,-1.08,-0.23,-0.2,-0.01,9.81,-0.01,0.0,-0.01
1776538061.2348983,81.36,-1.08,-0.23,-0.192,-0.007,9.81,-0.01,-0.01,-0.01
1776538061.2449121,81.36,-1.09,-0.23,-0.186,-0.012,9.81,-0.01,-0.01,0.0
1776538061.2548926,81.37,-1.08,-0.23,-0.182,-0.022,9.81,0.0,-0.01,-0.01
1776538061.2648666,81.37,-1.08,-0.23,-0.168,-0.035,9.81,-0.01,-0.01,-0.01
1776538061.2749162,81.37,-1.08,-0.24,-0.168,-0.049,9.81,-0.01,0.0,-0.01
1776538061.2848608,81.37,-1.08,-0.24,-0.158,-0.046,9.81,-0.01,-0.01,0.0
1776538061.2948742,81.37,-1.08,-0.24,-0.171,-0.043,9.81,0.0,0.0,0.0
1776538061.304893,81.36,-1.08,-0.23,-0.175,-0.024,9.81,-0.01,0.0,0.0
1776538061.3148613,81.37,-1.08,-0.23,-0.19,-0.017,9.81,0.0,0.0,0.0
1776538061.3249009,81.37,-1.08,-0.23,-0.19,-0.007,9.81,-0.01,-0.01,-0.01
1776538061.3359027,81.37,-1.08,-0.23,-0.198,-0.019,9.81,-0.01,0.0,-0.01
1776538061.344901,81.37,-1.08,-0.23,-0.192,-0.014,9.81,-0.01,-0.01,-0.01
1776538061.354947,81.37,-1.07,-0.23,-0.182,-0.024,9.81,0.0,-0.01,0.0
1776538061.3649075,81.37,-1.08,-0.23,-0.176,-0.019,9.81,-0.01,-0.01,0.0
1776538061.3749616,81.37,-1.07,-0.23,-0.172,-0.012,9.81,-0.01,0.0,0.0
1776538061.3849576,81.37,-1.07,-0.23,-0.169,-0.016,9.81,-0.01,-0.01,-0.01
1776538061.3951437,81.37,-1.07,-0.23,-0.186,-0.012,9.81,-0.01,0.0,-0.01
1776538061.404861,81.37,-1.08,-0.23,-0.189,-0.031,9.81,-0.01,-0.01,-0.01
1776538061.4148588,81.37,-1.08,-0.24,-0.195,-0.025,9.81,-0.01,0.0,-0.01
1776538061.4249358,81.37,-1.08,-0.23,-0.19,-0.025,9.81,-0.01,-0.01,0.0
1776538061.4350584,81.37,-1.08,-0.23,-0.187,-0.01,9.81,0.0,-0.01,0.0
1776538061.4449906,81.37,-1.08,-0.23,-0.182,-0.005,9.81,-0.01,-0.01,0.0
1776538061.4548686,81.37,-1.08,-0.23,-0.183,-0.006,9.81,-0.01,-0.01,-0.01
1776538061.464868,81.37,-1.08,-0.23,-0.189,-0.011,9.81,-0.01,0.0,-0.01
1776538061.4748378,81.38,-1.08,-0.23,-0.194,-0.024,9.811,-0.01,-0.01,-0.01
1776538061.4848294,81.38,-1.08,-0.23,-0.2,-0.035,9.811,-0.01,-0.01,-0.01
1776538061.4948514,81.37,-1.08,-0.23,-0.199,-0.026,9.81,-0.01,-0.01,0.0
1776538061.504862,81.37,-1.08,-0.23,-0.193,-0.018,9.81,-0.01,-0.01,0.0
1776538061.5148578,81.37,-1.08,-0.23,-0.19,-0.005,9.81,-0.01,-0.01,-0.01
1776538061.5248618,81.38,-1.08,-0.23,-0.182,-0.019,9.811,-0.01,-0.01,-0.01
1776538061.5347996,81.38,-1.08,-0.23,-0.183,-0.023,9.81,0.0,-0.01,-0.01
1776538061.5448341,81.38,-1.08,-0.23,-0.171,-0.044,9.811,-0.01,-0.01,-0.01
1776538061.5548635,81.37,-1.07,-0.23,-0.187,-0.035,9.81,0.0,0.0,0.0
1776538061.5651996,81.37,-1.08,-0.23,-0.178,-0.031,9.81,-0.01,0.0,0.0
1776538061.5748441,81.37,-1.08,-0.23,-0.199,-0.007,9.81,-0.01,0.0,0.0
1776538061.5848482,81.38,-1.08,-0.23,-0.195,-0.008,9.811,-0.01,0.0,-0.01
1776538061.5947897,81.38,-1.08,-0.23,-0.207,-0.012,9.81,-0.01,-0.01,-0.01
1776538061.6048114,81.38,-1.08,-0.23,-0.205,-0.024,9.81,-0.01,-0.01,-0.01
1776538061.6148117,81.38,-1.08,-0.23,-0.2,-0.041,9.81,-0.01,-0.01,-0.01
1776538061.624847,81.38,-1.08,-0.23,-0.188,-0.024,9.81,-0.01,-0.01,0.0
1776538061.6348298,81.38,-1.07,-0.23,-0.169,-0.031,9.811,-0.01,-0.01,0.0
1776538061.644806,81.38,-1.07,-0.23,-0.178,-0.008,9.81,-0.01,-0.01,0.0
1776538061.6548278,81.39,-1.07,-0.23,-0.186,-0.029,9.811,-0.01,0.0,-0.01
1776538061.6648257,81.4,-1.07,-0.23,-0.326,-0.085,9.81,0.0,-0.01,-0.01
1776538061.674829,81.41,-1.08,-0.24,-0.43,-0.069,9.81,0.0,-0.01,-0.01
1776538061.6847932,81.42,-1.08,-0.23,-0.406,-0.014,9.81,0.0,-0.02,-0.01
1776538061.694801,81.43,-1.04,-0.2,-0.433,0.016,9.81,-0.01,-0.02,-0.02
1776538061.7048326,81.44,-0.99,-0.09,-0.356,0.212,9.767,0.01,-0.03,-0.01
1776538061.7147925,81.48,-0.93,0.03,0.104,0.616,9.756,0.05,-0.02,-0.02
1776538061.7248013,81.52,-0.8,0.42,-0.151,0.96,9.77,0.07,-0.05,-0.02
1776538061.734826,81.6,-0.79,0.69,-1.182,0.638,9.78,0.17,-0.02,-0.03
1776538061.7447813,81.69,-1.18,0.67,-0.792,0.363,8.654,0.07,0.03,-0.05
1776538061.754798,81.8,-0.93,0.55,-1.518,1.151,8.33,-0.06,0.07,-0.05
1776538061.764796,81.95,-1.03,0.62,-3.88,0.522,8.724,-0.11,-0.23,-0.08
1776538061.7747908,82.04,-1.19,0.47,-3.219,0.459,8.955,0.02,-0.11,-0.07
1776538061.7847793,82.27,-0.95,0.34,-2.858,0.695,9.181,-0.08,-0.08,-0.07
1776538061.7947912,82.53,-0.71,-0.11,-2.617,0.671,9.149,-0.13,-0.15,-0.15
1776538061.8048086,82.83,-0.94,0.15,-3.322,1.752,9.324,-0.24,-0.18,-0.15
1776538061.8147922,83.05,-1.12,0.06,-1.085,-0.453,9.453,0.08,0.02,-0.18
1776538061.8247888,83.17,-0.83,-0.37,-0.607,2.027,9.548,-0.07,0.05,-0.11
1776538061.8347397,83.31,-1.3,-0.25,-1.466,-0.599,9.618,-0.15,0.08,-0.07
1776538061.8447409,83.15,-2.21,0.28,2.158,0.974,5.899,0.02,0.28,-0.04
1776538061.8547418,83.05,-1.43,0.09,5.614,0.29,1.269,0.27,0.44,0.06
1776538061.8647575,83.03,-0.26,-0.4,3.5,-0.956,1.146,-0.03,-0.18,0.02
1776538061.8747914,82.78,-0.37,-1.19,2.721,-1.389,2.999,-0.23,-0.34,0.04
1776538061.884739,82.46,-0.36,-1.27,2.942,-0.303,4.57,-0.32,-0.02,0.17
1776538061.8947606,82.22,-0.31,-1.0,2.257,0.168,5.959,-0.02,0.11,0.15
1776538061.9047875,82.02,-0.74,-0.81,2.07,-0.881,6.98,0.11,0.07,0.13
1776538061.914791,81.88,-1.08,-0.96,1.827,-1.044,7.731,0.11,0.24,0.11
1776538061.9247596,81.85,-1.06,-0.96,1.623,-1.357,8.283,-0.02,0.19,0.06
1776538061.9347534,81.84,-1.21,-1.12,0.857,-1.673,8.689,-0.02,0.0,-0.01
1776538061.9447718,81.86,-1.32,-1.22,0.471,-1.48,8.985,-0.03,0.08,0.01
1776538061.9548013,81.96,-1.41,-1.16,-0.322,-1.151,9.181,0.0,0.03,-0.02
1776538061.9647233,82.11,-1.48,-1.0,-0.714,-0.988,9.264,0.05,0.02,-0.06
1776538061.9747431,82.3,-1.65,-0.82,-0.902,-1.306,9.405,0.11,-0.01,-0.09
1776538061.9847534,82.48,-1.69,-0.84,-0.802,-1.072,9.514,0.11,0.05,-0.11
1776538061.9947224,82.59,-1.8,-0.71,-1.061,-0.88,9.594,0.03,0.02,-0.09
1776538062.0047224,82.64,-1.9,-0.53,-0.95,-0.58,9.652,0.06,0.02,-0.05
1776538062.014739,82.65,-1.93,-0.36,-0.362,-0.534,9.58,0.1,0.04,-0.02
1776538062.0247371,82.55,-1.77,-0.29,-0.521,-0.51,9.64,0.08,-0.01,0.0
1776538062.0347464,82.35,-1.7,-0.27,-0.49,-0.04,9.685,0.03,-0.08,0.07
1776538062.043887,82.07,-1.62,-0.19,-0.311,0.546,9.719,-0.01,-0.05,0.12
1776538062.053916,81.8,-1.52,-0.09,0.081,1.253,9.743,-0.02,-0.03,0.15
1776538062.0647216,81.6,-1.44,-0.01,-0.036,1.686,9.761,-0.03,-0.05,0.13
1776538062.0747218,81.46,-1.45,0.09,0.168,2.011,9.774,-0.04,-0.02,0.1
1776538062.0847354,81.44,-1.34,0.25,0.285,2.099,9.784,-0.01,0.01,0.05
1776538062.0938923,81.49,-1.34,0.29,0.104,1.777,9.791,0.01,-0.03,-0.01
1776538062.1038826,81.57,-1.39,0.26,0.169,1.437,9.797,-0.02,0.02,-0.05
1776538062.1138992,81.68,-1.42,0.2,0.153,1.077,9.8,-0.04,0.03,-0.05
1776538062.123888,81.8,-1.46,0.13,0.159,0.768,9.803,-0.05,0.02,-0.06
1776538062.1339018,81.92,-1.48,0.09,0.153,0.453,9.806,-0.03,0.03,-0.07
1776538062.1447043,82.04,-1.5,0.01,-0.061,0.224,9.808,-0.02,0.02,-0.07
1776538062.1547275,82.17,-1.54,0.0,-0.122,0.104,9.809,-0.02,0.01,-0.07
1776538062.1647213,82.34,-1.55,0.05,-0.187,0.071,9.809,0.0,0.02,-0.08
1776538062.1738632,82.53,-1.59,0.01,-0.287,-0.793,9.811,0.04,0.01,-0.11
1776538062.183888,82.61,-1.58,-0.2,-0.291,-1.589,9.811,0.01,0.0,-0.1
1776538062.1938808,82.53,-1.6,-0.39,-0.396,-1.826,9.811,-0.03,-0.02,-0.02
1776538062.2047143,82.34,-1.58,-0.54,-0.153,-1.696,9.811,-0.04,0.0,0.06
1776538062.2138808,82.12,-1.5,-0.63,0.006,-1.593,9.812,-0.03,-0.02,0.11
1776538062.2239325,81.85,-1.45,-0.7,-0.181,-1.649,9.811,-0.02,-0.04,0.12
1776538062.2339172,81.53,-1.43,-0.73,0.001,-0.988,9.812,-0.02,-0.02,0.15
1776538062.243888,81.24,-1.35,-0.69,0.024,-0.884,9.811,-0.01,-0.02,0.17
1776538062.253844,81.04,-1.29,-0.66,0.208,-0.405,9.811,0.01,-0.03,0.15
1776538062.2638576,80.93,-1.24,-0.57,0.123,0.309,9.811,0.0,-0.02,0.09
1776538062.2738547,80.96,-1.23,-0.36,0.08,0.944,9.811,0.02,-0.02,0.04
1776538062.2838602,81.12,-1.23,-0.15,0.057,1.215,9.81,0.05,-0.01,-0.05
1776538062.2938342,81.39,-1.23,0.04,0.032,1.289,9.81,0.05,0.0,-0.11
1776538062.3038306,81.68,-1.23,0.15,0.038,1.059,9.811,0.05,0.0,-0.15
1776538062.3138447,81.96,-1.24,0.21,0.079,0.93,9.811,0.03,0.01,-0.17
1776538062.3238418,82.15,-1.25,0.23,0.051,0.62,9.811,0.02,0.01,-0.15
1776538062.333888,82.22,-1.26,0.21,0.072,0.412,9.811,0.0,0.01,-0.09
1776538062.343862,82.16,-1.26,0.18,0.041,0.291,9.81,-0.01,0.01,-0.02
1776538062.3538883,82.04,-1.29,0.14,-0.025,0.224,9.811,-0.02,0.01,0.04
1776538062.3638625,81.87,-1.3,0.1,-0.031,0.172,9.81,-0.02,0.02,0.08
1776538062.3738422,81.7,-1.32,0.05,-0.186,0.14,9.81,-0.03,0.01,0.09
1776538062.3841689,81.57,-1.36,-0.02,-0.232,-0.05,9.811,-0.03,0.0,0.08
1776538062.3942544,81.48,-1.36,-0.14,-0.207,-0.061,9.811,-0.04,0.02,0.06
1776538062.403835,81.46,-1.36,-0.25,-0.285,-0.078,9.811,-0.06,-0.01,0.03
1776538062.4138331,81.48,-1.36,-0.33,-0.267,-0.169,9.811,-0.06,-0.01,0.0
1776538062.423845,81.54,-1.35,-0.37,-0.228,-0.299,9.811,-0.03,-0.01,-0.02
1776538062.4338999,81.6,-1.31,-0.39,-0.177,-0.418,9.811,-0.01,-0.01,-0.03
1776538062.443831,81.69,-1.27,-0.39,-0.158,-0.527,9.811,0.01,-0.02,-0.05
1776538062.4538453,81.77,-1.23,-0.38,-0.077,-0.6,9.811,0.02,-0.02,-0.05
1776538062.4638464,81.86,-1.19,-0.37,-0.025,-0.656,9.81,0.02,-0.02,-0.05
1776538062.4738476,81.93,-1.16,-0.32,0.038,-0.616,9.811,0.03,-0.02,-0.05
1776538062.4838622,81.98,-1.13,-0.27,0.096,-0.546,9.81,0.04,-0.01,-0.04
1776538062.4938061,81.98,-1.1,-0.23,0.117,-0.466,9.81,0.03,-0.01,-0.02
1776538062.5038419,81.92,-1.09,-0.19,0.131,-0.317,9.81,0.02,-0.01,0.0
1776538062.513831,81.83,-1.09,-0.15,0.145,-0.099,9.81,0.02,0.0,0.03
1776538062.5238287,81.71,-1.1,-0.09,0.141,0.182,9.81,0.01,0.01,0.05
1776538062.533837,81.6,-1.1,-0.03,0.087,0.428,9.81,0.01,0.01,0.06
1776538062.5438156,81.53,-1.12,0.0,-0.032,0.629,9.81,0.0,0.01,0.05
1776538062.5538235,81.51,-1.15,0.02,-0.114,0.79,9.811,-0.02,0.01,0.03
1776538062.5638506,81.56,-1.18,0.02,-0.186,0.837,9.81,-0.03,0.01,-0.01
1776538062.5738382,81.64,-1.2,0.01,-0.228,0.703,9.81,-0.03,0.01,-0.04
1776538062.5838215,81.74,-1.21,-0.02,-0.234,0.485,9.81,-0.02,0.0,-0.05
1776538062.5938516,81.82,-1.21,-0.07,-0.265,0.202,9.81,-0.02,0.0,-0.05
1776538062.6038303,81.86,-1.21,-0.12,-0.232,0.006,9.81,-0.02,-0.01,-0.04
1776538062.6138008,81.87,-1.2,-0.16,-0.19,-0.137,9.81,-0.02,-0.01,-0.02
1776538062.6237812,81.87,-1.18,-0.17,-0.147,-0.219,9.81,-0.01,-0.01,-0.01
1776538062.633783,81.85,-1.16,-0.18,-0.108,-0.329,9.81,0.0,-0.01,0.0
1776538062.6437843,81.82,-1.14,-0.19,-0.105,-0.457,9.81,0.01,-0.01,0.01
1776538062.6538177,81.76,-1.14,-0.22,-0.047,-0.459,9.81,0.01,-0.01,0.02
1776538062.6637795,81.73,-1.11,-0.23,0.017,-0.398,9.811,0.0,0.0,0.02
1776538062.6737912,81.7,-1.1,-0.23,0.023,-0.295,9.81,0.0,-0.01,0.02
1776538062.6837823,81.68,-1.1,-0.21,0.044,-0.253,9.81,0.0,0.0,0.01
1776538062.6937993,81.68,-1.09,-0.21,0.05,-0.248,9.81,0.01,0.0,0.0
1776538062.7037756,81.68,-1.07,-0.22,0.025,-0.243,9.81,0.0,0.0,0.0
1776538062.7137883,81.68,-1.07,-0.22,-0.066,-0.148,9.81,-0.01,-0.01,-0.01
1776538062.723781,81.68,-1.1,-0.22,-0.068,-0.162,9.81,0.0,0.0,-0.01
1776538062.7338169,81.67,-1.11,-0.23,-0.077,-0.099,9.695,0.0,0.01,0.0
1776538062.7437818,81.68,-1.02,-0.19,0.006,0.14,9.725,-0.01,0.0,0.0
1776538062.7538202,81.69,-1.07,-0.21,-0.433,0.181,9.748,0.01,-0.04,-0.02
1776538062.7637796,81.7,-1.1,-0.07,-0.435,-0.206,9.764,0.0,-0.01,0.0
1776538062.7737827,81.66,-1.04,-0.09,-0.578,-0.075,9.776,0.04,-0.01,-0.01
1776538062.783771,81.57,-1.04,-0.05,-0.71,-0.238,9.785,0.02,-0.05,0.02
1776538062.7937665,81.5,-0.96,-0.06,-0.497,-0.048,9.792,0.02,-0.03,0.05
1776538062.80378,81.44,-0.93,-0.06,-0.295,0.241,9.797,-0.02,-0.04,0.04
1776538062.8137808,81.42,-0.83,-0.1,-0.032,0.447,9.799,-0.03,-0.04,0.02
1776538062.8237758,81.41,-0.77,-0.1,0.143,0.659,9.802,-0.05,-0.03,0.0
1776538062.833781,81.4,-0.73,-0.05,0.36,0.575,9.804,-0.02,-0.02,0.0
1776538062.8437614,81.4,-0.72,-0.07,0.484,0.352,9.805,0.0,0.01,0.0
1776538062.8537912,81.4,-0.71,-0.12,0.398,0.18,9.806,-0.02,0.02,-0.01
1776538062.8637621,81.39,-0.77,-0.16,0.242,-0.095,9.806,-0.02,0.01,0.0
1776538062.8737743,81.38,-0.81,-0.2,0.023,-0.283,9.809,-0.01,0.02,0.0
1776538062.8837788,81.35,-0.87,-0.23,-0.235,-0.37,9.808,0.0,0.02,0.01
1776538062.8937807,81.34,-0.91,-0.23,-0.443,-0.354,9.809,0.0,0.01,0.01
1776538062.9037743,81.35,-0.93,-0.22,-0.539,-0.242,9.809,0.0,-0.01,0.0
1776538062.913786,81.37,-0.92,-0.18,-0.559,-0.086,9.81,0.01,-0.02,-0.01
1776538062.9237132,81.4,-0.9,-0.15,-0.43,0.077,9.81,0.01,-0.02,-0.02
1776538062.9337327,81.42,-0.86,-0.11,-0.266,0.213,9.809,0.0,-0.02,-0.02
1776538062.9437106,81.43,-0.83,-0.09,-0.102,0.296,9.809,0.0,-0.02,-0.02
1776538062.9537315,81.42,-0.8,-0.08,0.06,0.323,9.809,-0.01,-0.01,-0.01
1776538062.9637146,81.4,-0.79,-0.08,0.117,0.296,9.81,-0.01,0.0,0.01
1776538062.9737132,81.38,-0.81,-0.09,0.098,0.206,9.81,-0.02,0.01,0.01
1776538062.9837818,81.37,-0.84,-0.11,-0.01,0.025,9.809,-0.01,0.02,0.01
1776538062.993731,81.36,-0.86,-0.15,-0.148,-0.115,9.809,-0.02,0.01,0.0
1776538063.0037253,81.37,-0.9,-0.18,-0.292,-0.231,9.81,-0.02,0.01,0.0
1776538063.0137339,81.38,-0.92,-0.21,-0.369,-0.333,9.81,-0.01,0.0,-0.01
1776538063.0237305,81.39,-0.92,-0.22,-0.394,-0.386,9.81,0.0,-0.01,-0.01
1776538063.0337453,81.4,-0.9,-0.22,-0.327,-0.338,9.81,0.0,-0.02,-0.01
1776538063.0429163,81.39,-0.87,-0.21,-0.217,-0.201,9.809,0.01,-0.02,-0.01
1776538063.0528898,81.39,-0.84,-0.18,-0.089,-0.029,9.809,0.01,-0.02,0.0
1776538063.0637262,81.4,-0.81,-0.14,-0.006,0.18,9.81,0.0,-0.02,0.0
1776538063.0737286,81.4,-0.81,-0.1,0.022,0.307,9.809,0.0,-0.01,-0.01
1776538063.0837276,81.4,-0.81,-0.08,-0.016,0.366,9.809,-0.01,0.0,-0.01
1776538063.0937366,81.39,-0.84,-0.08,-0.108,0.331,9.809,-0.01,0.01,0.0
1776538063.1037135,81.38,-0.86,-0.09,-0.189,0.238,9.81,-0.02,0.01,0.0
1776538063.1137195,81.37,-0.89,-0.1,-0.26,0.104,9.81,-0.02,0.01,0.0
1776538063.1229343,81.38,-0.91,-0.13,-0.285,-0.067,9.81,-0.01,0.0,0.0
1776538063.1336968,81.39,-0.91,-0.16,-0.31,-0.237,9.81,-0.01,0.0,-0.01
1776538063.143712,81.35,-0.91,-0.19,-0.339,-0.508,9.809,-0.01,-0.01,-0.01
1776538063.1537294,81.19,-0.89,-0.29,-0.357,-0.733,9.81,0.01,-0.02,0.03
1776538063.1628926,80.83,-0.87,-0.42,-0.582,-0.745,9.81,-0.03,-0.03,0.11
1776538063.1736996,80.25,-0.84,-0.55,-0.344,-0.705,9.81,-0.05,-0.02,0.22
1776538063.183708,79.42,-0.83,-0.66,-0.377,-0.736,9.81,-0.06,-0.03,0.35
1776538063.1928897,78.36,-0.82,-0.77,-0.413,-0.287,9.81,-0.05,-0.01,0.48
1776538063.2029347,77.17,-0.96,-0.64,-0.789,0.218,9.791,-0.06,-0.02,0.6
1776538063.2137103,75.92,-0.91,-0.7,-0.772,0.298,9.797,0.0,0.01,0.66
1776538063.223706,74.79,-0.83,-0.72,-0.365,1.666,9.8,-0.06,-0.05,0.68
1776538063.2328706,73.79,-0.51,-0.53,0.562,0.8,9.802,-0.08,-0.1,0.59
1776538063.2431772,72.99,-0.48,-0.47,0.75,1.045,9.803,0.03,-0.07,0.54
1776538063.252853,72.51,-0.38,-0.36,1.413,0.029,9.805,0.01,0.01,0.38
1776538063.2628503,72.02,-0.27,-0.64,1.202,-0.228,9.806,0.05,0.01,0.24
1776538063.2728705,71.41,-0.16,-0.83,1.518,0.06,9.806,-0.11,-0.01,0.3
1776538063.2828724,70.87,-0.09,-0.74,0.908,1.115,9.808,-0.09,-0.01,0.34
