timestamp,yaw,pitch,roll,accel_x,accel_y,accel_z,gyro_x,gyro_y,gyro_z
1777319203.4765904,-21.39,-0.18,0.31,0.014,0.061,9.762,0.0,0.0,0.0
1777319203.4865837,-21.41,-0.19,0.32,0.0,0.092,9.767,0.0,0.0,0.0
1777319203.496547,-21.43,-0.19,0.33,-0.023,0.176,9.769,0.0,0.0,0.01
1777319203.506649,-21.45,-0.19,0.34,-0.046,0.247,9.769,-0.01,0.0,0.01
1777319203.5165641,-21.45,-0.2,0.36,-0.062,0.272,9.764,-0.01,0.0,0.0
1777319203.526497,-21.44,-0.2,0.36,-0.071,0.241,9.767,-0.01,0.0,-0.01
1777319203.5365033,-21.43,-0.2,0.35,-0.053,0.163,9.759,-0.01,-0.01,-0.01
1777319203.5464926,-21.42,-0.19,0.35,-0.041,0.134,9.763,-0.01,-0.01,-0.01
1777319203.5565012,-21.42,-0.18,0.35,-0.023,0.09,9.775,-0.01,-0.01,-0.01
1777319203.566501,-21.42,-0.18,0.35,0.008,0.037,9.776,0.0,-0.01,-0.01
1777319203.5765045,-21.42,-0.17,0.33,0.017,0.012,9.784,0.0,-0.01,-0.01
1777319203.586493,-21.42,-0.17,0.33,0.022,0.018,9.786,-0.01,0.0,0.0
1777319203.5965042,-21.43,-0.17,0.33,0.012,0.002,9.792,-0.01,0.0,0.0
1777319203.606489,-21.44,-0.17,0.33,0.017,0.018,9.761,0.0,0.0,0.0
1777319203.616507,-21.45,-0.17,0.34,0.0,0.075,9.773,0.0,0.0,0.0
1777319203.626494,-21.45,-0.18,0.35,-0.004,0.151,9.778,0.0,-0.01,0.0
1777319203.6364908,-21.44,-0.17,0.37,0.005,0.175,9.779,0.0,0.0,-0.01
1777319203.6464772,-21.42,-0.18,0.38,-0.011,0.199,9.785,-0.01,0.0,-0.01
1777319203.6556315,-21.42,-0.18,0.38,-0.019,0.138,9.774,-0.01,0.0,-0.01
1777319203.6664977,-21.42,-0.19,0.38,-0.044,0.098,9.763,0.0,0.0,-0.01
1777319203.6764822,-21.45,-0.18,0.38,-0.031,0.083,9.755,0.0,0.0,0.0
1777319203.685614,-21.46,-0.18,0.37,-0.038,0.107,9.766,0.0,-0.01,0.01
1777319203.6956165,-21.46,-0.18,0.38,-0.007,0.129,9.773,-0.01,-0.01,0.0
1777319203.7056093,-21.45,-0.17,0.37,-0.018,0.102,9.782,-0.01,-0.01,-0.01
1777319203.715741,-21.44,-0.17,0.37,-0.02,0.029,9.784,-0.01,-0.01,-0.01
1777319203.7256062,-21.43,-0.17,0.37,0.022,0.028,9.768,0.0,0.0,-0.01
1777319203.7356114,-21.43,-0.17,0.37,0.025,0.028,9.776,0.0,-0.01,-0.01
1777319203.7465158,-21.43,-0.16,0.36,0.032,0.049,9.776,-0.01,0.0,-0.01
1777319203.7556386,-21.44,-0.16,0.37,0.014,0.068,9.786,0.0,0.0,0.0
1777319203.7656157,-21.45,-0.16,0.37,0.002,0.104,9.792,-0.01,0.0,0.0
1777319203.7765098,-21.45,-0.17,0.37,-0.013,0.11,9.772,-0.01,0.0,0.0
1777319203.7856214,-21.46,-0.17,0.38,-0.032,0.145,9.757,0.0,0.0,0.0
1777319203.7956152,-21.45,-0.18,0.39,-0.046,0.171,9.761,0.0,0.0,0.0
1777319203.805627,-21.45,-0.17,0.4,-0.037,0.171,9.775,0.0,-0.01,-0.01
1777319203.8156176,-21.43,-0.18,0.39,-0.028,0.139,9.774,-0.01,-0.01,-0.01
1777319203.8256187,-21.42,-0.17,0.38,-0.03,0.102,9.762,-0.01,-0.01,-0.01
1777319203.835619,-21.42,-0.17,0.37,-0.022,0.06,9.754,-0.01,-0.01,-0.01
1777319203.8456275,-21.44,-0.17,0.37,-0.018,0.012,9.764,-0.01,-0.01,0.0
1777319203.855624,-21.46,-0.16,0.36,-0.013,0.044,9.775,-0.01,-0.01,0.01
1777319203.8656209,-21.46,-0.16,0.37,-0.002,0.08,9.784,0.0,-0.01,0.01
1777319203.8756237,-21.46,-0.16,0.38,0.01,0.115,9.772,0.0,-0.01,0.0
1777319203.8856282,-21.45,-0.15,0.39,0.017,0.132,9.773,-0.01,0.0,-0.01
1777319203.895644,-21.43,-0.15,0.39,0.017,0.113,9.774,-0.01,0.0,-0.02
1777319203.9056246,-21.42,-0.15,0.39,0.005,0.061,9.782,0.0,0.0,-0.01
1777319203.9156134,-21.44,-0.15,0.39,0.0,0.042,9.78,0.0,0.0,0.0
1777319203.925624,-21.46,-0.15,0.39,-0.01,0.105,9.786,-0.01,0.0,0.01
1777319203.9356103,-21.46,-0.16,0.4,-0.01,0.16,9.778,-0.01,0.0,0.01
1777319203.9456122,-21.45,-0.16,0.4,-0.018,0.187,9.786,-0.01,0.0,0.0
1777319203.9555874,-21.43,-0.16,0.41,0.017,0.196,9.791,-0.01,0.0,-0.01
1777319203.965589,-21.41,-0.16,0.42,0.029,0.164,9.797,-0.01,0.0,-0.02
1777319203.975638,-21.39,-0.17,0.41,0.035,0.065,9.764,0.0,0.0,-0.02
1777319203.9856157,-21.39,-0.17,0.39,0.051,0.044,9.767,0.0,0.0,-0.01
1777319203.9955885,-21.39,-0.17,0.39,0.018,0.038,9.776,-0.01,0.0,0.0
1777319204.005613,-21.41,-0.17,0.4,0.001,0.019,9.779,0.0,0.0,0.0
1777319204.0155892,-21.42,-0.18,0.38,-0.01,0.034,9.786,0.0,0.0,0.0
1777319204.0255725,-21.42,-0.19,0.39,-0.032,0.06,9.785,-0.01,0.0,0.0
1777319204.0355897,-21.43,-0.2,0.39,-0.056,0.031,9.757,-0.01,0.0,0.0
1777319204.0455725,-21.43,-0.19,0.39,-0.057,0.103,9.738,0.0,0.0,0.0
1777319204.055608,-21.42,-0.19,0.41,-0.053,0.156,9.755,0.0,-0.01,0.0
1777319204.0656037,-21.4,-0.18,0.43,-0.031,0.156,9.763,0.0,-0.01,-0.01
1777319204.0755994,-21.39,-0.18,0.42,-0.025,0.128,9.764,0.0,-0.01,-0.02
1777319204.085607,-21.38,-0.17,0.42,-0.018,0.096,9.767,-0.01,-0.01,-0.02
1777319204.095597,-21.39,-0.16,0.41,0.005,0.087,9.772,-0.01,-0.01,-0.01
1777319204.1056135,-21.41,-0.15,0.41,0.016,0.049,9.782,-0.01,-0.01,0.01
1777319204.1156006,-21.44,-0.15,0.4,0.035,0.077,9.78,-0.01,-0.01,0.01
1777319204.125597,-21.46,-0.14,0.4,0.04,0.137,9.787,-0.01,-0.01,0.02
1777319204.1355774,-21.45,-0.14,0.41,0.053,0.151,9.787,0.0,0.0,0.0
1777319204.145549,-21.43,-0.13,0.42,0.049,0.145,9.786,-0.01,0.0,-0.01
1777319204.1556156,-21.4,-0.14,0.42,0.031,0.113,9.786,-0.01,0.0,-0.02
1777319204.1655967,-21.39,-0.14,0.41,0.006,0.041,9.781,-0.01,0.0,-0.02
1777319204.1755867,-21.39,-0.15,0.4,-0.001,0.004,9.756,0.0,0.0,-0.01
1777319204.1856549,-21.42,-0.15,0.4,-0.019,0.034,9.77,0.0,0.0,0.0
1777319204.195613,-21.44,-0.16,0.41,-0.018,0.084,9.772,0.0,-0.01,0.01
1777319204.20561,-21.45,-0.15,0.41,-0.025,0.11,9.776,0.0,0.0,0.01
1777319204.215597,-21.44,-0.16,0.41,-0.031,0.144,9.785,-0.01,-0.01,0.0
1777319204.2255986,-21.43,-0.15,0.42,-0.024,0.141,9.775,-0.01,-0.01,-0.01
1777319204.235606,-21.42,-0.15,0.42,-0.043,0.063,9.772,-0.01,-0.01,-0.01
1777319204.2456074,-21.43,-0.14,0.4,-0.035,0.063,9.774,0.0,-0.01,-0.01
1777319204.2556074,-21.44,-0.14,0.41,-0.016,0.105,9.785,-0.01,-0.01,0.0
1777319204.2655728,-21.45,-0.13,0.42,0.018,0.132,9.785,0.0,-0.01,0.0
1777319204.2756052,-21.44,-0.13,0.42,0.03,0.137,9.79,0.0,-0.01,0.0
1777319204.2856028,-21.42,-0.13,0.42,0.034,0.144,9.778,-0.01,0.0,-0.01
1777319204.295615,-21.42,-0.13,0.42,0.024,0.096,9.779,-0.01,0.0,-0.01
1777319204.3055842,-21.41,-0.13,0.42,0.022,0.026,9.785,0.0,0.0,-0.01
1777319204.3155715,-21.42,-0.13,0.4,-0.001,0.0,9.787,-0.01,0.0,0.0
1777319204.325598,-21.45,-0.14,0.41,-0.018,0.065,9.787,-0.01,0.0,0.01
1777319204.335584,-21.45,-0.14,0.42,-0.025,0.113,9.785,0.0,0.0,0.01
1777319204.34557,-21.44,-0.14,0.43,-0.026,0.146,9.786,0.0,0.0,0.0
1777319204.355575,-21.42,-0.14,0.43,-0.041,0.133,9.791,-0.01,0.0,-0.02
1777319204.365569,-21.4,-0.14,0.43,-0.046,0.091,9.791,0.0,-0.01,-0.02
1777319204.375635,-21.4,-0.14,0.43,-0.034,0.048,9.782,0.0,-0.01,-0.01
1777319204.3856037,-21.41,-0.14,0.41,-0.029,0.03,9.774,-0.01,-0.01,0.0
1777319204.3955946,-21.43,-0.13,0.41,-0.012,0.071,9.769,-0.01,-0.01,0.01
1777319204.405587,-21.45,-0.13,0.42,0.005,0.113,9.776,0.0,-0.01,0.01
1777319204.4155889,-21.45,-0.13,0.43,0.018,0.134,9.785,0.0,0.0,0.0
1777319204.4255788,-21.43,-0.13,0.43,0.018,0.148,9.79,-0.01,0.0,-0.01
1777319204.43558,-21.42,-0.13,0.43,0.02,0.131,9.786,-0.01,0.0,-0.01
1777319204.445561,-21.41,-0.13,0.43,0.014,0.079,9.782,-0.01,0.0,-0.02
1777319204.4555724,-21.42,-0.13,0.42,-0.001,0.016,9.76,0.0,0.0,-0.01
1777319204.4655786,-21.43,-0.13,0.42,-0.004,0.046,9.767,-0.01,0.0,0.0
1777319204.4755728,-21.45,-0.13,0.42,-0.022,0.081,9.78,0.0,0.0,0.01
1777319204.4855902,-21.45,-0.13,0.42,-0.026,0.099,9.775,0.0,0.0,0.0
1777319204.4955895,-21.44,-0.13,0.42,-0.032,0.126,9.764,-0.01,0.0,-0.01
1777319204.5055847,-21.42,-0.13,0.42,-0.03,0.128,9.766,-0.01,-0.01,-0.01
1777319204.5155373,-21.41,-0.13,0.43,-0.032,0.093,9.774,-0.01,-0.01,-0.02
1777319204.525573,-21.42,-0.13,0.42,-0.026,0.019,9.766,0.0,-0.01,-0.01
1777319204.5355823,-21.43,-0.13,0.41,-0.024,0.062,9.775,-0.01,-0.01,0.0
1777319204.5455725,-21.45,-0.13,0.42,-0.008,0.098,9.785,-0.01,-0.01,0.01
1777319204.555574,-21.45,-0.12,0.43,0.012,0.123,9.782,0.0,-0.01,0.0
1777319204.5655468,-21.44,-0.12,0.43,0.019,0.147,9.785,-0.01,0.0,-0.01
1777319204.5755503,-21.42,-0.12,0.43,0.017,0.148,9.79,-0.01,-0.01,-0.01
1777319204.5855455,-21.41,-0.12,0.43,0.019,0.098,9.787,-0.01,0.0,-0.02
1777319204.5955303,-21.41,-0.12,0.42,0.006,0.014,9.78,0.0,0.0,-0.01
1777319204.6055803,-21.43,-0.12,0.41,-0.006,0.044,9.781,-0.01,0.0,0.0
1777319204.6155844,-21.45,-0.12,0.42,-0.014,0.072,9.788,-0.01,-0.01,0.01
1777319204.6255558,-21.45,-0.13,0.43,-0.01,0.102,9.77,0.0,0.0,0.0
1777319204.6355362,-21.43,-0.12,0.44,-0.019,0.127,9.776,0.0,0.0,-0.01
1777319204.6455333,-21.42,-0.12,0.44,-0.019,0.139,9.767,-0.01,-0.01,-0.01
1777319204.6555371,-21.4,-0.12,0.44,-0.02,0.114,9.776,-0.01,0.0,-0.02
1777319204.6655354,-21.4,-0.12,0.43,-0.023,0.043,9.78,0.0,-0.01,-0.01
1777319204.6755223,-21.42,-0.12,0.42,-0.011,0.053,9.767,-0.01,-0.01,0.0
1777319204.685516,-21.45,-0.11,0.43,-0.013,0.099,9.779,-0.01,-0.01,0.01
1777319204.694713,-21.45,-0.12,0.44,0.008,0.133,9.778,0.0,-0.01,0.01
1777319204.705515,-21.45,-0.11,0.44,0.013,0.146,9.784,0.0,0.0,0.0
1777319204.71471,-21.42,-0.11,0.44,0.012,0.144,9.785,-0.01,0.0,-0.01
1777319204.7255378,-21.4,-0.11,0.44,0.011,0.099,9.773,-0.01,0.0,-0.02
1777319204.7355182,-21.39,-0.11,0.43,-0.01,0.012,9.779,0.0,0.0,-0.02
1777319204.744714,-21.41,-0.11,0.41,-0.019,-0.001,9.776,0.0,0.0,-0.01
1777319204.7546778,-21.43,-0.12,0.42,-0.023,0.049,9.785,-0.01,0.0,0.01
1777319204.7655337,-21.45,-0.12,0.44,-0.017,0.095,9.781,0.0,0.0,0.01
1777319204.7755046,-21.45,-0.12,0.44,-0.019,0.126,9.78,0.0,0.0,0.0
1777319204.7855158,-21.43,-0.12,0.44,-0.018,0.157,9.785,-0.01,-0.01,-0.01
1777319204.7955348,-21.42,-0.12,0.44,-0.016,0.156,9.782,-0.01,-0.01,-0.02
1777319204.8055165,-21.4,-0.11,0.45,-0.019,0.092,9.786,0.0,0.0,-0.02
1777319204.8155174,-21.41,-0.12,0.43,-0.022,0.044,9.77,0.0,-0.01,-0.01
1777319204.8255029,-21.42,-0.11,0.43,-0.007,0.084,9.774,-0.01,-0.01,0.0
1777319204.8347023,-21.43,-0.11,0.44,0.005,0.097,9.782,0.0,-0.01,0.01
1777319204.8446853,-21.43,-0.1,0.44,0.018,0.111,9.779,0.0,-0.01,0.0
1777319204.8547075,-21.42,-0.1,0.43,0.012,0.11,9.782,-0.01,0.0,-0.01
1777319204.8646896,-21.41,-0.1,0.43,0.002,0.099,9.774,-0.01,-0.01,-0.01
1777319204.8755267,-21.4,-0.1,0.43,-0.006,0.024,9.767,-0.01,0.0,-0.01
1777319204.8846977,-21.41,-0.11,0.42,-0.013,-0.029,9.768,0.0,0.0,-0.01
1777319204.8946755,-21.43,-0.11,0.42,-0.025,0.028,9.778,-0.01,0.0,0.01
1777319204.9046853,-21.45,-0.11,0.43,-0.028,0.086,9.781,0.0,-0.01,0.01
1777319204.9147615,-21.44,-0.11,0.44,-0.011,0.129,9.769,0.0,0.0,0.0
1777319204.924828,-21.42,-0.11,0.44,-0.02,0.145,9.776,-0.01,-0.01,-0.01
1777319204.9347048,-21.4,-0.11,0.45,-0.017,0.146,9.773,-0.01,0.0,-0.02
1777319204.9446588,-21.39,-0.11,0.45,-0.016,0.093,9.781,-0.01,0.0,-0.02
1777319204.9546783,-21.41,-0.1,0.43,-0.016,0.029,9.781,0.0,-0.01,-0.01
1777319204.964681,-21.43,-0.1,0.43,-0.01,0.073,9.774,-0.01,-0.01,0.01
1777319204.9746983,-21.45,-0.1,0.43,-0.008,0.127,9.785,-0.01,-0.01,0.01
1777319204.9846582,-21.45,-0.1,0.45,0.001,0.151,9.778,0.0,0.0,0.0
1777319204.9946494,-21.42,-0.1,0.45,0.0,0.139,9.781,-0.01,0.0,-0.01
1777319205.0046682,-21.4,-0.1,0.44,-0.004,0.107,9.778,-0.01,-0.01,-0.02
1777319205.0146708,-21.39,-0.1,0.44,-0.004,0.035,9.768,-0.01,0.0,-0.02
1777319205.0246906,-21.4,-0.1,0.43,-0.022,-0.005,9.769,0.0,0.0,-0.01
1777319205.0346837,-21.42,-0.1,0.43,-0.025,0.044,9.778,-0.01,-0.01,0.0
1777319205.0446439,-21.44,-0.1,0.44,-0.016,0.079,9.778,0.0,-0.01,0.01
1777319205.0546412,-21.43,-0.1,0.44,-0.023,0.126,9.784,0.0,0.0,0.0
1777319205.064639,-21.42,-0.1,0.45,-0.026,0.147,9.79,-0.01,-0.01,-0.01
1777319205.0746639,-21.41,-0.11,0.45,-0.018,0.129,9.785,-0.01,-0.01,-0.01
1777319205.0846136,-21.4,-0.1,0.45,-0.014,0.065,9.775,0.0,0.0,-0.01
1777319205.0946553,-21.42,-0.1,0.43,-0.011,0.037,9.776,0.0,-0.01,0.0
1777319205.104654,-21.44,-0.1,0.44,-0.013,0.095,9.787,-0.01,-0.01,0.01
1777319205.114658,-21.45,-0.1,0.45,0.001,0.131,9.785,0.0,-0.01,0.01
1777319205.1246097,-21.44,-0.1,0.45,0.006,0.145,9.785,0.0,0.0,0.0
1777319205.1346025,-21.42,-0.1,0.45,0.0,0.152,9.782,-0.01,0.0,-0.01
1777319205.1446176,-21.39,-0.1,0.45,0.005,0.09,9.77,-0.01,0.0,-0.02
1777319205.1546166,-21.39,-0.1,0.44,-0.008,-0.005,9.772,0.0,0.0,-0.02
1777319205.1646528,-21.4,-0.1,0.42,-0.014,-0.001,9.772,-0.01,0.0,-0.01
1777319205.1746106,-21.42,-0.1,0.43,-0.018,0.047,9.78,-0.01,-0.01,0.01
1777319205.1846247,-21.44,-0.1,0.44,-0.011,0.087,9.778,0.0,0.0,0.01
1777319205.194616,-21.43,-0.1,0.44,-0.012,0.135,9.78,-0.01,0.0,0.0
1777319205.2046154,-21.42,-0.1,0.45,-0.014,0.163,9.78,-0.01,-0.01,-0.01
1777319205.2146363,-21.4,-0.1,0.45,-0.022,0.12,9.773,-0.01,-0.01,-0.02
1777319205.2247093,-21.39,-0.1,0.45,-0.026,0.023,9.756,0.0,0.0,-0.02
1777319205.2346458,-21.4,-0.1,0.43,-0.038,0.073,9.77,-0.01,-0.01,-0.01
1777319205.244603,-21.42,-0.1,0.45,-0.01,0.107,9.78,-0.01,-0.01,0.0
1777319205.254646,-21.42,-0.09,0.44,0.007,0.11,9.776,0.0,0.0,0.0
1777319205.264622,-21.41,-0.09,0.44,0.023,0.119,9.782,-0.01,0.0,-0.01
1777319205.2746654,-21.4,-0.09,0.44,0.017,0.11,9.786,-0.01,0.0,-0.01
1777319205.284597,-21.39,-0.1,0.44,0.017,0.043,9.782,-0.01,0.0,-0.01
1777319205.2947147,-21.4,-0.09,0.42,-0.002,-0.016,9.779,0.0,0.0,-0.01
1777319205.304612,-21.42,-0.09,0.42,-0.023,0.036,9.786,-0.01,0.0,0.0
1777319205.314627,-21.43,-0.1,0.43,-0.014,0.101,9.791,0.0,-0.01,0.01
1777319205.3245757,-21.42,-0.09,0.44,-0.005,0.128,9.781,0.0,0.0,0.0
1777319205.3346603,-21.4,-0.09,0.44,-0.014,0.14,9.785,0.0,0.0,-0.01
1777319205.34461,-21.39,-0.09,0.44,-0.02,0.114,9.779,-0.01,0.0,-0.02
1777319205.3550847,-21.39,-0.09,0.44,-0.014,0.062,9.775,0.0,0.0,-0.01
1777319205.3647795,-21.4,-0.1,0.44,-0.023,0.028,9.784,-0.01,-0.01,0.0
1777319205.374613,-21.42,-0.1,0.43,-0.018,0.055,9.785,-0.01,-0.01,0.01
1777319205.3845603,-21.44,-0.09,0.44,-0.023,0.121,9.792,-0.01,-0.01,0.01
1777319205.3948312,-21.43,-0.09,0.44,-0.011,0.146,9.794,0.0,-0.01,0.0
1777319205.4046316,-21.42,-0.09,0.44,0.0,0.143,9.792,0.0,0.0,-0.01
1777319205.4146042,-21.39,-0.09,0.44,0.001,0.104,9.791,-0.01,-0.01,-0.02
1777319205.4245975,-21.39,-0.09,0.44,0.006,0.034,9.779,0.0,0.0,-0.02
1777319205.4346404,-21.39,-0.08,0.43,0.001,0.0,9.774,0.0,0.0,-0.01
1777319205.4446087,-21.42,-0.08,0.43,-0.001,0.054,9.784,-0.01,-0.01,0.01
1777319205.4546545,-21.43,-0.09,0.44,0.005,0.107,9.781,0.0,0.0,0.01
1777319205.4645803,-21.42,-0.09,0.44,-0.004,0.131,9.779,0.0,0.0,0.0
1777319205.4746015,-21.41,-0.09,0.44,-0.013,0.152,9.779,-0.01,0.0,-0.01
1777319205.4845722,-21.39,-0.09,0.45,-0.02,0.09,9.779,-0.01,0.0,-0.02
1777319205.494585,-21.38,-0.1,0.44,-0.035,0.005,9.773,0.0,0.0,-0.02
1777319205.5045698,-21.39,-0.1,0.43,-0.03,0.038,9.782,-0.01,0.0,0.0
1777319205.5146108,-21.42,-0.1,0.44,-0.034,0.072,9.786,0.0,-0.01,0.01
1777319205.5245504,-21.42,-0.09,0.44,-0.019,0.101,9.77,0.0,0.0,0.01
1777319205.534604,-21.42,-0.09,0.44,-0.023,0.133,9.781,-0.01,-0.01,0.0
1777319205.5445626,-21.41,-0.09,0.45,-0.013,0.162,9.79,-0.01,-0.01,-0.01
1777319205.5545983,-21.39,-0.09,0.46,-0.004,0.121,9.786,-0.01,0.0,-0.01
1777319205.5645406,-21.39,-0.09,0.44,-0.007,0.047,9.776,0.0,0.0,-0.01
1777319205.5745914,-21.41,-0.09,0.44,-0.011,0.066,9.773,-0.01,0.0,0.0
1777319205.5845559,-21.42,-0.09,0.44,-0.004,0.102,9.779,-0.01,-0.01,0.01
1777319205.5945654,-21.42,-0.09,0.45,0.01,0.132,9.782,0.0,0.0,0.0
1777319205.604531,-21.41,-0.09,0.45,0.004,0.125,9.791,0.0,0.0,-0.01
1777319205.614712,-21.39,-0.09,0.45,-0.002,0.11,9.774,-0.01,0.0,-0.01
1777319205.624526,-21.39,-0.09,0.44,-0.012,0.066,9.766,-0.01,0.0,-0.02
1777319205.6346169,-21.39,-0.1,0.44,-0.022,0.006,9.775,0.0,0.0,-0.01
1777319205.644549,-21.41,-0.09,0.42,-0.026,0.006,9.775,-0.01,-0.01,0.0
1777319205.6545327,-21.43,-0.09,0.43,-0.04,0.083,9.784,-0.01,-0.01,0.01
1777319205.6645372,-21.43,-0.09,0.44,-0.024,0.143,9.776,0.0,-0.01,0.01
1777319205.674531,-21.42,-0.09,0.45,-0.02,0.159,9.781,0.0,0.0,-0.01
1777319205.6845315,-21.39,-0.09,0.46,-0.012,0.164,9.775,-0.01,-0.01,-0.02
1777319205.6945133,-21.38,-0.09,0.46,-0.022,0.098,9.785,-0.01,0.0,-0.02
1777319205.704579,-21.37,-0.09,0.44,-0.013,0.017,9.781,0.0,-0.01,-0.01
1777319205.714562,-21.39,-0.09,0.43,-0.016,0.011,9.786,-0.01,0.0,0.0
1777319205.724547,-21.42,-0.09,0.44,-0.014,0.061,9.792,-0.01,-0.01,0.01
1777319205.7345161,-21.42,-0.09,0.44,0.002,0.105,9.782,0.0,0.0,0.01
1777319205.7445118,-21.42,-0.09,0.44,-0.004,0.132,9.788,-0.01,-0.01,0.0
1777319205.7545125,-21.4,-0.09,0.44,-0.011,0.147,9.792,-0.01,0.0,-0.01
1777319205.7645118,-21.39,-0.09,0.45,-0.02,0.081,9.792,-0.01,0.0,-0.02
1777319205.7745342,-21.39,-0.1,0.44,-0.029,0.01,9.775,0.0,0.0,-0.01
1777319205.7845132,-21.4,-0.09,0.43,-0.036,0.048,9.784,-0.01,0.0,0.0
1777319205.794517,-21.42,-0.09,0.44,-0.028,0.085,9.786,-0.01,-0.01,0.01
1777319205.8037002,-21.43,-0.09,0.44,-0.011,0.105,9.782,0.0,0.0,0.01
1777319205.81369,-21.42,-0.09,0.44,-0.02,0.14,9.79,-0.01,-0.01,0.0
1777319205.823696,-21.4,-0.09,0.45,-0.026,0.147,9.787,-0.01,-0.01,-0.01
1777319205.8337393,-21.39,-0.09,0.45,-0.014,0.093,9.779,-0.01,0.0,-0.02
1777319205.8445785,-21.39,-0.1,0.44,-0.016,0.018,9.772,0.0,0.0,-0.01
1777319205.8545856,-21.41,-0.09,0.43,-0.012,0.056,9.775,-0.01,0.0,0.0
1777319205.8645036,-21.42,-0.09,0.44,-0.014,0.085,9.784,-0.01,-0.01,0.01
1777319205.873638,-21.42,-0.09,0.44,0.0,0.099,9.77,0.0,0.0,0.0
1777319205.884928,-21.42,-0.09,0.44,-0.007,0.144,9.779,-0.01,0.0,-0.01
1777319205.8949006,-21.39,-0.09,0.45,-0.008,0.133,9.774,-0.01,-0.01,-0.02
1777319205.904549,-21.37,-0.09,0.44,-0.018,0.084,9.772,0.0,0.0,-0.02
1777319205.9141474,-21.37,-0.1,0.44,-0.012,-0.001,9.764,0.0,0.0,-0.02
1777319205.9245355,-21.39,-0.09,0.43,-0.018,0.024,9.772,0.0,0.0,0.0
1777319205.9349978,-21.41,-0.09,0.44,-0.011,0.078,9.779,-0.01,-0.01,0.01
1777319205.9441023,-21.42,-0.09,0.44,-0.014,0.111,9.782,0.0,0.0,0.01
1777319205.954534,-21.41,-0.09,0.45,-0.01,0.139,9.784,0.0,0.0,0.0
1777319205.9636369,-21.39,-0.09,0.45,-0.019,0.157,9.79,-0.01,-0.01,-0.01
1777319205.9736261,-21.38,-0.09,0.45,-0.012,0.116,9.784,-0.01,0.0,-0.02
1777319205.984679,-21.38,-0.09,0.44,-0.017,0.035,9.785,0.0,0.0,-0.01
1777319205.993639,-21.39,-0.09,0.43,-0.014,0.017,9.776,-0.01,-0.01,0.0
1777319206.003624,-21.42,-0.09,0.43,-0.018,0.066,9.785,-0.01,-0.01,0.01
1777319206.0136514,-21.42,-0.09,0.44,-0.007,0.086,9.784,0.0,-0.01,0.01
1777319206.0238447,-21.42,-0.09,0.44,-0.004,0.114,9.788,0.0,0.0,0.0
1777319206.0353787,-21.39,-0.09,0.44,-0.007,0.126,9.794,-0.01,-0.01,-0.01
1777319206.0437083,-21.38,-0.09,0.44,-0.004,0.107,9.787,-0.01,0.0,-0.02
1777319206.053713,-21.37,-0.09,0.44,-0.012,0.034,9.784,0.0,0.0,-0.02
1777319206.063645,-21.39,-0.08,0.43,-0.014,0.008,9.778,0.0,-0.01,-0.01
1777319206.0736148,-21.41,-0.09,0.44,-0.025,0.08,9.787,-0.01,-0.01,0.01
1777319206.083614,-21.42,-0.09,0.44,-0.016,0.12,9.785,0.0,-0.01,0.01
1777319206.0936236,-21.42,-0.09,0.45,-0.012,0.158,9.78,0.0,0.0,0.0
1777319206.1036272,-21.39,-0.09,0.45,-0.016,0.166,9.787,-0.01,-0.01,-0.01
1777319206.1136265,-21.38,-0.08,0.46,-0.012,0.135,9.781,-0.01,0.0,-0.02
1777319206.123616,-21.37,-0.09,0.45,-0.01,0.042,9.788,0.0,0.0,-0.02
1777319206.1336255,-21.39,-0.08,0.43,-0.014,0.016,9.787,-0.01,-0.01,-0.01
1777319206.143639,-21.41,-0.08,0.44,-0.02,0.063,9.794,-0.01,-0.01,0.01
1777319206.153621,-21.42,-0.09,0.44,-0.02,0.079,9.794,0.0,-0.01,0.01
1777319206.1636002,-21.42,-0.09,0.44,-0.011,0.113,9.779,0.0,0.0,0.0
1777319206.1735988,-21.4,-0.08,0.44,-0.017,0.134,9.787,-0.01,-0.01,-0.01
1777319206.1835985,-21.38,-0.09,0.45,-0.013,0.12,9.782,-0.01,0.0,-0.02
1777319206.1936214,-21.38,-0.09,0.44,-0.014,0.038,9.779,0.0,0.0,-0.02
1777319206.2036252,-21.39,-0.08,0.43,-0.008,0.017,9.766,0.0,-0.01,-0.01
1777319206.2136114,-21.41,-0.08,0.44,-0.014,0.078,9.779,-0.01,-0.01,0.01
1777319206.2236123,-21.42,-0.09,0.44,-0.005,0.111,9.775,0.0,-0.01,0.01
1777319206.2336087,-21.42,-0.09,0.45,-0.004,0.147,9.78,0.0,0.0,0.0
1777319206.2436008,-21.39,-0.08,0.46,-0.022,0.172,9.787,-0.01,-0.01,-0.01
1777319206.2535887,-21.37,-0.08,0.46,-0.014,0.122,9.781,-0.01,0.0,-0.02
1777319206.2636023,-21.36,-0.09,0.45,-0.029,0.037,9.782,-0.01,0.0,-0.02
1777319206.273589,-21.37,-0.09,0.43,-0.025,0.002,9.767,-0.01,-0.01,-0.01
1777319206.2835932,-21.39,-0.09,0.44,-0.023,0.048,9.778,-0.01,-0.01,0.01
1777319206.2936003,-21.42,-0.09,0.44,-0.005,0.09,9.773,0.0,-0.01,0.01
1777319206.3035882,-21.42,-0.08,0.45,-0.005,0.12,9.776,0.0,0.0,0.01
1777319206.3135767,-21.41,-0.09,0.45,-0.007,0.156,9.779,-0.01,-0.01,-0.01
1777319206.3235576,-21.39,-0.08,0.46,-0.01,0.146,9.775,-0.01,0.0,-0.01
1777319206.3336003,-21.38,-0.09,0.45,-0.022,0.086,9.775,0.0,0.0,-0.02
1777319206.3435886,-21.38,-0.09,0.44,-0.019,0.029,9.76,-0.01,0.0,-0.01
1777319206.3535721,-21.4,-0.09,0.44,-0.028,0.066,9.772,-0.01,-0.01,0.0
1777319206.3635626,-21.41,-0.09,0.45,-0.017,0.098,9.767,0.0,-0.01,0.01
1777319206.3735995,-21.41,-0.09,0.45,-0.013,0.113,9.778,0.0,0.0,0.0
1777319206.3836007,-21.4,-0.09,0.45,-0.01,0.125,9.781,-0.01,-0.01,-0.01
1777319206.3936274,-21.39,-0.09,0.45,-0.019,0.127,9.781,-0.01,-0.01,-0.01
1777319206.403622,-21.38,-0.09,0.45,-0.025,0.073,9.778,-0.01,0.0,-0.01
1777319206.413612,-21.39,-0.09,0.44,-0.031,0.016,9.766,0.0,0.0,-0.01
1777319206.4236033,-21.4,-0.09,0.44,-0.03,0.051,9.778,-0.01,-0.01,0.0
1777319206.4335985,-21.41,-0.09,0.44,-0.025,0.097,9.786,0.0,-0.01,0.01
1777319206.4435735,-21.41,-0.08,0.46,-0.014,0.115,9.786,0.0,0.0,0.0
1777319206.45362,-21.4,-0.09,0.45,-0.01,0.122,9.792,0.0,0.0,-0.01
1777319206.463629,-21.39,-0.09,0.45,-0.005,0.126,9.787,-0.01,0.0,-0.01
1777319206.4736226,-21.38,-0.09,0.45,-0.005,0.096,9.785,-0.01,0.0,-0.02
1777319206.4835858,-21.38,-0.09,0.44,-0.023,0.037,9.791,0.0,0.0,-0.01
1777319206.493576,-21.39,-0.09,0.44,-0.023,0.034,9.778,-0.01,-0.01,0.0
1777319206.5035858,-21.42,-0.09,0.44,-0.032,0.089,9.786,-0.01,-0.01,0.01
1777319206.5136127,-21.42,-0.09,0.45,-0.013,0.116,9.778,0.0,0.0,0.0
1777319206.5236251,-21.4,-0.08,0.46,-0.014,0.134,9.784,0.0,0.0,-0.01
1777319206.5336213,-21.39,-0.09,0.45,-0.006,0.133,9.78,-0.01,-0.01,-0.02
1777319206.5436177,-21.37,-0.08,0.46,-0.01,0.098,9.779,-0.01,0.0,-0.02
1777319206.553586,-21.37,-0.09,0.45,-0.006,0.038,9.782,0.0,0.0,-0.01
1777319206.5635862,-21.39,-0.09,0.44,-0.012,0.013,9.785,-0.01,-0.01,0.0
1777319206.57359,-21.41,-0.08,0.44,-0.014,0.071,9.791,-0.01,-0.01,0.01
1777319206.5835934,-21.42,-0.09,0.45,-0.011,0.114,9.79,0.0,-0.01,0.01
1777319206.5936038,-21.41,-0.08,0.46,-0.011,0.146,9.792,0.0,0.0,0.0
1777319206.603698,-21.39,-0.08,0.46,-0.016,0.152,9.791,-0.01,-0.01,-0.01
1777319206.6135876,-21.37,-0.08,0.46,-0.008,0.101,9.775,-0.01,0.0,-0.02
1777319206.6235926,-21.36,-0.09,0.45,-0.014,0.02,9.772,0.0,0.0,-0.02
1777319206.6335895,-21.37,-0.09,0.44,-0.014,0.01,9.779,-0.01,-0.01,-0.01
1777319206.6435926,-21.39,-0.09,0.44,-0.023,0.068,9.786,-0.01,-0.01,0.01
1777319206.6535885,-21.39,-0.09,0.45,-0.01,0.093,9.782,0.0,0.0,0.01
1777319206.6635764,-21.39,-0.09,0.45,-0.01,0.137,9.785,-0.01,-0.01,0.0
1777319206.6735723,-21.38,-0.08,0.46,-0.011,0.153,9.781,-0.01,-0.01,-0.01
1777319206.6835797,-21.37,-0.08,0.46,-0.014,0.11,9.781,-0.01,0.0,-0.01
1777319206.693555,-21.37,-0.09,0.45,-0.025,0.019,9.785,0.0,-0.01,-0.01
1777319206.7035413,-21.37,-0.08,0.44,-0.026,0.053,9.778,-0.01,0.0,0.0
1777319206.7135913,-21.39,-0.09,0.45,-0.019,0.107,9.786,-0.01,-0.01,0.0
1777319206.7235613,-21.39,-0.08,0.46,0.0,0.103,9.762,0.0,0.0,0.0
1777319206.733524,-21.38,-0.08,0.46,0.0,0.104,9.767,0.0,0.0,-0.01
1777319206.743591,-21.37,-0.08,0.45,-0.006,0.121,9.778,-0.01,-0.01,-0.01
1777319206.7536843,-21.37,-0.08,0.46,-0.007,0.095,9.778,-0.01,0.0,-0.01
1777319206.7635918,-21.37,-0.09,0.45,-0.023,0.047,9.774,0.0,0.0,-0.01
1777319206.7735333,-21.39,-0.09,0.44,-0.022,0.055,9.755,-0.01,0.0,0.0
1777319206.7835398,-21.39,-0.09,0.45,-0.024,0.102,9.768,-0.01,-0.01,0.0
1777319206.7936058,-21.39,-0.08,0.46,-0.013,0.12,9.776,0.0,-0.01,0.0
1777319206.803607,-21.38,-0.08,0.46,-0.005,0.125,9.785,0.0,0.0,-0.01
1777319206.81355,-21.37,-0.08,0.46,-0.008,0.115,9.782,-0.01,-0.01,-0.01
1777319206.8235447,-21.37,-0.09,0.45,-0.007,0.089,9.773,-0.01,0.0,-0.01
1777319206.833517,-21.37,-0.08,0.45,-0.019,0.032,9.776,0.0,0.0,-0.01
1777319206.8435192,-21.39,-0.08,0.44,-0.017,0.036,9.782,-0.01,-0.01,0.0
1777319206.853557,-21.4,-0.08,0.44,-0.016,0.091,9.791,-0.01,-0.01,0.01
1777319206.8635557,-21.4,-0.08,0.45,-0.005,0.122,9.79,0.0,-0.01,0.0
1777319206.873535,-21.39,-0.08,0.46,0.001,0.139,9.781,-0.01,0.0,-0.01
1777319206.8835552,-21.37,-0.08,0.46,-0.005,0.141,9.782,-0.01,-0.01,-0.02
1777319206.8935535,-21.36,-0.08,0.46,-0.002,0.093,9.782,-0.01,0.0,-0.02
1777319206.903538,-21.37,-0.08,0.45,-0.012,0.016,9.78,0.0,0.0,-0.01
1777319206.913512,-21.39,-0.08,0.44,-0.016,0.05,9.782,-0.01,0.0,0.0
1777319206.9235234,-21.4,-0.08,0.45,-0.014,0.109,9.79,-0.01,-0.01,0.01
1777319206.9347072,-21.4,-0.08,0.46,0.0,0.125,9.781,0.0,0.0,0.0
1777319206.9435425,-21.39,-0.08,0.46,-0.005,0.135,9.781,-0.01,0.0,-0.01
1777319206.9535472,-21.37,-0.08,0.46,-0.01,0.117,9.781,-0.01,-0.01,-0.02
1777319206.9635181,-21.36,-0.08,0.45,-0.005,0.044,9.772,0.0,0.0,-0.02
1777319206.972672,-21.37,-0.07,0.43,-0.014,0.005,9.76,0.0,0.0,-0.01
1777319206.9826734,-21.39,-0.07,0.44,-0.017,0.065,9.773,-0.01,-0.01,0.0
1777319206.9935303,-21.4,-0.08,0.45,-0.004,0.096,9.772,0.0,-0.01,0.01
1777319207.002701,-21.39,-0.07,0.45,0.008,0.125,9.77,0.0,0.0,0.0
1777319207.0126815,-21.38,-0.07,0.45,-0.006,0.147,9.78,-0.01,-0.01,-0.01
1777319207.0228672,-21.37,-0.08,0.46,0.0,0.121,9.784,-0.01,0.0,-0.01
1777319207.033521,-21.37,-0.07,0.45,-0.011,0.055,9.788,0.0,0.0,-0.01
1777319207.0439708,-21.38,-0.07,0.44,-0.01,0.037,9.775,-0.01,-0.01,0.0
1777319207.0539978,-21.39,-0.07,0.45,-0.017,0.081,9.784,-0.01,-0.01,0.01
1777319207.0626473,-21.4,-0.08,0.46,-0.002,0.109,9.792,0.0,0.0,0.01
1777319207.0726633,-21.39,-0.07,0.45,-0.007,0.135,9.787,0.0,0.0,0.0
1777319207.0835245,-21.37,-0.08,0.46,-0.011,0.137,9.786,-0.01,0.0,-0.01
1777319207.093513,-21.36,-0.08,0.46,-0.014,0.091,9.776,-0.01,0.0,-0.02
1777319207.1026876,-21.36,-0.08,0.45,-0.025,-0.001,9.767,0.0,0.0,-0.02
1777319207.112653,-21.37,-0.07,0.43,-0.038,0.023,9.764,-0.01,0.0,0.0
1777319207.1227214,-21.39,-0.08,0.44,-0.036,0.066,9.776,0.0,-0.01,0.01
1777319207.132662,-21.39,-0.08,0.46,-0.019,0.105,9.766,0.0,-0.01,0.01
1777319207.1426873,-21.38,-0.08,0.46,-0.011,0.128,9.773,0.0,-0.01,0.0
1777319207.1526575,-21.37,-0.08,0.46,-0.002,0.143,9.778,-0.01,-0.01,-0.01
1777319207.1626709,-21.36,-0.08,0.46,-0.005,0.091,9.781,-0.01,-0.01,-0.02
1777319207.1726542,-21.36,-0.07,0.45,-0.01,0.019,9.785,0.0,0.0,-0.01
1777319207.1826918,-21.38,-0.07,0.43,-0.014,0.051,9.78,-0.01,-0.01,0.0
1777319207.1926742,-21.39,-0.07,0.45,-0.006,0.095,9.787,-0.01,-0.01,0.01
1777319207.2026892,-21.39,-0.07,0.45,0.005,0.129,9.778,0.0,0.0,0.0
1777319207.2126682,-21.38,-0.07,0.45,0.0,0.132,9.778,-0.01,0.0,-0.01
1777319207.222688,-21.37,-0.07,0.45,-0.002,0.131,9.775,-0.01,0.0,-0.02
1777319207.2326427,-21.35,-0.08,0.46,-0.013,0.059,9.774,-0.01,0.0,-0.02
1777319207.2426436,-21.36,-0.07,0.44,-0.026,-0.017,9.763,0.0,0.0,-0.01
1777319207.252652,-21.38,-0.07,0.43,-0.031,0.038,9.77,-0.01,-0.01,0.0
1777319207.2627037,-21.39,-0.08,0.44,-0.024,0.101,9.768,0.0,-0.01,0.01
1777319207.272622,-21.39,-0.08,0.46,-0.008,0.126,9.77,0.0,0.0,0.0
1777319207.2826319,-21.38,-0.07,0.45,-0.016,0.15,9.778,-0.01,0.0,-0.01
1777319207.2926035,-21.37,-0.08,0.46,-0.01,0.14,9.782,-0.01,-0.01,-0.02
1777319207.3026228,-21.36,-0.08,0.46,-0.013,0.074,9.78,-0.01,0.0,-0.02
1777319207.3125844,-21.37,-0.08,0.44,-0.017,0.012,9.775,0.0,-0.01,-0.01
1777319207.32264,-21.38,-0.07,0.44,-0.018,0.06,9.781,-0.01,0.0,0.0
1777319207.3325973,-21.39,-0.07,0.45,-0.008,0.096,9.788,0.0,-0.01,0.01
1777319207.3426018,-21.39,-0.07,0.45,0.008,0.115,9.79,0.0,0.0,0.0
1777319207.3526325,-21.38,-0.07,0.45,-0.006,0.139,9.794,-0.01,0.0,-0.01
1777319207.3626435,-21.37,-0.07,0.45,-0.018,0.137,9.781,-0.01,0.0,-0.02
1777319207.3727782,-21.36,-0.08,0.46,-0.019,0.049,9.768,0.0,0.0,-0.02
1777319207.3826246,-21.37,-0.08,0.44,-0.024,0.006,9.756,0.0,-0.01,-0.01
1777319207.3925986,-21.38,-0.08,0.44,-0.031,0.068,9.769,-0.01,0.0,0.0
1777319207.4026163,-21.39,-0.08,0.45,-0.024,0.103,9.776,0.0,-0.01,0.01
1777319207.4125957,-21.39,-0.08,0.46,-0.007,0.14,9.762,0.0,0.0,0.0
1777319207.422615,-21.37,-0.08,0.46,-0.02,0.153,9.774,-0.01,0.0,-0.01
1777319207.4326148,-21.35,-0.08,0.46,-0.014,0.137,9.776,-0.01,-0.01,-0.02
1777319207.4426308,-21.34,-0.08,0.46,-0.028,0.038,9.78,0.0,0.0,-0.02
1777319207.452585,-21.35,-0.08,0.44,-0.022,0.006,9.768,0.0,-0.01,-0.01
1777319207.4626515,-21.37,-0.08,0.44,-0.025,0.041,9.78,-0.01,-0.01,0.01
1777319207.472627,-21.38,-0.08,0.45,-0.004,0.073,9.778,0.0,0.0,0.01
1777319207.4826813,-21.39,-0.08,0.45,-0.002,0.099,9.786,0.0,0.0,0.0
1777319207.4926355,-21.37,-0.08,0.45,-0.007,0.141,9.788,-0.01,-0.01,-0.01
1777319207.5026603,-21.36,-0.08,0.46,-0.016,0.132,9.793,-0.01,-0.01,-0.01
1777319207.5127995,-21.35,-0.08,0.46,-0.02,0.068,9.784,0.0,0.0,-0.02
1777319207.5225832,-21.36,-0.08,0.44,-0.019,0.044,9.773,-0.01,0.0,-0.01
1777319207.5326674,-21.37,-0.08,0.45,-0.028,0.092,9.782,-0.01,-0.01,0.0
1777319207.5426817,-21.39,-0.08,0.46,-0.012,0.119,9.784,0.0,-0.01,0.01
1777319207.5526056,-21.38,-0.08,0.46,-0.019,0.117,9.791,0.0,0.0,0.0
1777319207.5627005,-21.37,-0.08,0.46,-0.016,0.122,9.793,-0.01,0.0,-0.01
1777319207.5731351,-21.35,-0.08,0.46,-0.026,0.105,9.797,-0.01,0.0,-0.02
1777319207.5825992,-21.35,-0.08,0.45,-0.026,0.013,9.785,0.0,-0.01,-0.01
1777319207.5927107,-21.37,-0.08,0.44,-0.02,0.007,9.779,0.0,0.0,0.0
1777319207.6026165,-21.38,-0.07,0.44,-0.025,0.078,9.786,-0.01,-0.01,0.01
1777319207.6127088,-21.39,-0.08,0.46,-0.006,0.117,9.782,0.0,-0.01,0.01
1777319207.6225893,-21.38,-0.08,0.46,-0.004,0.144,9.776,0.0,0.0,0.0
1777319207.6325827,-21.37,-0.08,0.46,-0.011,0.152,9.785,-0.01,0.0,-0.01
1777319207.6429439,-21.35,-0.08,0.46,-0.018,0.115,9.785,-0.01,-0.01,-0.02
1777319207.653125,-21.35,-0.08,0.46,-0.019,0.049,9.785,0.0,0.0,-0.01
1777319207.6626,-21.37,-0.08,0.44,-0.026,0.035,9.778,-0.01,-0.01,0.0
1777319207.6727083,-21.39,-0.08,0.44,-0.032,0.089,9.786,-0.01,-0.01,0.01
1777319207.6825833,-21.39,-0.08,0.46,-0.028,0.11,9.785,0.0,-0.01,0.01
1777319207.6925652,-21.38,-0.08,0.46,-0.026,0.12,9.784,0.0,0.0,-0.01
1777319207.7025838,-21.36,-0.09,0.45,-0.023,0.107,9.788,-0.01,-0.01,-0.02
1777319207.7125642,-21.34,-0.08,0.46,-0.041,0.078,9.785,-0.01,-0.01,-0.02
1777319207.7225802,-21.34,-0.08,0.44,-0.037,-0.004,9.767,0.0,-0.01,-0.01
1777319207.7325702,-21.37,-0.08,0.44,-0.032,0.018,9.762,0.0,-0.01,0.0
1777319207.7425845,-21.38,-0.07,0.44,-0.028,0.092,9.774,-0.01,-0.01,0.01
1777319207.7525644,-21.39,-0.07,0.45,-0.008,0.137,9.776,0.0,-0.01,0.01
1777319207.7625384,-21.38,-0.07,0.45,-0.004,0.166,9.782,-0.01,0.0,0.0
1777319207.7725542,-21.36,-0.07,0.45,-0.008,0.164,9.79,-0.01,-0.01,-0.02
1777319207.7825735,-21.34,-0.07,0.46,-0.001,0.086,9.785,-0.01,0.0,-0.02
1777319207.7925255,-21.34,-0.07,0.45,0.013,0.011,9.778,0.0,0.0,-0.02
1777319207.8026073,-21.36,-0.07,0.44,0.035,0.036,9.786,-0.01,-0.01,0.0
1777319207.812594,-21.37,-0.06,0.45,0.031,0.062,9.793,0.0,0.0,0.01
1777319207.8226955,-21.37,-0.07,0.45,0.026,0.079,9.787,0.0,0.0,0.0
1777319207.8325846,-21.37,-0.07,0.45,0.011,0.099,9.79,-0.01,0.0,0.0
1777319207.8425956,-21.36,-0.08,0.45,-0.007,0.114,9.793,-0.01,0.0,-0.01
1777319207.8525426,-21.36,-0.08,0.46,-0.028,0.037,9.78,0.0,0.0,-0.01
1777319207.862595,-21.37,-0.09,0.44,-0.043,0.037,9.776,0.0,0.0,0.0
1777319207.8725688,-21.38,-0.09,0.45,-0.057,0.108,9.781,-0.01,-0.01,0.0
1777319207.882532,-21.38,-0.09,0.46,-0.047,0.148,9.77,0.0,-0.01,0.0
1777319207.8925157,-21.37,-0.09,0.47,-0.051,0.134,9.776,0.0,0.0,-0.01
1777319207.902516,-21.36,-0.08,0.46,-0.042,0.129,9.778,-0.01,-0.01,-0.01
1777319207.9125302,-21.35,-0.08,0.46,-0.036,0.119,9.785,-0.01,-0.01,-0.01
1777319207.922511,-21.35,-0.08,0.46,-0.017,0.08,9.785,-0.01,-0.01,-0.01
1777319207.9317005,-21.37,-0.08,0.45,-0.012,0.01,9.78,0.0,-0.01,0.0
1777319207.9416714,-21.38,-0.07,0.43,0.0,0.055,9.782,-0.01,-0.01,0.01
1777319207.9525423,-21.39,-0.07,0.45,0.004,0.111,9.79,-0.01,-0.01,0.01
1777319207.9625337,-21.38,-0.07,0.45,0.022,0.125,9.788,0.0,0.0,0.0
1777319207.9725165,-21.36,-0.08,0.46,0.007,0.11,9.78,0.0,0.0,-0.02
1777319207.982499,-21.34,-0.08,0.46,-0.002,0.074,9.767,-0.01,0.0,-0.02
1777319207.9925468,-21.34,-0.08,0.45,-0.008,0.034,9.762,0.0,0.0,-0.01
1777319208.0025177,-21.36,-0.08,0.44,-0.031,-0.006,9.774,0.0,0.0,0.0
1777319208.012508,-21.38,-0.09,0.44,-0.034,0.047,9.784,-0.01,-0.01,0.01
1777319208.0225015,-21.39,-0.09,0.45,-0.034,0.129,9.79,-0.01,-0.01,0.01
