timestamp,yaw,pitch,roll,accel_x,accel_y,accel_z,gyro_x,gyro_y,gyro_z
1777316756.5864096,-1.96,-0.01,0.64,0.001,0.101,9.792,0.0,0.0,0.0
1777316756.5965881,-1.95,-0.01,0.64,-0.007,0.107,9.792,0.0,0.0,-0.01
1777316756.6063004,-1.96,-0.01,0.64,0.0,0.085,9.787,0.0,0.0,-0.01
1777316756.6162946,-1.96,-0.01,0.64,-0.006,0.102,9.793,-0.01,0.0,0.0
1777316756.626357,-1.97,-0.01,0.64,-0.006,0.108,9.797,-0.01,-0.01,0.0
1777316756.6364267,-1.97,-0.01,0.64,-0.011,0.119,9.799,-0.01,-0.01,0.0
1777316756.6464376,-1.97,-0.01,0.64,-0.008,0.132,9.798,-0.01,0.0,0.0
1777316756.6563377,-1.97,-0.01,0.64,0.0,0.125,9.792,-0.01,-0.01,0.0
1777316756.6664233,-1.97,-0.01,0.64,-0.023,0.125,9.796,-0.01,0.0,-0.01
1777316756.6764326,-1.97,-0.02,0.64,-0.047,0.109,9.785,0.0,-0.01,-0.01
1777316756.6863046,-1.97,-0.04,0.64,-0.121,0.128,9.739,-0.01,0.0,-0.01
1777316756.696344,-1.96,-0.09,0.66,-0.314,0.166,9.712,0.0,0.0,0.0
1777316756.7063336,-1.95,-0.18,0.7,-0.263,0.194,9.536,0.01,0.02,-0.01
1777316756.7164032,-1.92,-0.22,0.77,-0.184,0.143,9.535,0.02,0.03,-0.01
1777316756.7264307,-1.9,-0.22,0.81,-0.175,0.004,9.608,0.03,0.01,-0.02
1777316756.736311,-1.88,-0.2,0.79,-0.169,-0.077,9.662,0.02,-0.01,-0.02
1777316756.746326,-1.87,-0.15,0.75,-0.15,-0.025,9.701,-0.01,-0.02,-0.02
1777316756.7563083,-1.85,-0.11,0.74,-0.115,0.035,9.584,-0.02,-0.03,-0.01
1777316756.7663202,-1.85,-0.04,0.75,-0.038,0.074,9.454,-0.01,-0.03,-0.01
1777316756.7763197,-1.85,0.03,0.75,0.007,0.102,9.538,-0.01,-0.04,-0.01
1777316756.7863383,-1.85,0.08,0.75,0.051,0.109,9.61,0.0,-0.03,0.0
1777316756.7963228,-1.86,0.12,0.75,0.14,0.095,9.664,-0.01,-0.03,0.0
1777316756.8063242,-1.87,0.17,0.73,0.218,0.141,9.651,-0.01,-0.02,0.0
1777316756.816296,-1.87,0.19,0.73,0.279,0.199,9.648,-0.02,-0.02,0.0
1777316756.8263223,-1.85,0.21,0.74,0.305,0.181,9.669,-0.01,-0.01,-0.01
1777316756.836327,-1.85,0.22,0.73,0.296,0.134,9.706,-0.01,0.0,-0.01
1777316756.8462925,-1.83,0.21,0.72,0.241,0.107,9.733,-0.01,0.0,-0.01
1777316756.856357,-1.83,0.18,0.72,0.218,0.098,9.723,-0.01,0.01,-0.01
1777316756.86634,-1.82,0.16,0.7,0.151,0.053,9.676,-0.01,0.02,-0.01
1777316756.8763487,-1.82,0.13,0.7,0.083,0.044,9.678,-0.01,0.01,-0.01
1777316756.8863173,-1.83,0.1,0.7,0.005,0.001,9.713,0.0,0.01,0.0
1777316756.896346,-1.84,0.07,0.69,-0.059,-0.019,9.738,0.0,0.01,0.0
1777316756.9063263,-1.86,0.04,0.68,-0.114,-0.008,9.736,0.0,0.01,0.01
1777316756.916341,-1.87,0.03,0.68,-0.147,-0.011,9.678,-0.01,0.0,0.01
1777316756.9263432,-1.9,0.02,0.67,-0.165,0.014,9.657,0.0,0.0,0.01
1777316756.93631,-1.9,0.02,0.68,-0.184,0.048,9.697,0.0,-0.01,0.01
1777316756.9463446,-1.92,0.01,0.69,-0.17,0.055,9.727,0.0,-0.01,0.0
1777316756.9562926,-1.92,0.02,0.69,-0.131,0.097,9.732,0.0,-0.01,0.0
1777316756.966341,-1.91,0.03,0.7,-0.091,0.131,9.715,0.0,-0.01,0.0
1777316756.9763079,-1.9,0.05,0.71,-0.056,0.16,9.73,0.0,-0.02,-0.01
1777316756.98632,-1.88,0.06,0.71,-0.017,0.17,9.751,0.0,-0.01,-0.01
1777316756.9963722,-1.87,0.07,0.71,0.014,0.16,9.767,0.0,-0.01,-0.02
1777316757.006345,-1.85,0.08,0.71,0.041,0.164,9.778,-0.01,-0.01,-0.02
1777316757.0163186,-1.85,0.09,0.71,0.049,0.164,9.768,-0.01,-0.01,-0.01
1777316757.0263147,-1.84,0.09,0.71,0.053,0.14,9.766,-0.01,-0.01,-0.01
1777316757.0362918,-1.84,0.09,0.7,0.038,0.111,9.776,-0.01,0.0,-0.01
1777316757.0463145,-1.84,0.07,0.69,0.012,0.101,9.786,-0.01,0.0,0.0
1777316757.056413,-1.85,0.07,0.68,0.006,0.056,9.769,-0.01,0.0,0.0
1777316757.0664608,-1.85,0.05,0.67,-0.013,0.059,9.754,-0.01,0.0,0.0
1777316757.0764194,-1.86,0.05,0.67,-0.036,0.049,9.755,-0.01,0.0,0.0
1777316757.08648,-1.87,0.04,0.66,-0.063,0.04,9.769,0.0,0.0,0.0
1777316757.0964215,-1.87,0.02,0.66,-0.08,0.034,9.773,-0.01,0.0,0.0
1777316757.106268,-1.87,0.02,0.66,-0.085,0.028,9.757,0.0,0.0,-0.01
1777316757.1163158,-1.87,0.02,0.66,-0.08,0.037,9.741,0.0,-0.01,-0.01
1777316757.1262794,-1.87,0.03,0.66,-0.084,0.06,9.756,0.0,-0.01,0.0
1777316757.1354594,-1.87,0.02,0.66,-0.071,0.074,9.77,0.0,-0.01,0.0
1777316757.1463206,-1.87,0.03,0.66,-0.063,0.093,9.775,-0.01,-0.01,-0.01
1777316757.1563034,-1.86,0.04,0.66,-0.035,0.109,9.757,0.0,-0.01,-0.01
1777316757.1662817,-1.86,0.05,0.67,-0.012,0.115,9.759,0.0,-0.01,-0.01
1777316757.1762686,-1.85,0.05,0.67,0.011,0.123,9.772,0.0,-0.01,-0.01
1777316757.1855812,-1.85,0.06,0.66,0.04,0.151,9.782,-0.01,0.0,-0.01
1777316757.1962926,-1.85,0.06,0.67,0.047,0.18,9.787,-0.01,0.0,0.0
1777316757.2054994,-1.85,0.05,0.67,0.055,0.193,9.785,-0.01,0.0,0.0
1777316757.2163055,-1.86,0.05,0.67,0.068,0.196,9.788,-0.01,0.0,-0.01
1777316757.226424,-1.86,0.04,0.66,0.034,0.169,9.794,-0.01,0.0,0.0
1777316757.2354598,-1.87,0.02,0.65,0.035,0.164,9.786,-0.01,0.01,0.0
1777316757.2464507,-1.87,0.0,0.64,-0.01,0.117,9.778,-0.01,0.01,0.0
1777316757.2562807,-1.88,-0.02,0.63,-0.028,0.099,9.76,-0.01,0.0,0.0
1777316757.2654765,-1.89,-0.02,0.62,-0.044,0.042,9.753,-0.01,0.0,0.0
1777316757.2764213,-1.9,-0.03,0.6,-0.075,0.016,9.757,-0.01,0.0,0.0
1777316757.2854576,-1.92,-0.05,0.59,-0.079,0.004,9.75,-0.01,0.0,0.01
1777316757.295447,-1.93,-0.05,0.58,-0.078,0.022,9.737,-0.01,0.0,0.01
1777316757.3064055,-1.94,-0.05,0.59,-0.08,0.026,9.742,0.0,-0.01,0.0
1777316757.315419,-1.94,-0.04,0.59,-0.059,0.041,9.757,0.0,-0.01,0.0
1777316757.3254297,-1.93,-0.04,0.59,-0.054,0.071,9.772,0.0,-0.01,-0.01
1777316757.336417,-1.92,-0.03,0.6,-0.028,0.089,9.773,0.0,-0.01,-0.01
1777316757.3454537,-1.9,-0.02,0.61,-0.014,0.105,9.782,0.0,-0.01,-0.01
1777316757.355446,-1.89,-0.02,0.62,0.002,0.113,9.791,0.0,-0.01,-0.02
1777316757.3654747,-1.88,-0.01,0.62,0.011,0.123,9.796,0.0,-0.01,-0.01
1777316757.375458,-1.87,-0.01,0.62,0.008,0.148,9.797,0.0,-0.01,-0.01
1777316757.3854547,-1.86,-0.01,0.63,0.005,0.152,9.792,0.0,-0.01,-0.01
1777316757.3954298,-1.86,-0.01,0.63,0.013,0.139,9.779,0.0,-0.01,-0.01
1777316757.405445,-1.87,-0.0,0.63,0.02,0.127,9.78,0.0,-0.01,-0.01
1777316757.415403,-1.88,-0.01,0.62,0.001,0.133,9.788,-0.01,-0.01,0.0
1777316757.425447,-1.9,-0.02,0.62,0.018,0.137,9.768,-0.01,0.0,0.01
1777316757.4354217,-1.91,-0.02,0.62,0.019,0.144,9.741,-0.01,0.0,0.01
1777316757.4456067,-1.91,-0.01,0.62,0.038,0.135,9.709,-0.01,0.0,0.0
1777316757.4555862,-1.91,-0.0,0.62,0.032,0.113,9.736,-0.01,-0.01,0.0
1777316757.465607,-1.92,-0.0,0.61,0.026,0.073,9.755,-0.01,-0.01,-0.01
1777316757.475552,-1.92,-0.01,0.6,0.017,0.053,9.769,-0.01,0.0,0.0
1777316757.4854379,-1.93,-0.02,0.59,0.02,0.065,9.754,-0.01,0.0,0.0
1777316757.4954648,-1.94,-0.03,0.6,-0.016,0.073,9.748,0.0,0.0,0.0
1777316757.505451,-1.94,-0.04,0.6,-0.029,0.069,9.751,0.0,0.0,0.0
1777316757.5154169,-1.94,-0.05,0.61,-0.057,0.068,9.767,0.0,0.0,0.0
1777316757.525397,-1.95,-0.05,0.61,-0.069,0.077,9.778,0.0,0.0,0.0
1777316757.535437,-1.95,-0.06,0.62,-0.077,0.105,9.763,0.0,0.0,0.0
1777316757.5454085,-1.95,-0.06,0.62,-0.069,0.129,9.751,0.0,-0.01,0.0
1777316757.5554152,-1.95,-0.05,0.63,-0.062,0.137,9.764,0.0,-0.01,0.0
1777316757.5653908,-1.95,-0.05,0.63,-0.04,0.144,9.776,0.0,-0.01,-0.01
1777316757.575393,-1.95,-0.05,0.64,-0.022,0.165,9.785,-0.01,-0.01,-0.01
1777316757.5854769,-1.95,-0.04,0.64,0.002,0.159,9.786,-0.01,-0.01,-0.01
1777316757.5953865,-1.94,-0.03,0.64,0.016,0.163,9.788,-0.01,-0.01,-0.01
1777316757.6058276,-1.94,-0.02,0.64,0.028,0.153,9.794,-0.01,-0.01,-0.01
1777316757.615392,-1.93,-0.02,0.63,0.036,0.137,9.798,-0.01,-0.01,-0.01
1777316757.625326,-1.93,-0.02,0.63,0.038,0.122,9.8,-0.01,0.0,-0.01
1777316757.6354191,-1.93,-0.02,0.62,0.029,0.105,9.796,-0.01,0.0,-0.01
1777316757.64541,-1.92,-0.02,0.62,0.025,0.074,9.775,-0.01,0.0,-0.01
1777316757.655384,-1.93,-0.02,0.59,0.069,0.0,9.665,-0.01,0.0,-0.01
1777316757.665382,-1.94,0.02,0.56,0.257,0.083,9.459,-0.02,-0.01,0.0
1777316757.6754107,-1.94,0.09,0.56,0.262,0.25,9.495,-0.02,-0.02,0.0
1777316757.6854022,-1.94,0.1,0.67,0.273,0.392,9.578,-0.01,-0.02,0.0
1777316757.6953597,-1.96,0.02,0.85,0.268,0.084,9.551,0.05,0.0,0.0
1777316757.705419,-1.99,-0.03,0.87,0.59,-0.219,9.57,0.09,0.05,0.01
1777316757.715394,-2.01,-0.03,0.79,0.599,-0.081,9.634,0.02,0.05,0.02
1777316757.7253952,-2.02,-0.11,0.76,0.471,0.165,9.681,-0.04,0.03,0.01
1777316757.7353733,-2.03,-0.22,0.75,0.469,0.199,9.608,-0.03,0.05,0.0
1777316757.7453575,-2.04,-0.3,0.69,0.393,0.206,9.446,-0.02,0.07,0.0
1777316757.7553952,-2.07,-0.43,0.66,0.281,0.285,9.411,-0.04,0.05,0.0
1777316757.7653918,-2.12,-0.54,0.65,0.162,0.198,9.479,-0.02,0.06,0.02
1777316757.7753756,-2.19,-0.64,0.61,-0.018,0.059,9.567,-0.01,0.05,0.03
1777316757.7853818,-2.26,-0.73,0.54,-0.198,-0.002,9.632,-0.02,0.04,0.03
1777316757.7953775,-2.33,-0.8,0.47,-0.32,0.01,9.624,-0.03,0.03,0.04
1777316757.8053672,-2.39,-0.83,0.42,-0.096,0.078,9.485,-0.04,0.02,0.03
1777316757.815386,-2.42,-0.52,0.4,0.326,-0.023,9.495,-0.03,-0.01,0.02
1777316757.8254042,-2.41,-0.34,0.21,-0.032,-0.127,9.579,-0.02,-0.15,0.01
1777316757.8353727,-2.36,-0.36,0.06,-0.431,0.527,9.512,-0.09,-0.1,-0.02
1777316757.8453944,-2.3,-0.41,-0.03,0.457,0.752,8.391,-0.11,0.02,-0.02
1777316757.8553581,-2.2,-0.19,-0.08,0.36,1.032,8.081,-0.11,0.02,-0.05
1777316757.8653648,-2.1,-0.03,-0.24,0.241,0.941,8.3,-0.08,-0.08,-0.05
1777316757.8753605,-1.97,-0.03,-0.37,0.078,1.032,8.7,-0.12,-0.07,-0.07
1777316757.8853788,-1.87,-0.04,-0.5,0.02,0.81,8.994,-0.11,-0.01,-0.08
1777316757.8953621,-1.81,-0.12,-0.52,-0.207,0.843,9.211,-0.08,0.0,-0.05
1777316757.9053807,-1.76,-0.27,-0.51,-0.248,0.667,9.371,-0.03,0.04,-0.04
1777316757.9153671,-1.71,-0.42,-0.55,-0.085,0.313,9.348,0.0,0.07,-0.03
1777316757.9253764,-1.69,-0.47,-0.59,0.043,0.225,8.877,-0.02,0.08,-0.03
1777316757.9353626,-1.7,-0.52,-0.63,-0.115,0.006,8.542,-0.02,0.03,-0.01
1777316757.945385,-1.74,-0.55,-0.65,-0.105,-0.097,8.52,-0.02,0.02,0.01
1777316757.955365,-1.8,-0.56,-0.68,-0.232,-0.36,8.863,0.0,0.0,0.02
1777316757.965388,-1.86,-0.55,-0.75,-0.196,-0.305,9.113,-0.01,-0.01,0.03
1777316757.9753628,-1.92,-0.5,-0.75,-0.341,-0.062,9.299,-0.02,-0.02,0.03
1777316757.9853911,-1.96,-0.53,-0.66,-0.406,0.186,9.41,-0.01,-0.03,0.02
1777316757.9953628,-1.98,-0.54,-0.53,-0.164,0.285,9.256,0.03,0.0,0.02
1777316758.0053692,-1.98,-0.48,-0.45,-0.02,0.287,9.233,0.05,0.0,0.01
1777316758.0153618,-1.97,-0.41,-0.4,0.085,0.399,9.36,0.02,-0.02,0.0
1777316758.025339,-1.97,-0.33,-0.34,0.174,0.546,9.469,0.01,-0.03,-0.01
1777316758.0353348,-1.95,-0.26,-0.28,0.182,0.668,9.559,0.01,-0.04,-0.01
1777316758.0453224,-1.92,-0.21,-0.2,0.177,0.787,9.626,0.01,-0.03,-0.02
1777316758.0553126,-1.9,-0.18,-0.12,0.212,0.799,9.673,0.01,-0.02,-0.02
1777316758.0653405,-1.88,-0.18,-0.05,0.268,0.754,9.709,0.02,-0.01,-0.02
1777316758.0753129,-1.87,-0.18,-0.01,0.363,0.754,9.713,0.01,0.01,-0.02
1777316758.0853093,-1.87,-0.17,0.02,0.36,0.754,9.715,0.0,0.01,-0.01
1777316758.0953655,-1.87,-0.19,0.05,0.344,0.747,9.731,-0.01,0.01,-0.01
1777316758.1053429,-1.87,-0.2,0.05,0.34,0.719,9.749,-0.02,0.01,0.0
1777316758.115317,-1.87,-0.21,0.06,0.255,0.677,9.766,-0.02,0.01,0.0
1777316758.1253734,-1.87,-0.24,0.05,0.213,0.633,9.776,-0.02,0.01,0.0
1777316758.1353457,-1.88,-0.26,0.03,0.18,0.57,9.763,-0.02,0.02,0.0
1777316758.1453536,-1.9,-0.28,0.03,0.116,0.505,9.695,-0.02,0.01,0.0
1777316758.1553273,-1.93,-0.31,0.02,0.068,0.4,9.641,-0.02,0.01,0.01
1777316758.165335,-1.96,-0.31,-0.01,0.024,0.386,9.634,-0.02,0.01,0.02
1777316758.1753032,-1.97,-0.32,-0.02,-0.042,0.34,9.676,-0.02,0.0,0.01
1777316758.1853228,-1.97,-0.32,-0.02,-0.115,0.328,9.702,-0.02,-0.01,0.0
1777316758.1952908,-1.96,-0.32,-0.01,-0.113,0.261,9.706,-0.01,-0.01,-0.01
1777316758.2053466,-1.94,-0.3,0.01,-0.072,0.217,9.705,0.0,-0.01,-0.01
1777316758.215322,-1.92,-0.28,0.0,-0.024,0.166,9.695,0.0,-0.02,-0.02
1777316758.2253296,-1.91,-0.24,0.02,0.04,0.198,9.681,0.0,-0.02,-0.02
1777316758.2344892,-1.91,-0.21,0.04,0.077,0.237,9.714,0.0,-0.02,-0.01
1777316758.2453265,-1.91,-0.17,0.08,0.135,0.297,9.739,0.0,-0.02,-0.01
1777316758.255318,-1.92,-0.14,0.12,0.188,0.316,9.757,0.01,-0.02,0.0
1777316758.265323,-1.94,-0.12,0.16,0.238,0.368,9.772,0.01,-0.01,0.0
1777316758.2744675,-1.95,-0.09,0.2,0.263,0.426,9.781,0.01,-0.01,0.0
1777316758.2853138,-1.97,-0.09,0.24,0.273,0.504,9.788,0.0,-0.01,0.01
1777316758.2944665,-1.97,-0.08,0.27,0.271,0.565,9.794,0.0,0.0,0.0
1777316758.3052948,-1.97,-0.08,0.31,0.254,0.6,9.798,0.0,0.0,0.0
1777316758.3153343,-1.97,-0.09,0.34,0.223,0.613,9.8,0.0,0.0,0.0
1777316758.325319,-1.97,-0.09,0.36,0.198,0.604,9.803,-0.01,0.01,-0.01
1777316758.335312,-1.96,-0.11,0.37,0.146,0.575,9.791,-0.01,0.01,-0.01
1777316758.3453183,-1.94,-0.12,0.38,0.102,0.538,9.778,-0.01,0.01,-0.01
1777316758.3544898,-1.94,-0.13,0.38,0.059,0.485,9.78,-0.01,0.0,-0.01
1777316758.3644698,-1.93,-0.14,0.38,0.022,0.428,9.788,-0.01,0.0,-0.01
1777316758.374472,-1.93,-0.15,0.37,0.001,0.369,9.792,-0.02,0.0,-0.01
1777316758.3853178,-1.93,-0.15,0.37,-0.013,0.323,9.787,-0.01,0.0,-0.01
1777316758.3945036,-1.94,-0.15,0.37,-0.004,0.283,9.761,-0.01,-0.01,0.0
1777316758.4044483,-1.95,-0.13,0.37,0.007,0.253,9.747,-0.01,-0.01,0.0
1777316758.4144516,-1.96,-0.12,0.37,0.018,0.25,9.755,-0.01,-0.01,0.0
1777316758.4244895,-1.97,-0.11,0.39,0.047,0.285,9.764,-0.01,-0.01,0.0
1777316758.434462,-1.97,-0.08,0.41,0.065,0.293,9.776,0.0,-0.01,0.0
1777316758.4444737,-1.97,-0.07,0.43,0.095,0.325,9.785,0.0,-0.01,0.0
1777316758.4544497,-1.96,-0.05,0.46,0.143,0.332,9.781,0.0,-0.01,-0.01
1777316758.464475,-1.95,-0.03,0.47,0.16,0.356,9.788,0.0,-0.01,-0.01
1777316758.4744513,-1.94,-0.02,0.5,0.183,0.366,9.794,0.0,-0.01,-0.01
1777316758.4844532,-1.94,-0.01,0.51,0.193,0.378,9.798,0.0,-0.01,-0.01
1777316758.4944754,-1.94,-0.0,0.54,0.195,0.395,9.8,0.0,0.0,-0.01
1777316758.5044594,-1.94,0.0,0.55,0.18,0.42,9.803,0.0,0.0,0.0
1777316758.5145152,-1.95,-0.0,0.57,0.157,0.424,9.802,0.0,0.0,0.0
1777316758.5244372,-1.96,-0.01,0.59,0.134,0.436,9.802,0.0,0.0,0.0
1777316758.53444,-1.96,-0.02,0.6,0.099,0.441,9.804,-0.01,0.0,0.0
1777316758.5444384,-1.97,-0.02,0.62,0.077,0.428,9.797,-0.01,0.0,0.0
1777316758.554434,-1.97,-0.02,0.62,0.046,0.424,9.79,-0.01,0.0,0.0
1777316758.56444,-1.96,-0.03,0.63,0.012,0.413,9.784,-0.01,0.0,-0.01
1777316758.5744221,-1.94,-0.04,0.64,-0.008,0.405,9.779,-0.01,0.0,-0.01
1777316758.5844283,-1.93,-0.04,0.64,-0.005,0.357,9.784,-0.01,-0.01,-0.02
1777316758.59444,-1.92,-0.03,0.64,-0.005,0.325,9.788,-0.01,-0.01,-0.02
1777316758.6044102,-1.91,-0.02,0.64,0.024,0.279,9.784,-0.01,-0.01,-0.01
1777316758.6144276,-1.91,-0.01,0.64,0.05,0.253,9.782,-0.01,-0.01,-0.01
1777316758.6244004,-1.92,0.0,0.64,0.074,0.24,9.788,-0.01,-0.01,0.0
1777316758.6344137,-1.94,0.02,0.65,0.102,0.24,9.794,0.0,-0.01,0.0
1777316758.6443994,-1.95,0.03,0.66,0.129,0.251,9.798,0.0,-0.01,0.01
1777316758.654444,-1.97,0.04,0.68,0.135,0.284,9.8,0.0,-0.01,0.01
1777316758.6643991,-1.98,0.05,0.69,0.153,0.328,9.803,0.0,-0.01,0.0
1777316758.6744025,-1.98,0.05,0.71,0.157,0.348,9.804,0.0,0.0,0.0
1777316758.6844227,-1.98,0.05,0.73,0.145,0.366,9.805,0.0,0.0,0.0
1777316758.694386,-1.97,0.05,0.75,0.134,0.387,9.804,0.0,0.0,-0.01
1777316758.7043827,-1.96,0.05,0.76,0.115,0.383,9.805,0.0,0.0,-0.01
1777316758.7143831,-1.94,0.04,0.78,0.087,0.408,9.808,0.0,0.0,-0.01
1777316758.724384,-1.93,0.04,0.79,0.056,0.405,9.806,0.0,0.0,-0.01
1777316758.734411,-1.92,0.03,0.8,0.032,0.401,9.808,-0.01,0.0,-0.02
1777316758.7443871,-1.91,0.03,0.81,0.026,0.356,9.803,-0.01,0.0,-0.02
1777316758.7544246,-1.9,0.03,0.81,0.029,0.311,9.8,-0.01,0.0,-0.01
1777316758.764398,-1.91,0.03,0.8,0.032,0.283,9.788,-0.01,-0.01,0.0
1777316758.7743976,-1.93,0.04,0.8,0.037,0.275,9.78,-0.01,-0.01,0.0
1777316758.7843747,-1.94,0.05,0.81,0.056,0.263,9.784,-0.01,-0.01,0.01
1777316758.7943685,-1.97,0.06,0.81,0.073,0.268,9.791,-0.01,-0.01,0.01
1777316758.8044012,-1.98,0.07,0.82,0.08,0.298,9.794,-0.01,-0.01,0.01
1777316758.8143988,-1.99,0.08,0.83,0.093,0.315,9.793,-0.01,-0.01,0.0
1777316758.8243723,-1.98,0.08,0.84,0.101,0.331,9.799,0.0,-0.01,0.0
1777316758.8343976,-1.97,0.09,0.85,0.119,0.337,9.793,0.0,-0.01,-0.01
1777316758.844405,-1.95,0.1,0.87,0.121,0.333,9.798,0.0,-0.01,-0.01
1777316758.8543873,-1.94,0.1,0.87,0.116,0.329,9.799,0.0,-0.01,-0.02
1777316758.8644063,-1.92,0.1,0.89,0.12,0.302,9.798,0.0,0.0,-0.02
1777316758.8743865,-1.92,0.1,0.89,0.11,0.285,9.797,0.0,0.0,-0.02
1777316758.8843708,-1.92,0.1,0.89,0.108,0.268,9.791,0.0,0.0,-0.01
1777316758.8944168,-1.92,0.1,0.9,0.102,0.26,9.778,0.0,0.0,0.0
1777316758.9044247,-1.94,0.1,0.9,0.079,0.273,9.784,0.0,0.0,0.0
1777316758.9143853,-1.95,0.1,0.91,0.06,0.296,9.791,-0.01,0.0,0.01
1777316758.9244168,-1.97,0.09,0.92,0.044,0.32,9.793,0.0,0.0,0.01
1777316758.9343882,-1.97,0.09,0.94,0.028,0.348,9.796,0.0,0.0,0.0
1777316758.9444003,-1.97,0.09,0.94,0.02,0.376,9.799,-0.01,-0.01,0.0
1777316758.9544032,-1.95,0.1,0.96,0.017,0.386,9.798,-0.01,-0.01,-0.01
1777316758.9643888,-1.92,0.1,0.96,0.018,0.369,9.802,-0.01,-0.01,-0.02
1777316758.9743888,-1.9,0.11,0.97,0.031,0.327,9.804,-0.01,-0.01,-0.02
1777316758.984388,-1.89,0.11,0.96,0.051,0.279,9.796,-0.01,-0.01,-0.02
1777316758.9943886,-1.89,0.12,0.96,0.072,0.244,9.788,-0.01,-0.01,-0.01
1777316759.004403,-1.9,0.13,0.96,0.09,0.226,9.787,-0.01,-0.01,0.0
1777316759.0143883,-1.92,0.13,0.96,0.098,0.219,9.793,-0.01,-0.01,0.0
1777316759.0243917,-1.95,0.14,0.96,0.107,0.229,9.798,-0.01,-0.01,0.01
1777316759.0343518,-1.97,0.14,0.97,0.111,0.254,9.802,-0.01,0.0,0.01
1777316759.0443883,-1.98,0.14,0.98,0.114,0.281,9.802,0.0,0.0,0.01
1777316759.0543892,-1.98,0.14,0.99,0.103,0.297,9.798,0.0,0.0,0.0
1777316759.0643618,-1.98,0.14,1.0,0.093,0.313,9.797,0.0,0.0,0.0
1777316759.0743914,-1.97,0.14,1.01,0.077,0.325,9.8,0.0,0.0,-0.01
1777316759.0843744,-1.95,0.14,1.02,0.067,0.331,9.803,0.0,0.0,-0.01
1777316759.0943873,-1.94,0.14,1.03,0.038,0.337,9.8,0.0,0.0,-0.02
1777316759.1043723,-1.92,0.14,1.03,0.029,0.325,9.803,0.0,0.0,-0.02
1777316759.114339,-1.9,0.14,1.04,0.017,0.298,9.804,0.0,-0.01,-0.02
1777316759.1243913,-1.9,0.14,1.04,0.03,0.267,9.802,0.0,-0.01,-0.01
1777316759.1343937,-1.9,0.14,1.04,0.031,0.236,9.793,-0.01,-0.01,-0.01
1777316759.14435,-1.92,0.15,1.04,0.022,0.207,9.774,-0.01,-0.01,0.0
1777316759.1547604,-1.93,0.16,1.04,0.0,0.172,9.772,0.0,-0.01,0.01
1777316759.1643617,-1.95,0.16,1.04,-0.005,0.162,9.773,0.0,-0.01,0.01
1777316759.1743262,-1.97,0.17,1.05,0.001,0.176,9.78,0.0,-0.01,0.01
1777316759.1843784,-1.99,0.19,1.06,0.018,0.2,9.788,0.0,-0.01,0.01
1777316759.19434,-2.0,0.2,1.07,0.046,0.235,9.787,0.0,-0.01,0.0
1777316759.2043915,-2.0,0.21,1.09,0.066,0.274,9.79,0.0,-0.01,0.0
1777316759.2143562,-1.99,0.23,1.12,0.09,0.307,9.794,0.0,-0.01,-0.01
1777316759.2243464,-1.97,0.24,1.13,0.107,0.331,9.799,0.0,-0.01,-0.01
1777316759.2343297,-1.95,0.25,1.15,0.103,0.348,9.803,0.0,-0.01,-0.02
1777316759.2443614,-1.93,0.25,1.16,0.11,0.351,9.805,0.0,-0.01,-0.02
1777316759.25433,-1.91,0.25,1.18,0.107,0.333,9.806,0.0,0.0,-0.02
1777316759.2643614,-1.9,0.24,1.18,0.116,0.323,9.808,0.0,0.0,-0.01
1777316759.2743418,-1.91,0.24,1.19,0.113,0.301,9.806,0.0,0.0,-0.01
1777316759.2843606,-1.91,0.24,1.18,0.096,0.301,9.803,-0.01,0.0,0.0
1777316759.294348,-1.93,0.23,1.18,0.075,0.292,9.793,-0.01,0.0,0.0
1777316759.3043132,-1.95,0.22,1.18,0.049,0.293,9.798,-0.01,0.0,0.01
1777316759.3143446,-1.96,0.22,1.18,0.043,0.289,9.791,-0.01,0.0,0.01
1777316759.3243315,-1.97,0.21,1.18,0.006,0.283,9.788,-0.01,0.0,0.01
1777316759.3343446,-1.98,0.2,1.17,0.012,0.296,9.768,-0.01,0.0,0.0
1777316759.3443327,-1.97,0.2,1.17,-0.016,0.289,9.779,-0.01,0.0,0.0
1777316759.3535218,-1.97,0.19,1.16,-0.022,0.249,9.78,-0.01,-0.01,-0.01
1777316759.3634949,-1.95,0.19,1.16,-0.002,0.229,9.78,-0.01,0.0,-0.01
1777316759.3743315,-1.94,0.2,1.16,0.001,0.193,9.781,-0.01,-0.01,-0.01
1777316759.3843338,-1.93,0.2,1.15,0.032,0.163,9.769,-0.01,-0.01,-0.01
1777316759.3935115,-1.93,0.22,1.15,0.037,0.159,9.769,0.0,-0.01,-0.01
1777316759.4043355,-1.94,0.22,1.15,0.049,0.16,9.78,0.0,-0.01,0.0
1777316759.4134948,-1.95,0.22,1.16,0.059,0.17,9.788,0.0,-0.01,0.0
1777316759.4243329,-1.96,0.23,1.16,0.075,0.189,9.794,0.0,-0.01,0.0
1777316759.4334948,-1.97,0.23,1.17,0.077,0.229,9.798,0.0,-0.01,0.0
1777316759.4443107,-1.97,0.23,1.19,0.08,0.261,9.791,0.0,-0.01,0.0
1777316759.45435,-1.98,0.23,1.19,0.08,0.281,9.79,0.0,0.0,0.0
1777316759.4634962,-1.98,0.23,1.2,0.063,0.314,9.796,0.0,0.0,0.0
1777316759.4743345,-1.97,0.22,1.21,0.06,0.317,9.794,0.0,0.0,-0.01
1777316759.4834957,-1.97,0.22,1.21,0.037,0.332,9.791,-0.01,0.0,-0.01
1777316759.4934947,-1.97,0.22,1.22,0.029,0.316,9.785,-0.01,0.0,-0.01
1777316759.503488,-1.96,0.22,1.22,0.018,0.317,9.77,-0.01,0.0,-0.01
1777316759.513471,-1.95,0.21,1.22,0.007,0.301,9.772,-0.01,0.0,-0.01
1777316759.5234964,-1.95,0.21,1.22,0.004,0.286,9.773,-0.01,-0.01,-0.01
1777316759.5334935,-1.95,0.21,1.21,0.018,0.245,9.772,-0.01,0.0,-0.01
1777316759.543525,-1.95,0.21,1.21,0.023,0.212,9.781,-0.01,-0.01,-0.01
1777316759.5534835,-1.95,0.22,1.2,0.041,0.207,9.767,-0.01,-0.01,0.0
1777316759.5634813,-1.95,0.22,1.2,0.051,0.188,9.767,-0.01,-0.01,0.0
1777316759.5734997,-1.95,0.22,1.2,0.053,0.204,9.773,-0.01,-0.01,0.0
1777316759.5838647,-1.95,0.22,1.2,0.056,0.2,9.782,-0.01,-0.01,0.0
1777316759.593838,-1.95,0.23,1.2,0.063,0.196,9.79,0.0,-0.01,-0.01
1777316759.603476,-1.95,0.23,1.2,0.062,0.205,9.792,0.0,-0.01,0.0
1777316759.6135063,-1.96,0.23,1.21,0.069,0.212,9.79,0.0,0.0,0.0
1777316759.6234777,-1.97,0.23,1.21,0.075,0.208,9.778,0.0,0.0,0.0
1777316759.633434,-1.97,0.23,1.21,0.066,0.226,9.784,0.0,0.0,0.0
1777316759.6434543,-1.98,0.23,1.22,0.056,0.236,9.79,0.0,0.0,0.0
1777316759.6534595,-1.99,0.23,1.22,0.049,0.259,9.785,0.0,0.0,0.0
1777316759.6634762,-1.99,0.22,1.23,0.035,0.295,9.786,0.0,0.0,0.0
1777316759.6734192,-1.99,0.22,1.24,0.019,0.322,9.791,0.0,0.0,0.0
1777316759.6834598,-1.97,0.22,1.25,0.013,0.337,9.787,0.0,0.0,-0.01
1777316759.6934896,-1.96,0.22,1.25,0.004,0.329,9.793,-0.01,-0.01,-0.01
1777316759.7034338,-1.95,0.22,1.25,0.0,0.311,9.796,-0.01,-0.01,-0.02
1777316759.7134535,-1.93,0.22,1.25,0.018,0.268,9.79,-0.01,-0.01,-0.02
1777316759.7234206,-1.93,0.22,1.24,0.025,0.237,9.793,-0.01,-0.01,-0.01
1777316759.733438,-1.93,0.23,1.23,0.042,0.2,9.791,-0.01,-0.01,-0.01
1777316759.7434645,-1.95,0.24,1.23,0.069,0.178,9.782,-0.01,-0.01,0.0
1777316759.7534213,-1.96,0.24,1.22,0.072,0.178,9.79,-0.01,-0.01,0.0
1777316759.7634237,-1.97,0.24,1.22,0.074,0.182,9.794,-0.01,-0.01,0.01
1777316759.7734356,-1.99,0.24,1.22,0.092,0.189,9.794,0.0,0.0,0.01
1777316759.7834523,-2.0,0.25,1.22,0.081,0.207,9.799,0.0,0.0,0.0
1777316759.7934232,-2.0,0.24,1.23,0.077,0.222,9.799,0.0,0.0,0.0
1777316759.8034124,-1.99,0.23,1.24,0.081,0.223,9.78,0.0,0.0,-0.01
1777316759.8134391,-1.97,0.23,1.24,0.065,0.236,9.774,0.0,0.0,-0.01
1777316759.8234076,-1.95,0.23,1.25,0.042,0.248,9.775,0.0,0.0,-0.02
1777316759.8334222,-1.94,0.22,1.26,0.02,0.251,9.785,0.0,0.0,-0.02
1777316759.8434224,-1.93,0.22,1.26,-0.001,0.25,9.792,0.0,-0.01,-0.02
1777316759.8534214,-1.93,0.22,1.26,-0.004,0.232,9.793,0.0,0.0,-0.01
1777316759.863432,-1.93,0.22,1.26,0.006,0.224,9.782,0.0,0.0,-0.01
1777316759.873408,-1.94,0.22,1.26,0.012,0.23,9.78,0.0,-0.01,0.0
1777316759.8834336,-1.95,0.22,1.26,0.026,0.244,9.785,-0.01,-0.01,0.0
1777316759.8934252,-1.97,0.23,1.26,0.043,0.263,9.791,-0.01,-0.01,0.01
1777316759.903408,-1.98,0.23,1.26,0.047,0.291,9.796,-0.01,-0.01,0.01
1777316759.9134257,-1.98,0.24,1.27,0.047,0.304,9.8,-0.01,-0.01,0.0
1777316759.923438,-1.97,0.23,1.27,0.049,0.305,9.803,-0.01,-0.01,-0.01
1777316759.9334254,-1.96,0.23,1.27,0.062,0.277,9.802,-0.01,0.0,-0.01
1777316759.9433963,-1.95,0.23,1.27,0.074,0.241,9.798,-0.01,0.0,-0.01
1777316759.9534562,-1.94,0.24,1.26,0.075,0.211,9.79,-0.01,0.0,-0.01
1777316759.9634414,-1.94,0.24,1.26,0.069,0.186,9.79,-0.01,0.0,-0.01
1777316759.9734108,-1.95,0.24,1.25,0.057,0.174,9.794,-0.01,0.0,-0.01
1777316759.9834063,-1.95,0.23,1.25,0.06,0.165,9.796,0.0,0.0,0.0
1777316759.9934392,-1.97,0.23,1.25,0.049,0.174,9.798,0.0,0.0,0.0
1777316760.0034082,-1.97,0.23,1.26,0.042,0.192,9.794,0.0,-0.01,0.0
1777316760.0134265,-1.98,0.23,1.26,0.036,0.217,9.773,0.0,-0.01,0.0
1777316760.0234094,-1.98,0.24,1.26,0.023,0.247,9.775,0.0,-0.01,0.0
1777316760.0334277,-1.97,0.23,1.27,0.023,0.262,9.781,0.0,-0.01,-0.01
1777316760.0434089,-1.97,0.24,1.28,0.029,0.256,9.79,0.0,-0.01,-0.01
1777316760.0534112,-1.96,0.24,1.28,0.035,0.25,9.796,0.0,-0.01,-0.01
1777316760.063408,-1.95,0.24,1.28,0.054,0.24,9.793,0.0,-0.01,-0.01
1777316760.0734134,-1.96,0.25,1.28,0.059,0.241,9.786,0.0,-0.01,-0.01
1777316760.0833893,-1.97,0.25,1.28,0.063,0.251,9.779,-0.01,-0.01,0.0
1777316760.0934093,-1.98,0.25,1.28,0.059,0.261,9.787,-0.01,-0.01,0.0
1777316760.1033988,-1.98,0.25,1.28,0.055,0.269,9.792,-0.01,-0.01,0.0
1777316760.1134157,-1.98,0.25,1.28,0.054,0.262,9.796,-0.01,0.0,0.0
1777316760.1233969,-1.98,0.25,1.28,0.048,0.257,9.799,-0.01,0.0,0.0
1777316760.133411,-1.98,0.25,1.28,0.06,0.231,9.79,0.0,0.0,-0.01
1777316760.1434135,-1.98,0.25,1.28,0.056,0.225,9.776,-0.01,0.0,-0.01
1777316760.1534123,-1.98,0.25,1.28,0.047,0.214,9.781,-0.01,0.0,0.0
1777316760.163413,-1.98,0.25,1.28,0.038,0.219,9.788,-0.01,0.0,-0.01
1777316760.1734157,-1.97,0.24,1.28,0.03,0.211,9.794,-0.01,-0.01,-0.01
1777316760.183392,-1.97,0.24,1.27,0.03,0.207,9.799,0.0,-0.01,-0.01
1777316760.1934144,-1.97,0.24,1.28,0.031,0.204,9.79,0.0,-0.01,-0.01
1777316760.203399,-1.97,0.24,1.28,0.049,0.207,9.762,0.0,0.0,-0.01
1777316760.2133827,-1.98,0.25,1.28,0.043,0.224,9.761,-0.01,-0.01,-0.01
1777316760.2233663,-1.98,0.25,1.28,0.05,0.228,9.764,-0.01,-0.01,-0.01
1777316760.2334175,-1.98,0.25,1.28,0.046,0.229,9.778,0.0,-0.01,0.0
1777316760.2433672,-1.98,0.25,1.28,0.044,0.235,9.786,0.0,-0.01,0.0
1777316760.2533805,-1.98,0.25,1.28,0.057,0.245,9.788,0.0,0.0,0.0
1777316760.2633963,-1.98,0.25,1.28,0.061,0.253,9.788,0.0,0.0,0.0
1777316760.2733817,-1.98,0.25,1.29,0.062,0.257,9.781,-0.01,-0.01,-0.01
1777316760.2833564,-1.98,0.25,1.29,0.055,0.244,9.79,-0.01,0.0,-0.01
1777316760.2934194,-1.97,0.25,1.29,0.044,0.235,9.796,-0.01,-0.01,-0.01
1777316760.3033807,-1.98,0.25,1.28,0.044,0.231,9.799,-0.01,0.0,-0.01
1777316760.3133512,-1.98,0.25,1.28,0.04,0.219,9.788,-0.01,0.0,0.0
1777316760.3233666,-1.98,0.24,1.28,0.041,0.214,9.766,0.0,0.0,0.0
1777316760.3333657,-1.98,0.25,1.28,0.043,0.214,9.764,0.0,0.0,0.0
1777316760.3433516,-1.98,0.25,1.28,0.023,0.236,9.776,-0.01,-0.01,0.0
1777316760.3534174,-1.98,0.25,1.28,0.018,0.241,9.786,-0.01,-0.01,-0.01
1777316760.363363,-1.97,0.24,1.29,0.026,0.235,9.791,0.0,0.0,-0.01
1777316760.3725157,-1.97,0.25,1.29,0.04,0.216,9.786,0.0,0.0,-0.01
1777316760.383367,-1.97,0.25,1.28,0.04,0.22,9.767,0.0,-0.01,-0.01
1777316760.3933666,-1.97,0.25,1.28,0.053,0.213,9.761,-0.01,-0.01,-0.01
1777316760.4033513,-1.97,0.25,1.28,0.054,0.225,9.774,-0.01,-0.01,0.0
1777316760.4133837,-1.98,0.25,1.28,0.055,0.223,9.784,0.0,-0.01,0.0
1777316760.4225423,-1.98,0.25,1.29,0.061,0.236,9.788,0.0,0.0,0.0
1777316760.4333663,-1.97,0.25,1.29,0.048,0.236,9.79,0.0,-0.01,-0.01
1777316760.4425397,-1.97,0.25,1.29,0.059,0.235,9.786,0.0,0.0,-0.01
1777316760.4533517,-1.97,0.25,1.29,0.057,0.223,9.793,0.0,0.0,-0.01
1777316760.4625106,-1.97,0.25,1.29,0.055,0.223,9.794,-0.01,0.0,0.0
1777316760.4733348,-1.98,0.25,1.29,0.042,0.211,9.799,-0.01,0.0,0.0
1777316760.483351,-1.98,0.25,1.29,0.038,0.223,9.8,0.0,0.0,0.0
1777316760.4933527,-1.99,0.25,1.3,0.037,0.229,9.792,0.0,0.0,0.0
1777316760.5025158,-2.0,0.25,1.3,0.029,0.251,9.786,0.0,0.0,0.0
1777316760.5133514,-1.99,0.25,1.3,0.028,0.267,9.786,-0.01,-0.01,0.0
1777316760.522544,-1.98,0.25,1.3,0.017,0.28,9.792,-0.01,-0.01,-0.01
1777316760.5325117,-1.97,0.25,1.3,0.013,0.268,9.797,-0.01,-0.01,-0.01
1777316760.542513,-1.96,0.25,1.3,0.02,0.244,9.8,-0.01,-0.01,-0.01
1777316760.5533533,-1.95,0.25,1.3,0.037,0.217,9.796,-0.01,-0.01,-0.01
1777316760.5633786,-1.96,0.25,1.3,0.054,0.195,9.782,-0.01,-0.01,-0.01
1777316760.572535,-1.97,0.25,1.29,0.065,0.186,9.782,-0.01,-0.01,0.0
1777316760.5825353,-1.98,0.26,1.28,0.065,0.18,9.79,-0.01,-0.01,0.0
1777316760.5924962,-2.0,0.26,1.28,0.067,0.196,9.796,-0.01,-0.01,0.0
1777316760.6025095,-2.0,0.25,1.29,0.065,0.216,9.797,0.0,0.0,0.0
1777316760.6125245,-2.0,0.25,1.3,0.053,0.245,9.794,0.0,0.0,0.0
1777316760.6224837,-2.0,0.25,1.3,0.044,0.253,9.78,0.0,0.0,0.0
1777316760.6324959,-1.99,0.25,1.3,0.03,0.259,9.786,0.0,0.0,-0.01
1777316760.6424994,-1.98,0.25,1.3,0.018,0.251,9.793,-0.01,-0.01,-0.01
1777316760.6524951,-1.97,0.25,1.3,0.013,0.242,9.792,0.0,0.0,-0.01
1777316760.6624975,-1.96,0.25,1.3,0.012,0.238,9.796,-0.01,-0.01,-0.01
1777316760.6725025,-1.96,0.25,1.3,0.016,0.24,9.786,0.0,-0.01,-0.01
1777316760.6825027,-1.96,0.25,1.3,0.016,0.234,9.78,0.0,-0.01,-0.01
1777316760.6924963,-1.97,0.25,1.3,0.024,0.224,9.786,-0.01,-0.01,0.0
1777316760.7024891,-1.98,0.25,1.3,0.038,0.222,9.788,-0.01,-0.01,0.0
1777316760.712496,-1.98,0.25,1.3,0.054,0.217,9.794,-0.01,-0.01,0.0
1777316760.7225072,-1.99,0.26,1.3,0.062,0.222,9.799,-0.01,-0.01,0.0
1777316760.7324991,-2.0,0.26,1.3,0.074,0.228,9.798,0.0,0.0,0.0
1777316760.7424405,-2.0,0.26,1.3,0.078,0.234,9.799,0.0,0.0,0.0
1777316760.7524745,-2.0,0.26,1.3,0.072,0.251,9.797,-0.01,0.0,0.0
1777316760.7624805,-1.98,0.26,1.3,0.048,0.265,9.8,-0.01,0.0,-0.01
1777316760.7724686,-1.98,0.25,1.31,0.046,0.251,9.791,0.0,0.0,-0.01
1777316760.7824829,-1.96,0.25,1.31,0.025,0.231,9.793,0.0,0.0,-0.02
1777316760.7924392,-1.95,0.25,1.3,0.026,0.21,9.791,0.0,0.0,-0.01
1777316760.8024678,-1.95,0.25,1.3,0.022,0.183,9.774,0.0,0.0,-0.01
1777316760.8124387,-1.95,0.25,1.3,0.029,0.171,9.776,0.0,-0.01,0.0
1777316760.822465,-1.97,0.25,1.3,0.034,0.165,9.78,0.0,-0.01,0.0
1777316760.8324425,-1.99,0.26,1.3,0.04,0.18,9.786,0.0,-0.01,0.01
1777316760.8424704,-2.0,0.26,1.3,0.05,0.201,9.793,0.0,-0.01,0.01
1777316760.8524432,-2.02,0.26,1.3,0.056,0.228,9.797,0.0,-0.01,0.01
1777316760.862457,-2.02,0.26,1.31,0.068,0.25,9.788,0.0,0.0,0.0
1777316760.8724546,-2.02,0.26,1.32,0.073,0.269,9.782,0.0,0.0,0.0
1777316760.8824437,-2.0,0.26,1.32,0.062,0.271,9.787,0.0,0.0,-0.01
1777316760.8924968,-1.99,0.26,1.32,0.037,0.278,9.794,-0.01,0.0,-0.02
1777316760.9024758,-1.98,0.26,1.32,0.03,0.26,9.798,-0.01,-0.01,-0.02
1777316760.9124317,-1.96,0.25,1.32,0.029,0.229,9.798,0.0,0.0,-0.02
1777316760.9224737,-1.96,0.25,1.32,0.037,0.199,9.785,0.0,0.0,-0.01
1777316760.9324307,-1.97,0.25,1.31,0.035,0.189,9.778,-0.01,0.0,0.0
1777316760.9424736,-1.98,0.25,1.3,0.035,0.188,9.775,-0.01,-0.01,0.0
1777316760.952445,-2.0,0.26,1.3,0.035,0.193,9.782,-0.01,-0.01,0.01
1777316760.9624455,-2.01,0.26,1.3,0.028,0.214,9.79,-0.01,-0.01,0.01
1777316760.972458,-2.02,0.26,1.3,0.041,0.231,9.796,0.0,-0.01,0.0
1777316760.9824317,-2.02,0.25,1.31,0.037,0.247,9.797,0.0,0.0,0.0
1777316760.9924467,-2.01,0.25,1.31,0.051,0.245,9.779,0.0,0.0,-0.01
1777316761.0024455,-2.0,0.26,1.32,0.041,0.253,9.786,-0.01,0.0,-0.01
1777316761.0124316,-1.98,0.25,1.32,0.043,0.241,9.792,-0.01,-0.01,-0.01
1777316761.022448,-1.98,0.25,1.32,0.04,0.226,9.797,0.0,0.0,-0.02
1777316761.0324156,-1.96,0.25,1.32,0.044,0.195,9.802,0.0,0.0,-0.01
1777316761.042448,-1.96,0.25,1.31,0.038,0.201,9.791,0.0,0.0,-0.01
1777316761.0524642,-1.96,0.25,1.31,0.046,0.198,9.78,0.0,0.0,-0.01
1777316761.0624328,-1.97,0.25,1.32,0.034,0.211,9.787,0.0,-0.01,0.0
1777316761.0724487,-1.98,0.25,1.32,0.036,0.204,9.79,0.0,-0.01,0.0
1777316761.0824323,-1.99,0.25,1.32,0.024,0.224,9.796,0.0,-0.01,0.0
1777316761.0924592,-2.0,0.25,1.32,0.028,0.24,9.794,-0.01,-0.01,0.0
1777316761.1024394,-2.0,0.25,1.32,0.038,0.257,9.781,0.0,0.0,0.0
1777316761.1124277,-2.0,0.25,1.32,0.051,0.261,9.775,0.0,0.0,0.0
1777316761.122438,-2.0,0.26,1.32,0.051,0.272,9.781,-0.01,-0.01,0.0
1777316761.1324654,-1.99,0.26,1.32,0.043,0.271,9.79,-0.01,-0.01,-0.01
1777316761.1424701,-1.98,0.26,1.32,0.04,0.256,9.796,-0.01,-0.01,-0.01
1777316761.1524444,-1.97,0.26,1.32,0.04,0.223,9.799,-0.01,0.0,-0.01
1777316761.1624212,-1.97,0.26,1.32,0.046,0.199,9.784,0.0,0.0,-0.01
1777316761.1724265,-1.97,0.26,1.31,0.05,0.187,9.774,-0.01,0.0,-0.01
1777316761.1824353,-1.98,0.26,1.31,0.048,0.186,9.776,-0.01,-0.01,0.0
1777316761.1924112,-1.99,0.26,1.3,0.044,0.19,9.786,-0.01,-0.01,0.0
1777316761.2024417,-2.0,0.26,1.31,0.035,0.211,9.792,-0.01,-0.01,0.0
1777316761.212431,-2.0,0.26,1.31,0.034,0.217,9.798,0.0,0.0,0.0
1777316761.2224035,-2.0,0.25,1.32,0.032,0.223,9.799,0.0,0.0,0.0
1777316761.2324011,-2.0,0.25,1.32,0.044,0.22,9.784,0.0,0.0,0.0
1777316761.242444,-2.0,0.26,1.32,0.042,0.23,9.775,0.0,0.0,0.0
1777316761.2524045,-2.0,0.26,1.32,0.043,0.236,9.781,0.0,-0.01,-0.01
1777316761.2624047,-2.0,0.26,1.32,0.029,0.242,9.79,-0.01,-0.01,-0.01
1777316761.272433,-1.99,0.26,1.32,0.023,0.248,9.796,-0.01,-0.01,-0.01
1777316761.2824163,-1.99,0.25,1.32,0.032,0.236,9.799,0.0,0.0,-0.01
1777316761.292438,-1.99,0.25,1.32,0.036,0.234,9.802,0.0,0.0,-0.01
1777316761.3024058,-1.99,0.26,1.32,0.048,0.232,9.787,-0.01,0.0,0.0
1777316761.3123891,-1.99,0.26,1.32,0.049,0.236,9.793,-0.01,-0.01,0.0
1777316761.3224404,-1.99,0.26,1.32,0.038,0.245,9.798,-0.01,-0.01,0.0
1777316761.332437,-1.99,0.26,1.32,0.042,0.234,9.802,-0.01,-0.01,-0.01
1777316761.3423893,-1.99,0.26,1.32,0.042,0.214,9.804,-0.01,0.0,-0.01
1777316761.35247,-1.99,0.26,1.31,0.05,0.196,9.8,-0.01,0.0,-0.01
1777316761.3624098,-2.0,0.26,1.3,0.056,0.188,9.787,-0.01,0.0,0.0
1777316761.3724022,-2.0,0.26,1.3,0.063,0.18,9.793,-0.01,0.0,0.0
1777316761.3824174,-2.01,0.27,1.3,0.062,0.182,9.798,-0.01,0.0,0.0
1777316761.392406,-2.01,0.27,1.3,0.05,0.193,9.802,0.0,-0.01,0.0
1777316761.4023962,-2.02,0.26,1.3,0.04,0.212,9.804,0.0,0.0,0.0
1777316761.4124103,-2.01,0.26,1.31,0.03,0.23,9.802,0.0,0.0,0.0
1777316761.4223778,-2.0,0.26,1.31,0.03,0.232,9.803,0.0,0.0,-0.01
1777316761.4324188,-2.0,0.26,1.31,0.03,0.22,9.803,0.0,0.0,-0.01
1777316761.44239,-1.99,0.26,1.31,0.031,0.213,9.804,0.0,-0.01,-0.01
1777316761.4515712,-2.0,0.26,1.31,0.028,0.214,9.806,-0.01,-0.01,-0.01
1777316761.4623966,-2.0,0.26,1.31,0.035,0.216,9.802,-0.01,-0.01,0.0
1777316761.4716341,-2.0,0.27,1.31,0.03,0.241,9.804,0.0,-0.01,0.0
1777316761.4824119,-2.0,0.27,1.31,0.041,0.236,9.805,-0.01,-0.01,0.0
1777316761.4915376,-2.01,0.27,1.31,0.053,0.235,9.806,0.0,-0.01,0.0
1777316761.5023987,-2.01,0.27,1.31,0.056,0.237,9.808,-0.01,-0.01,0.0
1777316761.511558,-2.01,0.27,1.32,0.054,0.247,9.806,-0.01,0.0,0.0
1777316761.5381668,-2.01,0.27,1.31,0.046,0.247,9.808,-0.01,0.0,-0.01
1777316761.5396378,-2.0,0.26,1.32,0.04,0.24,9.808,-0.01,0.0,-0.01
1777316761.54485,-2.0,0.26,1.31,0.037,0.222,9.809,-0.01,0.0,-0.01
1777316761.5532885,-2.0,0.26,1.31,0.031,0.204,9.808,-0.01,0.0,-0.01
1777316761.5619473,-2.0,0.25,1.31,0.03,0.198,9.806,0.0,0.0,-0.01
1777316761.5729039,-2.0,0.25,1.31,0.029,0.199,9.796,0.0,0.0,0.0
1777316761.583724,-2.01,0.25,1.3,0.028,0.21,9.787,0.0,-0.01,0.0
1777316761.5921636,-2.01,0.26,1.31,0.022,0.224,9.792,-0.01,-0.01,0.0
1777316761.602531,-2.0,0.25,1.31,0.023,0.222,9.797,-0.01,-0.01,-0.01
1777316761.6120415,-2.0,0.26,1.31,0.022,0.231,9.799,0.0,-0.01,-0.01
1777316761.6216602,-2.0,0.26,1.31,0.036,0.234,9.799,0.0,-0.01,-0.01
1777316761.6337957,-2.0,0.26,1.31,0.036,0.244,9.798,0.0,-0.01,-0.01
1777316761.6415277,-2.0,0.26,1.31,0.05,0.223,9.796,0.0,-0.01,-0.01
1777316761.651549,-2.0,0.26,1.31,0.051,0.228,9.8,-0.01,-0.01,-0.01
1777316761.6615207,-2.0,0.27,1.31,0.051,0.217,9.803,-0.01,-0.01,-0.01
1777316761.6724236,-2.0,0.26,1.31,0.047,0.208,9.805,-0.01,0.0,0.0
1777316761.6815286,-2.0,0.26,1.31,0.047,0.208,9.802,0.0,0.0,0.0
1777316761.6915379,-2.01,0.26,1.31,0.053,0.211,9.787,0.0,0.0,0.0
1777316761.7014706,-2.02,0.26,1.31,0.042,0.23,9.791,0.0,0.0,0.0
1777316761.7115045,-2.02,0.25,1.31,0.034,0.23,9.797,-0.01,-0.01,0.0
1777316761.7217183,-2.01,0.25,1.31,0.025,0.237,9.8,-0.01,0.0,-0.01
1777316761.7314754,-2.01,0.25,1.31,0.03,0.232,9.802,-0.01,-0.01,-0.01
1777316761.741698,-2.0,0.25,1.31,0.032,0.242,9.79,0.0,0.0,-0.01
1777316761.751525,-2.0,0.25,1.32,0.03,0.234,9.78,-0.01,-0.01,-0.01
1777316761.7618814,-2.0,0.25,1.31,0.038,0.217,9.784,0.0,-0.01,-0.01
1777316761.7715304,-2.0,0.26,1.31,0.041,0.212,9.791,-0.01,-0.01,-0.01
1777316761.7823155,-2.0,0.26,1.31,0.043,0.222,9.797,-0.01,-0.01,0.0
1777316761.791541,-2.0,0.26,1.31,0.048,0.214,9.8,-0.01,-0.01,0.0
1777316761.8017461,-2.0,0.26,1.31,0.057,0.212,9.794,-0.01,0.0,0.0
1777316761.8114643,-2.0,0.26,1.31,0.062,0.212,9.799,0.0,0.0,0.0
1777316761.8257916,-2.0,0.26,1.31,0.068,0.217,9.797,0.0,0.0,0.0
1777316761.8314955,-2.0,0.27,1.31,0.054,0.223,9.791,-0.01,0.0,-0.01
1777316761.8423088,-2.0,0.26,1.31,0.044,0.232,9.796,-0.01,-0.01,-0.01
1777316761.8514433,-2.0,0.25,1.31,0.037,0.226,9.798,0.0,0.0,-0.01
1777316761.8618386,-2.0,0.25,1.31,0.036,0.223,9.797,0.0,0.0,-0.01
1777316761.8724823,-2.0,0.25,1.31,0.034,0.224,9.788,-0.01,0.0,-0.01
1777316761.8816843,-2.0,0.25,1.31,0.026,0.236,9.786,-0.01,0.0,0.0
1777316761.8916621,-2.01,0.25,1.31,0.026,0.236,9.792,-0.01,-0.01,0.0
1777316761.901494,-2.01,0.25,1.31,0.022,0.243,9.796,0.0,-0.01,0.0
1777316761.912081,-2.0,0.25,1.31,0.016,0.247,9.799,-0.01,-0.01,0.0
1777316761.9215431,-2.0,0.25,1.32,0.029,0.228,9.803,-0.01,-0.01,-0.01
1777316761.931502,-2.0,0.25,1.31,0.042,0.218,9.802,0.0,-0.01,-0.01
1777316761.9420652,-2.0,0.25,1.31,0.054,0.21,9.799,0.0,-0.01,-0.01
1777316761.9515162,-2.0,0.26,1.31,0.055,0.199,9.802,-0.01,-0.01,0.0
1777316761.9615932,-2.01,0.26,1.31,0.057,0.211,9.8,-0.01,-0.01,0.0
1777316761.9715014,-2.01,0.26,1.31,0.059,0.219,9.79,0.0,0.0,0.0
1777316761.98173,-2.01,0.26,1.31,0.047,0.231,9.796,0.0,-0.01,0.0
1777316761.992511,-2.01,0.25,1.31,0.031,0.248,9.799,-0.01,0.0,-0.01
1777316762.001552,-2.0,0.25,1.32,0.031,0.237,9.803,-0.01,0.0,-0.01
1777316762.0114706,-2.0,0.25,1.32,0.028,0.226,9.805,0.0,0.0,-0.01
1777316762.0215242,-2.0,0.25,1.31,0.037,0.213,9.802,0.0,0.0,-0.01
1777316762.031474,-2.0,0.25,1.31,0.035,0.216,9.796,-0.01,0.0,0.0
1777316762.0414655,-2.01,0.25,1.31,0.043,0.217,9.79,-0.01,-0.01,0.0
1777316762.0514731,-2.02,0.25,1.31,0.046,0.223,9.796,0.0,-0.01,0.0
1777316762.0614824,-2.02,0.26,1.31,0.051,0.23,9.8,0.0,-0.01,0.0
1777316762.0735471,-2.02,0.26,1.32,0.044,0.25,9.803,-0.01,-0.01,0.0
1777316762.081512,-2.02,0.26,1.32,0.053,0.255,9.8,-0.01,0.0,-0.01
1777316762.0914931,-2.01,0.25,1.32,0.048,0.256,9.794,0.0,-0.01,-0.01
1777316762.10149,-2.0,0.26,1.32,0.055,0.242,9.794,0.0,0.0,-0.01
1777316762.1115823,-2.0,0.26,1.32,0.041,0.235,9.799,-0.01,-0.01,-0.01
1777316762.1216202,-1.99,0.26,1.32,0.037,0.216,9.8,-0.01,-0.01,-0.01
1777316762.1316493,-1.99,0.26,1.31,0.037,0.195,9.797,0.0,-0.01,-0.01
1777316762.1421318,-2.0,0.26,1.31,0.044,0.176,9.794,0.0,0.0,0.0
1777316762.1514652,-2.01,0.26,1.3,0.048,0.175,9.782,-0.01,0.0,0.0
1777316762.161524,-2.02,0.26,1.3,0.043,0.198,9.786,-0.01,0.0,0.0
1777316762.171505,-2.03,0.26,1.3,0.056,0.21,9.791,0.0,0.0,0.0
1777316762.1815293,-2.03,0.26,1.31,0.043,0.24,9.794,0.0,0.0,0.0
1777316762.1933506,-2.03,0.25,1.32,0.041,0.253,9.798,-0.01,-0.01,0.0
1777316762.2014782,-2.02,0.26,1.32,0.037,0.26,9.802,0.0,0.0,-0.01
1777316762.2118437,-2.01,0.25,1.32,0.035,0.257,9.802,0.0,-0.01,-0.01
1777316762.2215185,-2.0,0.25,1.32,0.034,0.249,9.792,0.0,0.0,-0.01
1777316762.2316208,-1.99,0.25,1.32,0.035,0.234,9.797,-0.01,-0.01,-0.01
1777316762.2415357,-1.99,0.25,1.32,0.038,0.213,9.798,-0.01,-0.01,-0.01
1777316762.2515254,-2.0,0.26,1.31,0.044,0.206,9.796,-0.01,-0.01,0.0
1777316762.2615433,-2.0,0.26,1.31,0.042,0.211,9.792,-0.01,-0.01,0.0
1777316762.2715154,-2.02,0.26,1.31,0.053,0.222,9.791,0.0,0.0,0.0
1777316762.2814674,-2.02,0.26,1.32,0.06,0.228,9.797,-0.01,-0.01,0.0
1777316762.291655,-2.02,0.26,1.32,0.057,0.241,9.8,-0.01,-0.01,0.0
1777316762.3014474,-2.02,0.26,1.32,0.055,0.249,9.798,-0.01,0.0,0.0
1777316762.3114264,-2.02,0.26,1.32,0.049,0.256,9.797,0.0,0.0,-0.01
1777316762.3216097,-2.01,0.25,1.32,0.042,0.25,9.798,0.0,0.0,-0.01
1777316762.3315935,-2.0,0.25,1.32,0.026,0.247,9.802,-0.01,0.0,-0.01
1777316762.341426,-2.0,0.25,1.32,0.02,0.223,9.804,-0.01,-0.01,-0.01
1777316762.3514645,-2.0,0.25,1.32,0.025,0.202,9.806,-0.01,-0.01,-0.01
1777316762.3614442,-2.0,0.25,1.31,0.031,0.193,9.794,-0.01,0.0,0.0
1777316762.3715873,-2.01,0.25,1.31,0.036,0.201,9.797,0.0,-0.01,0.0
1777316762.381452,-2.02,0.25,1.31,0.05,0.21,9.796,0.0,-0.01,0.0
1777316762.3916404,-2.02,0.26,1.31,0.043,0.224,9.797,0.0,-0.01,0.0
1777316762.4112396,-2.02,0.26,1.32,0.032,0.25,9.8,-0.01,-0.01,0.0
1777316762.4143076,-2.02,0.26,1.32,0.04,0.247,9.804,-0.01,-0.01,-0.01
1777316762.421436,-2.01,0.26,1.32,0.046,0.234,9.805,0.0,0.0,-0.01
1777316762.4313922,-2.0,0.26,1.32,0.056,0.22,9.796,0.0,0.0,-0.01
1777316762.4413998,-2.0,0.26,1.32,0.061,0.205,9.788,0.0,0.0,-0.01
1777316762.4514039,-2.01,0.26,1.31,0.056,0.205,9.788,-0.01,0.0,0.0
1777316762.4613836,-2.02,0.26,1.31,0.057,0.199,9.794,-0.01,0.0,0.0
1777316762.4714007,-2.02,0.26,1.31,0.04,0.217,9.799,-0.01,-0.01,0.0
1777316762.481406,-2.02,0.25,1.31,0.032,0.224,9.803,-0.01,-0.01,0.0
1777316762.491406,-2.02,0.25,1.32,0.029,0.225,9.805,0.0,0.0,0.0
1777316762.501426,-2.02,0.25,1.32,0.035,0.223,9.794,0.0,0.0,0.0
1777316762.5113866,-2.02,0.25,1.32,0.037,0.225,9.787,0.0,0.0,-0.01
1777316762.5213795,-2.02,0.25,1.32,0.035,0.242,9.791,-0.01,-0.01,-0.01
1777316762.5305355,-2.01,0.25,1.32,0.038,0.24,9.792,-0.01,-0.01,-0.01
1777316762.5414019,-2.0,0.25,1.32,0.031,0.237,9.797,-0.01,-0.01,-0.01
1777316762.551382,-1.99,0.25,1.32,0.04,0.22,9.8,-0.01,-0.01,-0.01
1777316762.5614135,-1.99,0.25,1.32,0.047,0.207,9.79,0.0,0.0,-0.01
1777316762.5713687,-2.0,0.26,1.31,0.05,0.192,9.776,0.0,0.0,-0.01
1777316762.5814068,-2.0,0.26,1.31,0.059,0.182,9.773,-0.01,-0.01,0.0
1777316762.5905325,-2.02,0.26,1.3,0.055,0.192,9.782,0.0,-0.01,0.0
1777316762.6013615,-2.02,0.26,1.31,0.056,0.202,9.79,0.0,-0.01,0.0
1777316762.6115334,-2.04,0.26,1.31,0.047,0.21,9.796,0.0,0.0,0.0
1777316762.6205654,-2.04,0.25,1.31,0.043,0.226,9.791,0.0,0.0,0.0
1777316762.6314003,-2.04,0.25,1.32,0.032,0.236,9.779,0.0,0.0,0.0
1777316762.6414075,-2.04,0.25,1.32,0.026,0.255,9.78,0.0,0.0,-0.01
1777316762.6513908,-2.02,0.25,1.32,0.022,0.266,9.782,-0.01,-0.01,-0.01
1777316762.6605408,-2.01,0.25,1.32,0.012,0.262,9.79,-0.01,-0.01,-0.01
1777316762.6705155,-2.0,0.25,1.32,0.022,0.237,9.792,-0.01,-0.01,-0.01
1777316762.6813874,-2.0,0.25,1.32,0.03,0.216,9.791,0.0,0.0,-0.01
1777316762.6905124,-2.0,0.25,1.32,0.04,0.199,9.786,-0.01,-0.01,-0.01
1777316762.7005541,-2.01,0.25,1.31,0.043,0.198,9.785,-0.01,-0.01,0.0
1777316762.7105467,-2.02,0.26,1.31,0.05,0.201,9.79,-0.01,-0.01,0.0
1777316762.7205431,-2.03,0.26,1.31,0.056,0.211,9.796,-0.01,-0.01,0.0
1777316762.7314043,-2.03,0.26,1.31,0.054,0.229,9.799,-0.01,-0.01,0.0
1777316762.7405472,-2.03,0.26,1.31,0.047,0.251,9.797,-0.01,-0.01,0.0
1777316762.7513838,-2.02,0.26,1.32,0.055,0.238,9.796,0.0,0.0,-0.01
1777316762.76053,-2.02,0.26,1.32,0.051,0.244,9.796,0.0,0.0,-0.01
1777316762.7705054,-2.01,0.26,1.32,0.061,0.223,9.796,0.0,0.0,-0.01
1777316762.7805269,-2.01,0.26,1.31,0.04,0.218,9.8,-0.01,-0.01,-0.01
1777316762.7905288,-2.01,0.26,1.31,0.038,0.205,9.793,-0.01,-0.01,-0.01
1777316762.8005269,-2.01,0.25,1.31,0.032,0.196,9.791,0.0,0.0,0.0
1777316762.810535,-2.02,0.25,1.31,0.032,0.206,9.786,0.0,0.0,0.0
1777316762.820532,-2.02,0.25,1.31,0.038,0.223,9.784,0.0,0.0,0.0
1777316762.8305247,-2.02,0.25,1.32,0.038,0.249,9.786,0.0,-0.01,0.0
1777316762.8405147,-2.02,0.26,1.32,0.037,0.251,9.79,0.0,0.0,-0.01
1777316762.8505433,-2.01,0.25,1.32,0.04,0.248,9.796,0.0,-0.01,-0.01
1777316762.8605018,-2.0,0.25,1.32,0.043,0.234,9.798,0.0,0.0,-0.01
1777316762.8704798,-2.0,0.25,1.32,0.049,0.22,9.786,0.0,-0.01,-0.01
1777316762.8805032,-1.99,0.26,1.32,0.051,0.212,9.784,-0.01,0.0,-0.01
1777316762.8905199,-2.0,0.26,1.32,0.051,0.207,9.787,-0.01,-0.01,-0.01
1777316762.90048,-2.0,0.26,1.31,0.048,0.207,9.793,-0.01,0.0,0.0
1777316762.9105146,-2.01,0.26,1.31,0.05,0.213,9.798,0.0,-0.01,0.0
1777316762.920505,-2.02,0.26,1.32,0.044,0.226,9.799,0.0,0.0,0.0
1777316762.9304788,-2.02,0.26,1.32,0.041,0.245,9.787,0.0,0.0,0.0
1777316762.940505,-2.02,0.26,1.32,0.034,0.26,9.788,0.0,-0.01,0.0
1777316762.9504929,-2.02,0.25,1.32,0.028,0.261,9.794,-0.01,-0.01,-0.01
1777316762.960505,-2.01,0.25,1.32,0.028,0.251,9.799,-0.01,0.0,-0.01
1777316762.9704702,-2.0,0.25,1.32,0.034,0.228,9.797,-0.01,0.0,-0.01
1777316762.9804947,-2.0,0.25,1.32,0.04,0.208,9.792,0.0,0.0,-0.01
1777316762.9904706,-2.0,0.25,1.32,0.047,0.204,9.787,-0.01,-0.01,0.0
1777316763.000475,-2.01,0.26,1.32,0.053,0.208,9.781,0.0,0.0,0.0
1777316763.0104542,-2.02,0.26,1.32,0.048,0.222,9.787,-0.01,-0.01,0.0
1777316763.0204585,-2.02,0.26,1.32,0.042,0.24,9.794,-0.01,-0.01,0.0
1777316763.0304923,-2.02,0.26,1.32,0.041,0.243,9.798,-0.01,-0.01,0.0
1777316763.040445,-2.02,0.26,1.32,0.05,0.232,9.802,0.0,0.0,-0.01
1777316763.0504835,-2.01,0.26,1.32,0.06,0.214,9.793,0.0,0.0,-0.01
1777316763.0604398,-2.01,0.26,1.32,0.062,0.211,9.793,-0.01,0.0,-0.01
1777316763.0704355,-2.02,0.26,1.32,0.053,0.218,9.786,-0.01,-0.01,0.0
1777316763.0804303,-2.02,0.26,1.32,0.053,0.208,9.79,0.0,-0.01,0.0
1777316763.0904865,-2.02,0.26,1.32,0.042,0.225,9.794,0.0,-0.01,0.0
1777316763.1004753,-2.02,0.26,1.32,0.042,0.241,9.793,-0.01,-0.01,0.0
1777316763.11047,-2.02,0.26,1.32,0.041,0.249,9.79,0.0,0.0,0.0
1777316763.120498,-2.02,0.26,1.32,0.043,0.253,9.793,0.0,0.0,-0.01
1777316763.1304834,-2.01,0.26,1.32,0.031,0.251,9.794,-0.01,-0.01,-0.01
1777316763.1404831,-2.0,0.26,1.32,0.035,0.236,9.799,-0.01,-0.01,-0.01
1777316763.1504588,-2.0,0.26,1.32,0.035,0.216,9.803,0.0,-0.01,-0.01
1777316763.160482,-2.0,0.26,1.32,0.034,0.202,9.798,0.0,0.0,-0.01
1777316763.1704488,-2.02,0.26,1.32,0.04,0.199,9.782,-0.01,0.0,0.0
1777316763.1804583,-2.02,0.26,1.32,0.055,0.204,9.778,0.0,0.0,0.0
1777316763.1904716,-2.04,0.26,1.32,0.053,0.216,9.78,0.0,0.0,0.0
1777316763.2004452,-2.04,0.27,1.32,0.051,0.232,9.788,0.0,-0.01,0.0
1777316763.2104576,-2.04,0.27,1.32,0.044,0.248,9.794,0.0,-0.01,0.0
1777316763.220448,-2.03,0.26,1.33,0.042,0.256,9.794,-0.01,0.0,-0.01
1777316763.2304635,-2.02,0.26,1.33,0.036,0.261,9.794,0.0,0.0,-0.01
1777316763.240447,-2.01,0.26,1.33,0.032,0.253,9.784,0.0,0.0,-0.01
1777316763.250452,-2.0,0.26,1.33,0.023,0.247,9.79,-0.01,-0.01,-0.01
1777316763.2604578,-1.99,0.26,1.32,0.024,0.22,9.796,-0.01,-0.01,-0.01
1777316763.270463,-1.99,0.26,1.32,0.03,0.198,9.799,0.0,-0.01,-0.01
1777316763.2804723,-2.0,0.26,1.32,0.041,0.184,9.803,0.0,-0.01,0.0
1777316763.290459,-2.01,0.26,1.32,0.046,0.198,9.797,-0.01,-0.01,0.0
1777316763.3004625,-2.02,0.26,1.32,0.056,0.205,9.787,0.0,0.0,0.0
1777316763.310438,-2.02,0.27,1.32,0.054,0.225,9.793,0.0,-0.01,0.0
1777316763.3204584,-2.02,0.27,1.32,0.049,0.237,9.798,-0.01,-0.01,0.0
1777316763.33046,-2.02,0.27,1.32,0.049,0.242,9.802,-0.01,-0.01,-0.01
1777316763.3404443,-2.01,0.26,1.32,0.048,0.226,9.804,0.0,0.0,-0.01
1777316763.3504202,-2.0,0.26,1.32,0.054,0.208,9.796,0.0,0.0,-0.01
1777316763.3604589,-2.0,0.26,1.32,0.05,0.199,9.788,0.0,0.0,-0.01
1777316763.3704064,-2.01,0.26,1.32,0.05,0.193,9.78,0.0,0.0,0.0
1777316763.3804457,-2.02,0.26,1.32,0.049,0.193,9.787,0.0,0.0,0.0
1777316763.3904645,-2.03,0.26,1.32,0.038,0.21,9.793,0.0,-0.01,0.0
1777316763.4004745,-2.05,0.26,1.32,0.036,0.235,9.792,0.0,0.0,0.0
1777316763.4104655,-2.05,0.26,1.32,0.031,0.265,9.785,0.0,0.0,0.0
1777316763.4204218,-2.04,0.26,1.33,0.024,0.278,9.782,-0.01,-0.01,0.0
1777316763.4304755,-2.03,0.26,1.33,0.024,0.278,9.788,-0.01,-0.01,-0.01
1777316763.4404626,-2.02,0.26,1.33,0.026,0.26,9.794,-0.01,-0.01,-0.01
1777316763.450449,-2.01,0.26,1.33,0.036,0.245,9.799,-0.01,-0.01,-0.01
1777316763.4604342,-2.0,0.26,1.32,0.038,0.235,9.799,-0.01,-0.01,-0.01
1777316763.4704297,-2.0,0.27,1.32,0.035,0.218,9.797,-0.01,-0.01,-0.01
1777316763.480464,-2.0,0.27,1.32,0.047,0.195,9.798,-0.01,-0.01,-0.01
1777316763.4904428,-2.0,0.27,1.32,0.049,0.18,9.802,-0.01,-0.01,0.0
1777316763.500417,-2.01,0.27,1.31,0.054,0.178,9.804,-0.01,-0.01,0.0
1777316763.5104444,-2.02,0.27,1.31,0.057,0.183,9.805,-0.01,0.0,0.0
1777316763.5204673,-2.03,0.27,1.31,0.063,0.189,9.803,0.0,0.0,0.0
1777316763.5304148,-2.04,0.27,1.31,0.062,0.194,9.791,0.0,0.0,0.0
1777316763.5404224,-2.05,0.26,1.31,0.054,0.205,9.792,0.0,0.0,0.0
1777316763.5504463,-2.05,0.26,1.32,0.049,0.216,9.794,0.0,0.0,0.0
1777316763.5604472,-2.05,0.26,1.32,0.042,0.226,9.794,0.0,0.0,0.0
1777316763.5704534,-2.05,0.25,1.32,0.034,0.226,9.787,0.0,0.0,-0.01
1777316763.5804384,-2.05,0.25,1.32,0.026,0.229,9.781,0.0,0.0,-0.01
1777316763.590447,-2.05,0.25,1.32,0.02,0.245,9.782,0.0,0.0,0.0
1777316763.600421,-2.05,0.25,1.33,0.017,0.261,9.786,0.0,-0.01,0.0
1777316763.610483,-2.04,0.25,1.33,0.007,0.281,9.79,-0.01,-0.01,-0.01
1777316763.6204698,-2.03,0.25,1.34,0.005,0.297,9.796,-0.01,-0.01,-0.01
1777316763.630449,-2.02,0.25,1.34,0.01,0.289,9.799,-0.01,-0.01,-0.01
1777316763.6404853,-2.01,0.26,1.34,0.01,0.273,9.803,-0.01,-0.01,-0.01
1777316763.6504579,-2.0,0.26,1.33,0.03,0.238,9.805,-0.01,-0.01,-0.01
1777316763.659575,-2.0,0.26,1.32,0.055,0.207,9.802,-0.01,-0.01,-0.01
1777316763.6704934,-2.0,0.27,1.32,0.077,0.177,9.792,-0.01,-0.01,-0.01
1777316763.6804621,-2.01,0.27,1.31,0.079,0.166,9.792,-0.01,-0.01,0.0
1777316763.6904545,-2.02,0.27,1.3,0.086,0.157,9.793,-0.01,0.0,0.0
1777316763.6995573,-2.04,0.27,1.3,0.083,0.159,9.796,0.0,0.0,0.01
1777316763.7096934,-2.05,0.27,1.3,0.078,0.175,9.799,0.0,0.0,0.01
1777316763.7204304,-2.06,0.26,1.31,0.071,0.183,9.794,0.0,0.0,0.0
1777316763.7304265,-2.06,0.26,1.31,0.055,0.195,9.787,0.0,0.0,0.0
1777316763.7404623,-2.06,0.25,1.31,0.046,0.207,9.791,0.0,0.0,0.0
1777316763.7504265,-2.05,0.25,1.32,0.023,0.222,9.796,0.0,0.0,-0.01
1777316763.759575,-2.05,0.25,1.32,0.007,0.238,9.797,0.0,0.0,-0.01
1777316763.7696161,-2.04,0.25,1.32,-0.005,0.259,9.785,0.0,0.0,-0.01
1777316763.7795856,-2.03,0.24,1.33,-0.006,0.266,9.785,0.0,-0.01,-0.01
1777316763.790431,-2.02,0.25,1.33,-0.004,0.272,9.791,-0.01,-0.01,-0.01
1777316763.7995641,-2.02,0.25,1.34,0.006,0.253,9.796,0.0,-0.01,-0.01
1777316763.8095794,-2.02,0.25,1.33,0.026,0.24,9.79,-0.01,-0.01,-0.01
1777316763.8196368,-2.03,0.25,1.32,0.041,0.229,9.788,-0.01,-0.01,0.0
1777316763.8296013,-2.04,0.25,1.32,0.06,0.226,9.792,-0.01,-0.01,0.0
1777316763.8404107,-2.05,0.26,1.32,0.078,0.217,9.787,-0.01,-0.01,0.0
1777316763.8495662,-2.06,0.26,1.32,0.087,0.216,9.792,-0.01,0.0,0.0
1777316763.8596687,-2.07,0.26,1.32,0.084,0.226,9.798,-0.01,0.0,0.0
1777316763.8695648,-2.07,0.26,1.32,0.079,0.237,9.785,-0.01,0.0,0.0
1777316763.8795886,-2.05,0.25,1.32,0.057,0.238,9.781,-0.01,0.0,-0.01
1777316763.8895714,-2.04,0.25,1.32,0.041,0.24,9.786,-0.01,0.0,-0.01
1777316763.8995507,-2.02,0.25,1.32,0.03,0.211,9.788,-0.01,0.0,-0.02
1777316763.9095275,-2.02,0.25,1.31,0.02,0.184,9.793,0.0,0.0,-0.02
1777316763.9195187,-2.01,0.24,1.31,0.019,0.159,9.782,0.0,0.0,-0.01
1777316763.9295747,-2.02,0.24,1.3,0.018,0.16,9.773,0.0,-0.01,-0.01
1777316763.939512,-2.03,0.25,1.3,0.022,0.163,9.774,0.0,-0.01,0.0
1777316763.9495099,-2.04,0.25,1.3,0.032,0.172,9.781,0.0,-0.01,0.0
1777316763.9595091,-2.06,0.25,1.3,0.036,0.198,9.79,0.0,-0.01,0.01
1777316763.9696155,-2.07,0.25,1.31,0.042,0.237,9.793,0.0,-0.01,0.0
1777316763.9795275,-2.07,0.25,1.32,0.056,0.269,9.793,0.0,-0.01,0.0
1777316763.9895344,-2.07,0.26,1.32,0.055,0.291,9.793,0.0,-0.01,-0.01
1777316763.9995344,-2.05,0.26,1.33,0.053,0.295,9.798,0.0,-0.01,-0.01
1777316764.0098135,-2.03,0.26,1.33,0.046,0.291,9.8,-0.01,-0.01,-0.02
1777316764.0196753,-2.02,0.25,1.33,0.042,0.256,9.803,-0.01,0.0,-0.02
1777316764.0295095,-2.01,0.25,1.32,0.04,0.228,9.8,-0.01,0.0,-0.01
1777316764.0396357,-2.02,0.25,1.32,0.041,0.2,9.784,-0.01,0.0,-0.01
1777316764.0495012,-2.02,0.25,1.31,0.043,0.188,9.762,-0.01,0.0,0.0
1777316764.0594785,-2.04,0.25,1.31,0.042,0.186,9.768,-0.01,0.0,0.0
1777316764.0695333,-2.06,0.25,1.31,0.037,0.194,9.778,-0.01,0.0,0.01
1777316764.0795085,-2.07,0.25,1.31,0.036,0.213,9.786,-0.01,-0.01,0.01
1777316764.0895164,-2.08,0.25,1.31,0.038,0.237,9.79,-0.01,0.0,0.0
1777316764.0994782,-2.07,0.25,1.32,0.037,0.256,9.77,0.0,0.0,0.0
1777316764.109543,-2.06,0.25,1.32,0.032,0.265,9.769,0.0,0.0,-0.01
1777316764.1194856,-2.04,0.25,1.32,0.023,0.267,9.78,-0.01,-0.01,-0.02
1777316764.1294894,-2.02,0.25,1.32,0.014,0.24,9.788,-0.01,-0.01,-0.02
1777316764.139463,-2.0,0.25,1.32,0.013,0.208,9.793,0.0,-0.01,-0.02
1777316764.1495342,-2.0,0.25,1.32,0.03,0.19,9.773,0.0,-0.01,-0.01
1777316764.1594841,-2.01,0.25,1.31,0.048,0.183,9.754,0.0,-0.01,-0.01
1777316764.1694725,-2.02,0.26,1.31,0.046,0.19,9.759,0.0,-0.01,0.0
1777316764.1795163,-2.03,0.26,1.31,0.046,0.21,9.768,-0.01,-0.01,0.0
1777316764.189517,-2.05,0.26,1.31,0.047,0.224,9.78,-0.01,-0.01,0.0
1777316764.199491,-2.05,0.26,1.32,0.053,0.238,9.788,0.0,-0.01,0.0
1777316764.2095232,-2.06,0.26,1.32,0.062,0.247,9.788,0.0,0.0,0.0
1777316764.2195487,-2.06,0.25,1.32,0.066,0.24,9.782,0.0,0.0,0.0
1777316764.2294834,-2.05,0.25,1.32,0.06,0.232,9.782,0.0,0.0,-0.01
1777316764.2395153,-2.05,0.25,1.32,0.046,0.228,9.79,-0.01,0.0,-0.01
1777316764.249505,-2.05,0.25,1.32,0.03,0.222,9.796,-0.01,0.0,-0.01
1777316764.2595644,-2.05,0.25,1.32,0.012,0.222,9.797,0.0,0.0,-0.01
1777316764.269521,-2.05,0.24,1.32,0.012,0.229,9.78,0.0,0.0,0.0
1777316764.2794676,-2.05,0.24,1.32,0.006,0.243,9.76,0.0,0.0,0.0
1777316764.2895193,-2.04,0.24,1.32,-0.004,0.251,9.764,-0.01,-0.01,-0.01
1777316764.2995,-2.04,0.24,1.32,0.0,0.248,9.778,-0.01,-0.01,-0.01
1777316764.3095043,-2.03,0.24,1.32,0.007,0.235,9.786,-0.01,-0.01,-0.01
1777316764.3195038,-2.02,0.24,1.32,0.026,0.219,9.781,-0.01,-0.01,-0.01
1777316764.329511,-2.02,0.25,1.32,0.046,0.199,9.763,0.0,0.0,-0.01
1777316764.339554,-2.03,0.25,1.32,0.063,0.186,9.757,0.0,-0.01,0.0
1777316764.349488,-2.04,0.25,1.31,0.079,0.184,9.756,0.0,-0.01,0.0
1777316764.359606,-2.05,0.26,1.31,0.078,0.196,9.77,-0.01,-0.01,0.0
1777316764.369551,-2.06,0.26,1.31,0.075,0.206,9.781,0.0,0.0,0.0
1777316764.379477,-2.07,0.25,1.32,0.075,0.214,9.787,0.0,0.0,0.0
1777316764.3895025,-2.07,0.25,1.32,0.063,0.226,9.772,0.0,0.0,0.0
1777316764.3995934,-2.07,0.25,1.32,0.056,0.241,9.756,0.0,0.0,0.0
1777316764.4095433,-2.07,0.25,1.32,0.028,0.265,9.764,-0.01,0.0,-0.01
1777316764.4194984,-2.05,0.24,1.33,0.012,0.269,9.775,-0.01,-0.01,-0.01
1777316764.4294994,-2.04,0.24,1.33,-0.002,0.271,9.785,-0.01,-0.01,-0.01
1777316764.4394894,-2.02,0.24,1.33,0.004,0.254,9.785,-0.01,-0.01,-0.02
1777316764.449556,-2.02,0.24,1.33,0.017,0.224,9.77,0.0,-0.01,-0.01
1777316764.4595027,-2.02,0.25,1.32,0.03,0.193,9.773,-0.01,-0.01,-0.01
1777316764.4694896,-2.02,0.25,1.32,0.055,0.18,9.775,-0.01,-0.01,0.0
1777316764.4795177,-2.04,0.26,1.31,0.065,0.187,9.785,-0.01,-0.01,0.0
1777316764.4895113,-2.05,0.26,1.31,0.085,0.19,9.791,-0.01,-0.01,0.0
1777316764.4995844,-2.07,0.27,1.31,0.091,0.194,9.797,0.0,0.0,0.01
1777316764.5095108,-2.07,0.27,1.32,0.099,0.205,9.782,0.0,0.0,0.0
1777316764.5195048,-2.07,0.27,1.32,0.087,0.234,9.773,0.0,0.0,0.0
1777316764.5295098,-2.07,0.26,1.32,0.079,0.244,9.77,0.0,0.0,-0.01
1777316764.5394845,-2.06,0.26,1.32,0.051,0.254,9.781,0.0,0.0,-0.01
1777316764.5494864,-2.05,0.25,1.33,0.026,0.263,9.79,-0.01,0.0,-0.01
1777316764.559486,-2.03,0.25,1.33,0.013,0.243,9.788,0.0,0.0,-0.01
1777316764.5694337,-2.02,0.25,1.33,0.002,0.224,9.779,0.0,0.0,-0.01
1777316764.5794926,-2.02,0.25,1.33,0.014,0.2,9.763,0.0,0.0,-0.01
1777316764.589481,-2.03,0.25,1.32,0.02,0.198,9.768,-0.01,-0.01,0.0
1777316764.5995052,-2.05,0.25,1.32,0.035,0.194,9.776,-0.01,-0.01,0.0
1777316764.6094813,-2.06,0.25,1.32,0.036,0.199,9.785,-0.01,-0.01,0.0
1777316764.6194587,-2.07,0.26,1.32,0.053,0.206,9.792,-0.01,-0.01,0.0
1777316764.6295145,-2.08,0.26,1.32,0.06,0.22,9.794,-0.01,-0.01,0.0
1777316764.639449,-2.08,0.26,1.32,0.067,0.24,9.788,0.0,-0.01,0.0
1777316764.6494865,-2.07,0.26,1.32,0.071,0.242,9.781,-0.01,0.0,0.0
1777316764.6595,-2.07,0.27,1.32,0.053,0.255,9.788,0.0,0.0,-0.01
1777316764.6695216,-2.05,0.26,1.33,0.063,0.238,9.788,-0.01,0.0,-0.01
1777316764.679471,-2.05,0.26,1.32,0.046,0.235,9.794,0.0,0.0,-0.01
1777316764.689512,-2.03,0.25,1.32,0.04,0.219,9.77,-0.01,0.0,-0.01
1777316764.6994839,-2.03,0.25,1.32,0.024,0.202,9.763,0.0,0.0,-0.01
1777316764.7094915,-2.04,0.25,1.32,0.032,0.175,9.774,0.0,-0.01,-0.01
1777316764.7194347,-2.05,0.25,1.32,0.02,0.176,9.784,0.0,0.0,0.0
1777316764.7294822,-2.06,0.25,1.32,0.019,0.184,9.791,-0.01,-0.01,0.0
1777316764.7394886,-2.07,0.25,1.32,0.029,0.2,9.793,0.0,-0.01,0.01
1777316764.74948,-2.09,0.25,1.32,0.031,0.222,9.794,0.0,-0.01,0.0
1777316764.759452,-2.09,0.25,1.32,0.036,0.241,9.799,0.0,-0.01,0.0
1777316764.7686057,-2.09,0.26,1.32,0.035,0.255,9.802,-0.01,-0.01,0.0
1777316764.779472,-2.07,0.25,1.32,0.044,0.257,9.804,-0.01,-0.01,-0.01
1777316764.7886057,-2.07,0.26,1.33,0.048,0.248,9.806,0.0,0.0,-0.01
1777316764.799477,-2.06,0.25,1.33,0.057,0.241,9.805,0.0,0.0,-0.01
1777316764.8086321,-2.05,0.25,1.32,0.054,0.229,9.8,0.0,0.0,-0.01
1777316764.8185868,-2.05,0.25,1.32,0.046,0.232,9.803,-0.01,-0.01,-0.01
1777316764.8294613,-2.05,0.25,1.32,0.041,0.214,9.804,-0.01,0.0,-0.01
1777316764.8385808,-2.05,0.25,1.32,0.036,0.201,9.806,0.0,0.0,0.0
1777316764.8485909,-2.06,0.25,1.32,0.036,0.2,9.805,-0.01,0.0,0.0
1777316764.859428,-2.07,0.25,1.32,0.036,0.201,9.793,-0.01,0.0,0.0
1777316764.8694754,-2.07,0.25,1.32,0.037,0.202,9.781,0.0,0.0,0.0
1777316764.8785427,-2.08,0.25,1.32,0.04,0.207,9.775,0.0,0.0,0.0
1777316764.8885813,-2.09,0.25,1.32,0.036,0.223,9.785,0.0,-0.01,0.0
1777316764.8985717,-2.08,0.25,1.32,0.043,0.234,9.791,0.0,-0.01,0.0
1777316764.908598,-2.07,0.25,1.32,0.035,0.248,9.791,0.0,-0.01,-0.01
1777316764.9185557,-2.07,0.25,1.33,0.042,0.236,9.79,0.0,-0.01,-0.01
1777316764.928572,-2.06,0.25,1.32,0.038,0.219,9.794,0.0,0.0,-0.01
1777316764.9385576,-2.06,0.25,1.32,0.043,0.206,9.787,0.0,0.0,-0.01
1777316764.9485853,-2.06,0.25,1.32,0.037,0.212,9.78,0.0,-0.01,-0.01
1777316764.958646,-2.06,0.25,1.32,0.042,0.226,9.773,-0.01,-0.01,0.0
1777316764.9685516,-2.07,0.25,1.32,0.038,0.237,9.782,0.0,-0.01,0.0
1777316764.9785671,-2.06,0.25,1.33,0.037,0.249,9.791,-0.01,-0.01,0.0
1777316764.9885948,-2.06,0.25,1.33,0.05,0.235,9.796,0.0,0.0,-0.01
1777316764.9985366,-2.06,0.25,1.32,0.049,0.218,9.799,0.0,-0.01,-0.01
1777316765.0085478,-2.05,0.25,1.32,0.051,0.21,9.784,-0.01,0.0,-0.01
1777316765.0185587,-2.05,0.25,1.32,0.047,0.207,9.785,-0.01,0.0,-0.01
1777316765.0286481,-2.06,0.25,1.32,0.046,0.202,9.79,0.0,0.0,0.0
1777316765.0385914,-2.06,0.25,1.32,0.048,0.205,9.792,0.0,0.0,0.0
1777316765.0485442,-2.07,0.25,1.32,0.037,0.219,9.796,-0.01,-0.01,0.0
1777316765.0585847,-2.07,0.25,1.32,0.042,0.224,9.781,-0.01,-0.01,0.0
1777316765.0685418,-2.06,0.25,1.32,0.034,0.212,9.79,0.0,0.0,-0.01
1777316765.0785515,-2.06,0.25,1.32,0.041,0.202,9.787,0.0,-0.01,-0.01
1777316765.088528,-2.07,0.25,1.32,0.037,0.212,9.784,-0.01,-0.01,-0.01
1777316765.0985687,-2.07,0.25,1.32,0.04,0.212,9.791,-0.01,-0.01,0.0
1777316765.1085687,-2.07,0.25,1.32,0.037,0.223,9.794,-0.01,-0.01,0.0
1777316765.1185346,-2.07,0.25,1.32,0.046,0.225,9.798,0.0,0.0,0.0
1777316765.1285634,-2.07,0.26,1.32,0.049,0.238,9.799,-0.01,-0.01,-0.01
1777316765.1385717,-2.06,0.25,1.32,0.043,0.24,9.802,-0.01,-0.01,-0.01
1777316765.148597,-2.05,0.25,1.32,0.048,0.219,9.804,0.0,0.0,-0.01
1777316765.1585371,-2.05,0.25,1.32,0.051,0.21,9.798,0.0,0.0,-0.01
1777316765.1685615,-2.05,0.26,1.32,0.055,0.195,9.799,0.0,0.0,-0.01
1777316765.178523,-2.06,0.25,1.31,0.057,0.194,9.791,-0.01,0.0,0.0
1777316765.188513,-2.07,0.25,1.31,0.057,0.189,9.792,0.0,0.0,0.0
1777316765.198528,-2.07,0.25,1.31,0.054,0.199,9.79,0.0,0.0,0.0
1777316765.2085514,-2.08,0.25,1.31,0.049,0.207,9.788,0.0,0.0,0.0
1777316765.2185342,-2.08,0.25,1.32,0.035,0.234,9.788,0.0,0.0,0.0
1777316765.2285275,-2.08,0.25,1.32,0.041,0.235,9.781,0.0,0.0,-0.01
1777316765.2385387,-2.07,0.25,1.32,0.038,0.231,9.79,0.0,0.0,-0.01
1777316765.248558,-2.07,0.25,1.32,0.044,0.214,9.779,0.0,0.0,-0.01
1777316765.2585757,-2.07,0.25,1.32,0.047,0.213,9.784,-0.01,0.0,-0.01
1777316765.2685275,-2.07,0.25,1.32,0.053,0.222,9.784,0.0,-0.01,-0.01
1777316765.2785532,-2.07,0.26,1.32,0.053,0.234,9.788,0.0,-0.01,-0.01
1777316765.288511,-2.06,0.26,1.32,0.047,0.24,9.791,0.0,-0.01,-0.01
1777316765.2985008,-2.06,0.26,1.32,0.042,0.236,9.796,-0.01,-0.01,-0.01
1777316765.3085182,-2.05,0.26,1.32,0.042,0.224,9.798,-0.01,-0.01,-0.01
1777316765.318564,-2.05,0.26,1.32,0.048,0.211,9.793,-0.01,-0.01,-0.01
1777316765.3284953,-2.06,0.26,1.32,0.056,0.2,9.787,0.0,0.0,-0.01
1777316765.3385167,-2.06,0.26,1.31,0.049,0.202,9.787,-0.01,-0.01,0.0
1777316765.3485143,-2.07,0.26,1.31,0.05,0.192,9.782,-0.01,0.0,0.0
1777316765.3585274,-2.07,0.26,1.31,0.04,0.205,9.791,0.0,0.0,0.0
1777316765.368531,-2.07,0.26,1.31,0.038,0.218,9.796,-0.01,-0.01,0.0
1777316765.3785005,-2.07,0.26,1.31,0.038,0.217,9.791,0.0,0.0,0.0
1777316765.3885126,-2.07,0.26,1.31,0.029,0.225,9.788,0.0,0.0,-0.01
1777316765.3984926,-2.07,0.25,1.31,0.031,0.212,9.784,0.0,-0.01,-0.01
1777316765.4085,-2.07,0.25,1.31,0.03,0.212,9.787,0.0,-0.01,-0.01
1777316765.4185615,-2.07,0.25,1.31,0.037,0.202,9.787,-0.01,-0.01,-0.01
1777316765.4285572,-2.07,0.26,1.31,0.037,0.21,9.794,0.0,-0.01,0.0
1777316765.4385302,-2.07,0.26,1.31,0.04,0.228,9.792,-0.01,-0.01,0.0
1777316765.4485216,-2.07,0.26,1.31,0.042,0.235,9.787,0.0,0.0,0.0
1777316765.4585385,-2.07,0.26,1.32,0.042,0.247,9.793,0.0,-0.01,0.0
1777316765.4685662,-2.07,0.26,1.32,0.046,0.244,9.794,-0.01,-0.01,-0.01
1777316765.4785101,-2.07,0.26,1.32,0.043,0.236,9.799,0.0,0.0,-0.01
1777316765.4885085,-2.07,0.26,1.32,0.053,0.219,9.796,-0.01,0.0,-0.01
1777316765.4985344,-2.07,0.26,1.31,0.054,0.212,9.794,0.0,0.0,-0.01
1777316765.508534,-2.07,0.26,1.31,0.047,0.205,9.799,-0.01,-0.01,0.0
1777316765.518504,-2.08,0.26,1.31,0.041,0.216,9.794,-0.01,0.0,0.0
1777316765.5285125,-2.09,0.26,1.31,0.047,0.21,9.799,0.0,0.0,0.0
1777316765.538561,-2.09,0.26,1.31,0.036,0.222,9.798,-0.01,-0.01,0.0
1777316765.5485141,-2.09,0.26,1.32,0.035,0.229,9.79,0.0,0.0,0.0
1777316765.5585003,-2.09,0.25,1.32,0.032,0.23,9.793,0.0,-0.01,-0.01
1777316765.568549,-2.08,0.25,1.32,0.031,0.23,9.791,0.0,0.0,-0.01
1777316765.5785449,-2.08,0.25,1.32,0.032,0.229,9.791,0.0,-0.01,-0.01
1777316765.5885026,-2.08,0.25,1.32,0.028,0.23,9.793,-0.01,-0.01,-0.01
1777316765.5985222,-2.07,0.25,1.32,0.041,0.224,9.793,0.0,0.0,-0.01
1777316765.6085541,-2.07,0.26,1.32,0.034,0.237,9.798,-0.01,-0.01,-0.01
1777316765.618534,-2.07,0.26,1.32,0.046,0.225,9.8,-0.01,-0.01,-0.01
1777316765.6285138,-2.07,0.26,1.32,0.043,0.222,9.803,0.0,0.0,-0.01
1777316765.6385193,-2.07,0.26,1.32,0.054,0.204,9.793,0.0,-0.01,-0.01
1777316765.6485054,-2.07,0.26,1.32,0.057,0.205,9.787,-0.01,0.0,0.0
1777316765.6585011,-2.07,0.26,1.32,0.057,0.207,9.784,-0.01,-0.01,0.0
1777316765.668526,-2.08,0.26,1.31,0.06,0.204,9.784,0.0,0.0,0.0
1777316765.6785336,-2.09,0.26,1.31,0.046,0.213,9.791,-0.01,-0.01,0.0
1777316765.6885054,-2.09,0.26,1.32,0.05,0.219,9.791,0.0,0.0,0.0
1777316765.698495,-2.09,0.26,1.32,0.043,0.23,9.791,0.0,-0.01,0.0
1777316765.7084932,-2.08,0.26,1.32,0.046,0.234,9.786,0.0,0.0,-0.01
1777316765.718511,-2.08,0.26,1.32,0.044,0.234,9.79,-0.01,-0.01,-0.01
1777316765.7285154,-2.07,0.26,1.32,0.047,0.22,9.794,0.0,0.0,-0.01
1777316765.7384827,-2.07,0.26,1.32,0.048,0.21,9.785,0.0,-0.01,-0.01
1777316765.7484953,-2.07,0.26,1.32,0.046,0.212,9.772,0.0,0.0,-0.01
1777316765.758529,-2.07,0.26,1.32,0.048,0.207,9.779,-0.01,-0.01,-0.01
1777316765.7685914,-2.07,0.26,1.32,0.037,0.218,9.779,0.0,-0.01,0.0
1777316765.7784731,-2.07,0.26,1.32,0.042,0.21,9.784,0.0,0.0,0.0
1777316765.7885349,-2.08,0.26,1.32,0.043,0.217,9.791,0.0,-0.01,0.0
1777316765.7984865,-2.08,0.26,1.32,0.048,0.224,9.788,0.0,0.0,0.0
1777316765.8084714,-2.09,0.26,1.32,0.04,0.23,9.793,0.0,-0.01,0.0
1777316765.8185406,-2.09,0.26,1.32,0.041,0.238,9.798,-0.01,0.0,0.0
1777316765.8285184,-2.08,0.26,1.32,0.034,0.243,9.798,0.0,0.0,-0.01
1777316765.837656,-2.07,0.26,1.32,0.028,0.249,9.8,-0.01,-0.01,-0.01
1777316765.8484821,-2.07,0.25,1.32,0.011,0.248,9.798,-0.01,0.0,-0.01
1777316765.858514,-2.06,0.25,1.32,0.023,0.224,9.798,-0.01,-0.01,-0.01
1777316765.8676212,-2.05,0.25,1.32,0.036,0.211,9.793,0.0,0.0,-0.01
1777316765.8776321,-2.05,0.26,1.32,0.055,0.187,9.791,-0.01,-0.01,-0.01
1777316765.8884766,-2.06,0.26,1.31,0.056,0.189,9.796,-0.01,-0.01,0.0
1777316765.8976429,-2.07,0.27,1.31,0.061,0.189,9.798,-0.01,-0.01,0.0
1777316765.9085171,-2.08,0.27,1.31,0.063,0.2,9.802,0.0,-0.01,0.0
1777316765.9184847,-2.09,0.27,1.31,0.068,0.21,9.804,0.0,0.0,0.0
1777316765.9276009,-2.09,0.27,1.32,0.067,0.235,9.798,0.0,0.0,0.0
1777316765.9376574,-2.09,0.27,1.32,0.069,0.254,9.786,0.0,0.0,0.0
1777316765.9485035,-2.08,0.27,1.32,0.053,0.257,9.792,0.0,0.0,-0.01
1777316765.9584618,-2.07,0.27,1.32,0.04,0.253,9.797,-0.01,-0.01,-0.01
1777316765.9676065,-2.06,0.26,1.32,0.036,0.234,9.8,0.0,0.0,-0.01
1777316765.9776757,-2.06,0.26,1.32,0.036,0.217,9.796,0.0,0.0,-0.01
1777316765.9876015,-2.06,0.26,1.32,0.044,0.195,9.78,0.0,0.0,-0.01
1777316765.9976199,-2.07,0.26,1.32,0.042,0.202,9.773,0.0,-0.01,0.0
1777316766.0076444,-2.07,0.26,1.32,0.041,0.21,9.781,-0.01,-0.01,0.0
1777316766.0175905,-2.08,0.27,1.32,0.036,0.231,9.79,-0.01,-0.01,0.0
1777316766.027602,-2.09,0.26,1.32,0.035,0.253,9.794,-0.01,-0.01,0.0
1777316766.0376062,-2.08,0.26,1.32,0.044,0.243,9.796,0.0,0.0,-0.01
1777316766.0476997,-2.07,0.26,1.32,0.055,0.231,9.798,0.0,0.0,-0.01
1777316766.0576077,-2.07,0.26,1.32,0.059,0.217,9.786,0.0,0.0,-0.01
1777316766.0676043,-2.07,0.26,1.32,0.057,0.214,9.786,-0.01,-0.01,-0.01
1777316766.0775824,-2.07,0.26,1.32,0.05,0.217,9.792,-0.01,0.0,-0.01
1777316766.0876331,-2.07,0.26,1.32,0.047,0.212,9.79,-0.01,-0.01,0.0
1777316766.0976024,-2.07,0.26,1.32,0.031,0.208,9.794,0.0,0.0,0.0
1777316766.1076033,-2.08,0.25,1.32,0.04,0.21,9.779,0.0,0.0,0.0
1777316766.1176395,-2.08,0.25,1.32,0.029,0.224,9.776,0.0,0.0,0.0
1777316766.1275897,-2.08,0.26,1.32,0.032,0.229,9.772,0.0,-0.01,0.0
1777316766.1375504,-2.08,0.26,1.32,0.023,0.244,9.782,-0.01,-0.01,-0.01
1777316766.1475866,-2.07,0.26,1.33,0.031,0.244,9.79,-0.01,-0.01,-0.01
1777316766.1576085,-2.07,0.26,1.33,0.042,0.229,9.796,0.0,0.0,-0.01
1777316766.1676116,-2.07,0.26,1.32,0.053,0.218,9.793,0.0,0.0,-0.01
1777316766.177609,-2.07,0.26,1.32,0.062,0.208,9.784,-0.01,-0.01,0.0
1777316766.1875696,-2.08,0.26,1.32,0.061,0.211,9.78,-0.01,0.0,0.0
1777316766.1976144,-2.08,0.26,1.32,0.06,0.212,9.782,0.0,0.0,0.0
1777316766.2075682,-2.09,0.27,1.32,0.059,0.218,9.791,0.0,0.0,0.0
1777316766.2175736,-2.09,0.26,1.33,0.051,0.229,9.796,-0.01,-0.01,0.0
1777316766.2276013,-2.09,0.26,1.33,0.04,0.242,9.797,0.0,0.0,-0.01
1777316766.237581,-2.08,0.25,1.33,0.038,0.238,9.776,0.0,0.0,-0.01
1777316766.2475586,-2.07,0.25,1.33,0.031,0.24,9.782,0.0,0.0,-0.01
1777316766.257549,-2.07,0.25,1.33,0.017,0.244,9.79,-0.01,-0.01,-0.01
1777316766.267593,-2.06,0.25,1.33,0.018,0.228,9.796,-0.01,-0.01,-0.01
1777316766.2775753,-2.05,0.25,1.33,0.022,0.201,9.799,0.0,-0.01,-0.01
1777316766.2875323,-2.06,0.25,1.32,0.036,0.188,9.8,0.0,-0.01,-0.01
1777316766.297566,-2.07,0.26,1.32,0.047,0.18,9.791,0.0,-0.01,0.0
1777316766.307583,-2.08,0.26,1.32,0.053,0.182,9.796,-0.01,-0.01,0.0
1777316766.317598,-2.09,0.27,1.32,0.065,0.194,9.8,0.0,-0.01,0.0
1777316766.327529,-2.09,0.27,1.32,0.059,0.208,9.803,0.0,-0.01,0.0
1777316766.3375645,-2.09,0.27,1.32,0.066,0.218,9.796,0.0,0.0,0.0
1777316766.3475678,-2.09,0.26,1.33,0.061,0.234,9.796,0.0,0.0,-0.01
1777316766.3575356,-2.09,0.26,1.33,0.055,0.24,9.778,0.0,0.0,-0.01
1777316766.3675468,-2.08,0.26,1.33,0.042,0.251,9.784,0.0,0.0,-0.01
1777316766.377588,-2.07,0.26,1.34,0.03,0.245,9.79,-0.01,-0.01,-0.01
1777316766.3875847,-2.07,0.26,1.34,0.028,0.228,9.796,0.0,0.0,-0.01
1777316766.3975189,-2.07,0.25,1.34,0.026,0.213,9.788,0.0,0.0,-0.01
1777316766.4075272,-2.07,0.25,1.33,0.026,0.21,9.78,0.0,0.0,0.0
1777316766.417629,-2.08,0.25,1.33,0.031,0.222,9.781,-0.01,-0.01,0.0
1777316766.427532,-2.09,0.26,1.33,0.028,0.238,9.781,-0.01,-0.01,0.0
1777316766.4375277,-2.09,0.26,1.33,0.025,0.245,9.79,-0.01,-0.01,0.0
1777316766.4475365,-2.08,0.26,1.33,0.029,0.247,9.796,-0.01,-0.01,-0.01
1777316766.4575984,-2.07,0.26,1.33,0.04,0.222,9.799,-0.01,-0.01,-0.01
1777316766.4675372,-2.07,0.26,1.33,0.049,0.214,9.797,0.0,0.0,-0.01
1777316766.4775543,-2.06,0.26,1.32,0.055,0.204,9.779,0.0,0.0,-0.01
1777316766.4877133,-2.05,0.27,1.32,0.041,0.205,9.787,-0.01,-0.01,-0.01
1777316766.4975564,-2.05,0.26,1.32,0.046,0.196,9.793,-0.01,-0.01,-0.01
1777316766.507532,-2.06,0.26,1.32,0.048,0.194,9.798,0.0,0.0,0.0
1777316766.5175657,-2.06,0.26,1.32,0.059,0.189,9.788,0.0,0.0,0.0
1777316766.5275636,-2.07,0.27,1.32,0.046,0.199,9.782,0.0,0.0,0.0
1777316766.5375688,-2.07,0.26,1.32,0.043,0.205,9.769,-0.01,-0.01,0.0
1777316766.5475469,-2.07,0.26,1.32,0.038,0.202,9.778,0.0,0.0,0.0
1777316766.557583,-2.07,0.26,1.32,0.047,0.207,9.787,0.0,-0.01,0.0
1777316766.5675924,-2.07,0.26,1.32,0.044,0.207,9.793,0.0,0.0,0.0
1777316766.5775597,-2.07,0.26,1.32,0.047,0.22,9.787,0.0,0.0,-0.01
1777316766.5875418,-2.07,0.26,1.33,0.051,0.216,9.786,0.0,0.0,0.0
1777316766.5976088,-2.07,0.26,1.33,0.051,0.214,9.79,0.0,0.0,0.0
1777316766.607564,-2.07,0.26,1.33,0.042,0.236,9.794,0.0,0.0,0.0
1777316766.6175537,-2.07,0.26,1.33,0.036,0.242,9.798,-0.01,-0.01,0.0
1777316766.6275635,-2.07,0.26,1.34,0.028,0.253,9.802,0.0,0.0,-0.01
1777316766.6375875,-2.07,0.26,1.34,0.037,0.242,9.804,0.0,0.0,-0.01
1777316766.6475506,-2.07,0.26,1.34,0.038,0.234,9.803,0.0,0.0,-0.01
1777316766.657541,-2.07,0.26,1.34,0.042,0.225,9.793,-0.01,0.0,-0.01
1777316766.6675286,-2.07,0.25,1.33,0.034,0.229,9.798,-0.01,-0.01,0.0
1777316766.6776705,-2.07,0.25,1.33,0.046,0.219,9.798,-0.01,-0.01,0.0
1777316766.6874928,-2.07,0.26,1.33,0.035,0.222,9.802,0.0,-0.01,0.0
1777316766.6975472,-2.07,0.25,1.33,0.043,0.217,9.796,-0.01,-0.01,-0.01
1777316766.7075543,-2.07,0.26,1.33,0.041,0.202,9.792,0.0,0.0,-0.01
1777316766.7175367,-2.07,0.26,1.32,0.047,0.195,9.793,0.0,-0.01,-0.01
1777316766.7275052,-2.07,0.26,1.32,0.04,0.204,9.797,-0.01,0.0,-0.01
1777316766.737517,-2.07,0.26,1.32,0.042,0.217,9.8,-0.01,-0.01,-0.01
1777316766.7475328,-2.07,0.26,1.32,0.034,0.224,9.803,-0.01,-0.01,-0.01
1777316766.7574878,-2.07,0.25,1.32,0.029,0.23,9.803,-0.01,-0.01,-0.01
1777316766.7675118,-2.06,0.25,1.32,0.028,0.213,9.803,0.0,0.0,-0.01
1777316766.7775278,-2.06,0.25,1.32,0.035,0.205,9.793,0.0,-0.01,-0.01
1777316766.7875414,-2.07,0.26,1.32,0.042,0.206,9.778,0.0,-0.01,0.0
1777316766.7974873,-2.07,0.26,1.32,0.041,0.206,9.772,-0.01,-0.01,0.0
1777316766.8075128,-2.08,0.26,1.32,0.047,0.208,9.776,-0.01,-0.01,0.0
1777316766.817536,-2.09,0.26,1.32,0.048,0.217,9.786,0.0,0.0,0.0
1777316766.8275108,-2.09,0.26,1.32,0.044,0.237,9.788,-0.01,-0.01,0.0
1777316766.8374991,-2.09,0.26,1.33,0.044,0.259,9.794,0.0,0.0,0.0
1777316766.8475144,-2.08,0.26,1.33,0.04,0.268,9.79,0.0,0.0,-0.01
1777316766.8575177,-2.07,0.25,1.33,0.029,0.271,9.796,-0.01,0.0,-0.01
1777316766.8675032,-2.06,0.25,1.34,0.043,0.232,9.799,-0.01,0.0,-0.01
1777316766.8774717,-2.05,0.25,1.33,0.04,0.214,9.8,0.0,0.0,-0.01
1777316766.887825,-2.05,0.25,1.32,0.048,0.188,9.782,0.0,0.0,-0.01
1777316766.8968825,-2.05,0.25,1.32,0.044,0.187,9.775,-0.01,0.0,0.0
1777316766.907498,-2.07,0.25,1.32,0.048,0.181,9.769,0.0,-0.01,0.0
1777316766.9167976,-2.07,0.26,1.32,0.04,0.198,9.78,0.0,-0.01,0.0
1777316766.927559,-2.09,0.26,1.32,0.037,0.208,9.788,-0.01,-0.01,0.0
1777316766.9375324,-2.09,0.26,1.32,0.036,0.216,9.79,0.0,0.0,0.0
1777316766.9466836,-2.09,0.26,1.32,0.046,0.229,9.792,0.0,0.0,0.0
1777316766.9575434,-2.09,0.26,1.33,0.046,0.241,9.787,0.0,0.0,-0.01
1777316766.966682,-2.08,0.26,1.33,0.049,0.242,9.785,0.0,-0.01,-0.01
1777316766.9766166,-2.07,0.26,1.33,0.043,0.241,9.792,0.0,-0.01,-0.01
1777316766.987494,-2.07,0.26,1.33,0.04,0.237,9.797,-0.01,-0.01,-0.01
1777316766.9966302,-2.06,0.25,1.33,0.04,0.219,9.8,0.0,0.0,-0.01
1777316767.0075293,-2.06,0.25,1.33,0.044,0.201,9.784,0.0,0.0,-0.01
1777316767.0166123,-2.07,0.26,1.32,0.047,0.2,9.784,0.0,0.0,0.0
1777316767.0266464,-2.07,0.26,1.32,0.048,0.207,9.791,-0.01,-0.01,0.0
1777316767.036654,-2.08,0.26,1.32,0.053,0.206,9.793,-0.01,-0.01,0.0
1777316767.0466218,-2.08,0.26,1.32,0.043,0.217,9.798,0.0,0.0,0.0
1777316767.057476,-2.08,0.26,1.32,0.042,0.218,9.794,0.0,0.0,0.0
1777316767.0666184,-2.08,0.25,1.32,0.038,0.226,9.791,0.0,0.0,-0.01
1777316767.0766487,-2.07,0.25,1.33,0.03,0.217,9.79,0.0,0.0,-0.01
1777316767.0865636,-2.07,0.25,1.33,0.032,0.217,9.79,0.0,0.0,-0.01
1777316767.0966036,-2.07,0.25,1.33,0.028,0.222,9.794,0.0,0.0,-0.01
1777316767.1066055,-2.07,0.25,1.32,0.02,0.226,9.787,-0.01,-0.01,-0.01
1777316767.1166165,-2.07,0.25,1.33,0.022,0.229,9.781,-0.01,-0.01,-0.01
1777316767.126584,-2.07,0.25,1.33,0.03,0.218,9.786,0.0,-0.01,-0.01
1777316767.1365728,-2.07,0.25,1.33,0.043,0.213,9.787,0.0,-0.01,0.0
1777316767.1466029,-2.07,0.26,1.32,0.049,0.217,9.793,-0.01,-0.01,0.0
1777316767.1565902,-2.07,0.26,1.32,0.056,0.226,9.792,-0.01,-0.01,0.0
1777316767.1667814,-2.08,0.26,1.33,0.068,0.229,9.796,-0.01,0.0,0.0
1777316767.221103,-2.07,0.27,1.32,0.06,0.242,9.799,0.0,-0.01,0.0
1777316767.2228932,-2.07,0.26,1.33,0.061,0.241,9.799,-0.01,-0.01,-0.01
1777316767.2242782,-2.07,0.26,1.33,0.051,0.229,9.803,0.0,0.0,-0.01
1777316767.2258806,-2.07,0.26,1.33,0.053,0.216,9.803,0.0,0.0,-0.01
1777316767.227481,-2.07,0.26,1.32,0.051,0.207,9.802,0.0,0.0,-0.01
1777316767.228905,-2.07,0.26,1.32,0.046,0.213,9.797,-0.01,0.0,0.0
1777316767.2366695,-2.07,0.26,1.32,0.05,0.206,9.796,-0.01,0.0,0.0
1777316767.2488322,-2.08,0.26,1.32,0.041,0.207,9.799,0.0,-0.01,0.0
1777316767.2987387,-2.09,0.26,1.32,0.046,0.214,9.802,0.0,0.0,0.0
1777316767.3079517,-2.09,0.26,1.32,0.032,0.229,9.804,0.0,0.0,0.0
1777316767.3135617,-2.09,0.26,1.33,0.041,0.245,9.791,0.0,0.0,-0.01
1777316767.31631,-2.07,0.26,1.33,0.029,0.241,9.791,0.0,-0.01,-0.01
1777316767.3181398,-2.07,0.26,1.33,0.03,0.238,9.797,-0.01,-0.01,-0.01
1777316767.3193004,-2.06,0.26,1.33,0.034,0.218,9.797,0.0,0.0,-0.01
1777316767.3204646,-2.06,0.25,1.33,0.044,0.201,9.791,-0.01,-0.01,-0.01
1777316767.326578,-2.06,0.26,1.32,0.05,0.192,9.78,0.0,0.0,-0.01
1777316767.3367157,-2.07,0.26,1.32,0.053,0.195,9.788,0.0,0.0,0.0
1777316767.3465967,-2.07,0.26,1.32,0.055,0.208,9.786,-0.01,-0.01,0.0
1777316767.356538,-2.08,0.26,1.32,0.043,0.226,9.793,-0.01,-0.01,0.0
1777316767.366587,-2.08,0.26,1.32,0.038,0.243,9.796,-0.01,-0.01,0.0
1777316767.3765523,-2.08,0.26,1.33,0.044,0.243,9.799,0.0,0.0,-0.01
1777316767.386785,-2.07,0.25,1.33,0.047,0.236,9.792,0.0,0.0,-0.01
1777316767.3965394,-2.07,0.26,1.33,0.055,0.217,9.779,0.0,0.0,-0.01
1777316767.4065523,-2.07,0.25,1.32,0.042,0.211,9.772,-0.01,-0.01,-0.01
1777316767.4169242,-2.07,0.25,1.32,0.035,0.202,9.766,-0.01,0.0,-0.01
1777316767.4265227,-2.07,0.25,1.32,0.036,0.199,9.774,0.0,-0.01,0.0
1777316767.4365232,-2.07,0.25,1.32,0.034,0.213,9.778,0.0,-0.01,0.0
1777316767.4465287,-2.07,0.25,1.32,0.038,0.219,9.773,0.0,-0.01,0.0
1777316767.4567358,-2.07,0.25,1.33,0.036,0.217,9.782,0.0,-0.01,0.0
1777316767.4665515,-2.07,0.26,1.32,0.043,0.217,9.779,0.0,-0.01,0.0
1777316767.4765036,-2.07,0.26,1.32,0.035,0.222,9.787,-0.01,-0.01,0.0
1777316767.486485,-2.07,0.26,1.32,0.043,0.228,9.793,-0.01,-0.01,0.0
1777316767.4965334,-2.07,0.26,1.32,0.05,0.224,9.788,0.0,-0.01,0.0
1777316767.5065057,-2.07,0.26,1.32,0.054,0.231,9.794,0.0,0.0,0.0
1777316767.516472,-2.07,0.26,1.32,0.054,0.24,9.788,-0.01,-0.01,-0.01
1777316767.5265126,-2.07,0.26,1.33,0.05,0.229,9.794,-0.01,0.0,-0.01
1777316767.536515,-2.06,0.26,1.32,0.05,0.205,9.799,0.0,0.0,-0.01
1777316767.5464668,-2.06,0.26,1.32,0.061,0.2,9.794,0.0,0.0,-0.01
1777316767.5564637,-2.07,0.26,1.32,0.05,0.194,9.799,0.0,0.0,0.0
1777316767.5664492,-2.07,0.25,1.32,0.053,0.187,9.796,-0.01,0.0,0.0
1777316767.5764654,-2.07,0.26,1.32,0.047,0.19,9.799,0.0,0.0,0.0
1777316767.5864499,-2.08,0.25,1.32,0.043,0.201,9.802,0.0,-0.01,0.0
1777316767.5965264,-2.08,0.25,1.32,0.034,0.223,9.794,0.0,0.0,0.0
1777316767.6064796,-2.08,0.25,1.32,0.025,0.237,9.792,0.0,-0.01,0.0
1777316767.6165252,-2.07,0.25,1.32,0.014,0.244,9.787,-0.01,-0.01,-0.01
1777316767.6265056,-2.07,0.25,1.33,0.013,0.23,9.793,0.0,-0.01,-0.01
1777316767.6364393,-2.06,0.25,1.32,0.025,0.223,9.796,0.0,-0.01,-0.01
1777316767.6464584,-2.06,0.25,1.32,0.038,0.218,9.793,-0.01,-0.01,-0.01
1777316767.6564388,-2.07,0.25,1.32,0.042,0.21,9.787,-0.01,-0.01,0.0
1777316767.666444,-2.07,0.26,1.32,0.053,0.211,9.786,-0.01,0.0,0.0
1777316767.6764345,-2.08,0.26,1.32,0.056,0.212,9.792,0.0,-0.01,0.0
1777316767.6864505,-2.08,0.26,1.32,0.059,0.228,9.797,-0.01,0.0,0.0
1777316767.696476,-2.08,0.26,1.32,0.068,0.242,9.786,-0.01,0.0,0.0
1777316767.7064226,-2.07,0.26,1.32,0.057,0.255,9.792,0.0,0.0,-0.01
1777316767.7164178,-2.07,0.26,1.33,0.051,0.253,9.797,0.0,0.0,-0.01
1777316767.7264416,-2.05,0.26,1.33,0.049,0.229,9.796,-0.01,0.0,-0.01
1777316767.7369528,-2.05,0.26,1.32,0.046,0.205,9.798,0.0,-0.01,-0.01
1777316767.7465892,-2.05,0.26,1.32,0.047,0.188,9.791,0.0,-0.01,-0.01
1777316767.7564664,-2.05,0.26,1.32,0.037,0.184,9.79,-0.01,-0.01,0.0
1777316767.7664368,-2.07,0.26,1.32,0.043,0.177,9.782,0.0,-0.01,0.0
1777316767.7763877,-2.08,0.26,1.32,0.044,0.184,9.79,0.0,-0.01,0.0
1777316767.7864017,-2.09,0.26,1.32,0.043,0.213,9.793,0.0,-0.01,0.0
1777316767.796794,-2.09,0.27,1.32,0.042,0.238,9.787,0.0,-0.01,0.0
1777316767.8064182,-2.09,0.27,1.32,0.043,0.262,9.787,0.0,-0.01,0.0
1777316767.8163915,-2.08,0.27,1.33,0.048,0.257,9.778,-0.01,-0.01,-0.01
1777316767.8264225,-2.07,0.27,1.33,0.049,0.25,9.787,0.0,0.0,-0.01
1777316767.8365514,-2.06,0.27,1.33,0.057,0.232,9.793,0.0,0.0,-0.01
1777316767.846378,-2.05,0.27,1.33,0.053,0.218,9.785,-0.01,0.0,-0.01
1777316767.85644,-2.05,0.27,1.32,0.047,0.206,9.786,0.0,0.0,-0.01
1777316767.8663793,-2.05,0.27,1.32,0.048,0.204,9.77,0.0,0.0,0.0
1777316767.8764012,-2.06,0.27,1.32,0.036,0.212,9.77,-0.01,-0.01,0.0
1777316767.886445,-2.07,0.26,1.32,0.026,0.219,9.769,-0.01,-0.01,0.0
1777316767.896396,-2.07,0.26,1.32,0.03,0.217,9.778,0.0,0.0,0.0
1777316767.9063625,-2.07,0.26,1.32,0.035,0.212,9.787,0.0,-0.01,0.0
1777316767.916369,-2.07,0.26,1.32,0.042,0.211,9.784,0.0,0.0,0.0
1777316767.9264176,-2.07,0.27,1.32,0.047,0.208,9.787,-0.01,-0.01,0.0
1777316767.9363701,-2.07,0.27,1.32,0.047,0.213,9.791,-0.01,-0.01,0.0
1777316767.9463794,-2.07,0.27,1.32,0.049,0.213,9.796,0.0,-0.01,0.0
1777316767.956412,-2.07,0.28,1.32,0.037,0.232,9.8,-0.01,-0.01,-0.01
1777316767.9663644,-2.06,0.27,1.32,0.043,0.232,9.794,-0.01,-0.01,-0.01
1777316767.9763842,-2.06,0.27,1.32,0.042,0.224,9.796,0.0,0.0,-0.01
1777316767.9863544,-2.06,0.27,1.32,0.053,0.211,9.782,0.0,0.0,-0.01
1777316767.9954839,-2.07,0.28,1.32,0.049,0.206,9.787,0.0,-0.01,0.0
1777316768.0054698,-2.07,0.27,1.32,0.049,0.212,9.787,-0.01,-0.01,0.0
1777316768.016351,-2.07,0.27,1.32,0.04,0.212,9.793,0.0,0.0,0.0
1777316768.026377,-2.07,0.27,1.32,0.036,0.216,9.797,0.0,0.0,0.0
1777316768.0354593,-2.08,0.27,1.32,0.034,0.228,9.796,0.0,0.0,0.0
1777316768.0468462,-2.07,0.27,1.32,0.044,0.228,9.791,0.0,-0.01,0.0
1777316768.055573,-2.07,0.27,1.32,0.044,0.228,9.787,0.0,0.0,-0.01
1777316768.0654655,-2.07,0.27,1.32,0.061,0.212,9.785,0.0,0.0,-0.01
1777316768.0754402,-2.07,0.27,1.32,0.041,0.219,9.792,-0.01,-0.01,-0.01
1777316768.085454,-2.06,0.27,1.32,0.06,0.208,9.784,0.0,0.0,-0.01
1777316768.095797,-2.06,0.27,1.32,0.055,0.204,9.79,0.0,-0.01,-0.01
1777316768.105472,-2.05,0.27,1.32,0.055,0.213,9.779,0.0,0.0,-0.01
1777316768.1154354,-2.05,0.27,1.32,0.044,0.217,9.78,-0.01,-0.01,-0.01
1777316768.1254485,-2.05,0.27,1.32,0.038,0.225,9.788,0.0,0.0,-0.01
1777316768.1354754,-2.05,0.27,1.33,0.043,0.225,9.791,-0.01,-0.01,0.0
1777316768.1454623,-2.05,0.27,1.32,0.036,0.22,9.793,0.0,0.0,-0.01
1777316768.155437,-2.05,0.27,1.32,0.047,0.21,9.793,0.0,-0.01,0.0
1777316768.1654427,-2.06,0.27,1.32,0.047,0.214,9.796,0.0,0.0,0.0
1777316768.1754677,-2.06,0.27,1.32,0.048,0.226,9.794,-0.01,-0.01,0.0
1777316768.1854525,-2.06,0.28,1.32,0.043,0.235,9.799,-0.01,0.0,0.0
1777316768.1954257,-2.06,0.27,1.32,0.042,0.238,9.802,-0.01,-0.01,-0.01
1777316768.2054384,-2.05,0.27,1.33,0.043,0.22,9.804,-0.01,0.0,-0.01
1777316768.2154179,-2.05,0.27,1.32,0.049,0.207,9.797,0.0,0.0,-0.01
1777316768.225417,-2.05,0.27,1.32,0.047,0.205,9.794,0.0,0.0,-0.01
1777316768.2353945,-2.05,0.27,1.32,0.053,0.192,9.793,-0.01,-0.01,0.0
1777316768.2454221,-2.06,0.27,1.32,0.036,0.199,9.798,-0.01,-0.01,0.0
1777316768.2553885,-2.07,0.27,1.32,0.038,0.202,9.799,0.0,-0.01,0.0
1777316768.265411,-2.07,0.27,1.32,0.028,0.212,9.803,0.0,-0.01,0.0
1777316768.2754052,-2.07,0.27,1.32,0.036,0.225,9.804,0.0,0.0,0.0
1777316768.2853882,-2.07,0.27,1.32,0.035,0.235,9.799,0.0,-0.01,0.0
1777316768.2954004,-2.07,0.27,1.32,0.038,0.242,9.794,0.0,0.0,-0.01
1777316768.3054144,-2.06,0.27,1.32,0.031,0.234,9.796,-0.01,-0.01,-0.01
1777316768.3153868,-2.06,0.27,1.32,0.029,0.234,9.799,-0.01,-0.01,-0.01
1777316768.3253815,-2.05,0.27,1.32,0.038,0.228,9.79,0.0,-0.01,-0.01
1777316768.3353767,-2.05,0.27,1.32,0.04,0.231,9.787,0.0,0.0,-0.01
1777316768.3453808,-2.05,0.27,1.32,0.043,0.225,9.787,-0.01,-0.01,-0.01
1777316768.3553996,-2.05,0.28,1.32,0.049,0.212,9.787,-0.01,0.0,-0.01
1777316768.3653746,-2.05,0.28,1.32,0.054,0.199,9.793,0.0,-0.01,0.0
1777316768.3753843,-2.06,0.28,1.32,0.057,0.194,9.797,-0.01,0.0,0.0
1777316768.3853707,-2.07,0.28,1.32,0.055,0.188,9.8,-0.01,0.0,0.0
1777316768.3953588,-2.07,0.28,1.32,0.055,0.204,9.798,0.0,0.0,0.0
1777316768.4055169,-2.07,0.28,1.32,0.044,0.213,9.791,0.0,0.0,0.0
1777316768.4153516,-2.07,0.28,1.32,0.031,0.23,9.796,-0.01,-0.01,0.0
1777316768.4253597,-2.07,0.27,1.32,0.032,0.236,9.8,-0.01,-0.01,-0.01
1777316768.4357748,-2.06,0.27,1.32,0.029,0.226,9.803,0.0,0.0,-0.01
1777316768.4458096,-2.05,0.27,1.32,0.04,0.206,9.798,0.0,-0.01,-0.01
1777316768.4553838,-2.05,0.27,1.32,0.037,0.201,9.791,0.0,0.0,-0.01
1777316768.465379,-2.06,0.27,1.32,0.04,0.205,9.796,-0.01,-0.01,0.0
1777316768.4754121,-2.07,0.27,1.32,0.04,0.212,9.799,0.0,-0.01,0.0
1777316768.4853904,-2.07,0.28,1.32,0.042,0.223,9.803,0.0,-0.01,0.0
1777316768.4953685,-2.07,0.28,1.32,0.041,0.243,9.805,0.0,-0.01,0.0
1777316768.5053685,-2.07,0.28,1.32,0.047,0.255,9.803,-0.01,-0.01,0.0
1777316768.5153406,-2.06,0.28,1.33,0.051,0.247,9.803,0.0,0.0,-0.01
1777316768.5253916,-2.06,0.28,1.33,0.059,0.229,9.797,0.0,0.0,-0.01
1777316768.5353518,-2.05,0.28,1.32,0.053,0.225,9.794,-0.01,0.0,-0.01
1777316768.5453901,-2.05,0.28,1.32,0.057,0.211,9.791,-0.01,-0.01,-0.01
1777316768.555391,-2.06,0.28,1.32,0.044,0.211,9.796,0.0,0.0,0.0
1777316768.5653594,-2.07,0.27,1.32,0.051,0.201,9.788,0.0,-0.01,0.0
1777316768.5753407,-2.07,0.27,1.32,0.043,0.195,9.793,0.0,0.0,0.0
1777316768.585409,-2.07,0.27,1.32,0.038,0.207,9.79,0.0,-0.01,0.0
1777316768.5953465,-2.07,0.27,1.32,0.034,0.222,9.79,-0.01,0.0,0.0
1777316768.605398,-2.07,0.27,1.32,0.03,0.236,9.796,0.0,-0.01,-0.01
1777316768.6155453,-2.06,0.27,1.32,0.028,0.231,9.798,-0.01,-0.01,-0.01
1777316768.6253269,-2.05,0.27,1.32,0.03,0.219,9.802,0.0,-0.01,-0.01
1777316768.6353428,-2.05,0.27,1.32,0.032,0.212,9.804,0.0,-0.01,-0.01
1777316768.6453285,-2.05,0.27,1.32,0.04,0.213,9.799,0.0,-0.01,-0.01
1777316768.6553435,-2.05,0.28,1.32,0.044,0.211,9.802,-0.01,-0.01,-0.01
1777316768.6653466,-2.05,0.28,1.32,0.046,0.218,9.804,-0.01,-0.01,0.0
1777316768.6753273,-2.05,0.28,1.32,0.05,0.207,9.805,0.0,0.0,0.0
1777316768.6853452,-2.06,0.28,1.32,0.051,0.207,9.808,0.0,-0.01,0.0
1777316768.6953397,-2.06,0.28,1.32,0.061,0.206,9.799,0.0,0.0,0.0
1777316768.7053702,-2.07,0.28,1.32,0.06,0.211,9.8,0.0,0.0,0.0
1777316768.7153049,-2.07,0.28,1.32,0.063,0.213,9.799,0.0,0.0,0.0
1777316768.7254083,-2.07,0.28,1.32,0.049,0.224,9.802,0.0,0.0,0.0
1777316768.7353,-2.07,0.27,1.32,0.044,0.229,9.804,-0.01,-0.01,0.0
1777316768.7453427,-2.06,0.27,1.32,0.029,0.238,9.804,-0.01,0.0,-0.01
1777316768.7553852,-2.05,0.27,1.32,0.025,0.23,9.797,-0.01,-0.01,-0.01
1777316768.765461,-2.05,0.27,1.32,0.014,0.218,9.798,0.0,0.0,-0.01
1777316768.7753706,-2.05,0.27,1.32,0.023,0.207,9.799,0.0,-0.01,-0.01
1777316768.7853577,-2.05,0.27,1.32,0.031,0.206,9.803,-0.01,-0.01,0.0
1777316768.7952921,-2.06,0.27,1.32,0.037,0.217,9.803,-0.01,-0.01,0.0
1777316768.805305,-2.06,0.28,1.32,0.046,0.216,9.803,-0.01,-0.01,0.0
1777316768.815275,-2.06,0.28,1.32,0.053,0.218,9.805,0.0,-0.01,0.0
1777316768.82528,-2.06,0.28,1.32,0.053,0.229,9.805,-0.01,-0.01,0.0
1777316768.8353033,-2.06,0.28,1.32,0.053,0.226,9.796,-0.01,0.0,-0.01
1777316768.8452933,-2.06,0.28,1.32,0.051,0.225,9.797,0.0,0.0,-0.01
1777316768.8552907,-2.05,0.27,1.32,0.051,0.226,9.797,0.0,0.0,-0.01
1777316768.8652947,-2.05,0.27,1.32,0.049,0.218,9.8,0.0,0.0,-0.01
1777316768.8753083,-2.05,0.27,1.32,0.034,0.231,9.797,-0.01,0.0,-0.01
1777316768.88528,-2.05,0.27,1.32,0.029,0.223,9.794,-0.01,0.0,-0.01
1777316768.8953958,-2.05,0.26,1.32,0.023,0.212,9.799,0.0,0.0,-0.01
1777316768.9052658,-2.05,0.26,1.32,0.032,0.2,9.797,0.0,0.0,0.0
1777316768.9152558,-2.06,0.27,1.32,0.031,0.201,9.8,-0.01,-0.01,0.0
1777316768.9252625,-2.06,0.26,1.32,0.036,0.219,9.798,-0.01,-0.01,0.0
1777316768.9352443,-2.06,0.27,1.32,0.051,0.218,9.799,0.0,0.0,0.0
1777316768.9452536,-2.05,0.27,1.32,0.044,0.237,9.803,0.0,-0.01,-0.01
1777316768.9552286,-2.05,0.27,1.32,0.056,0.232,9.792,-0.01,-0.01,-0.01
1777316768.9652717,-2.04,0.27,1.32,0.047,0.235,9.797,0.0,0.0,-0.01
1777316768.975346,-2.04,0.27,1.32,0.055,0.212,9.8,0.0,0.0,-0.01
1777316768.9852793,-2.04,0.27,1.32,0.051,0.204,9.798,0.0,0.0,-0.01
1777316768.9952402,-2.04,0.27,1.32,0.046,0.205,9.799,-0.01,-0.01,0.0
1777316769.0044208,-2.05,0.27,1.32,0.048,0.211,9.794,-0.01,0.0,0.0
1777316769.015245,-2.05,0.27,1.32,0.043,0.22,9.796,0.0,-0.01,0.0
1777316769.0252588,-2.06,0.27,1.32,0.047,0.224,9.796,0.0,0.0,0.0
1777316769.0343344,-2.06,0.27,1.32,0.042,0.238,9.797,0.0,0.0,0.0
1777316769.0452974,-2.05,0.27,1.32,0.043,0.249,9.788,-0.01,-0.01,0.0
1777316769.0543246,-2.05,0.27,1.32,0.03,0.257,9.794,-0.01,-0.01,-0.01
1777316769.0643158,-2.04,0.27,1.33,0.038,0.243,9.798,-0.01,-0.01,-0.01
1777316769.0753045,-2.04,0.27,1.32,0.031,0.222,9.802,0.0,-0.01,-0.01
1777316769.084322,-2.04,0.27,1.32,0.04,0.206,9.803,-0.01,0.0,-0.01
1777316769.0952094,-2.04,0.27,1.32,0.038,0.202,9.802,-0.01,-0.01,0.0
1777316769.1043115,-2.05,0.27,1.32,0.043,0.201,9.802,-0.01,-0.01,0.0
1777316769.1152766,-2.05,0.27,1.32,0.037,0.202,9.804,-0.01,0.0,0.0
1777316769.1243289,-2.05,0.27,1.32,0.043,0.212,9.805,-0.01,-0.01,0.0
1777316769.1352177,-2.05,0.27,1.32,0.032,0.216,9.806,0.0,0.0,0.0
1777316769.1443024,-2.05,0.26,1.32,0.042,0.224,9.798,0.0,0.0,-0.01
1777316769.1543567,-2.05,0.27,1.32,0.034,0.218,9.797,0.0,0.0,-0.01
1777316769.1643093,-2.04,0.27,1.32,0.026,0.231,9.797,-0.01,-0.01,-0.01
1777316769.1743033,-2.03,0.26,1.32,0.026,0.223,9.799,-0.01,-0.01,-0.01
1777316769.1853058,-2.03,0.26,1.32,0.031,0.214,9.803,0.0,-0.01,-0.01
1777316769.1944225,-2.03,0.26,1.32,0.037,0.204,9.798,0.0,0.0,-0.01
1777316769.2043443,-2.04,0.27,1.32,0.041,0.202,9.799,0.0,0.0,0.0
1777316769.214328,-2.05,0.27,1.32,0.048,0.201,9.796,-0.01,-0.01,0.0
1777316769.2244418,-2.05,0.27,1.32,0.053,0.214,9.799,0.0,0.0,0.0
1777316769.234329,-2.06,0.27,1.32,0.056,0.226,9.803,-0.01,-0.01,0.0
1777316769.2443514,-2.06,0.27,1.32,0.046,0.229,9.805,-0.01,0.0,0.0
1777316769.2543085,-2.06,0.27,1.32,0.055,0.218,9.802,0.0,0.0,0.0
1777316769.2642834,-2.06,0.27,1.32,0.05,0.22,9.799,0.0,0.0,-0.01
1777316769.2742896,-2.05,0.26,1.32,0.051,0.223,9.794,0.0,0.0,-0.01
1777316769.2843163,-2.05,0.26,1.32,0.044,0.236,9.792,-0.01,0.0,-0.01
1777316769.2943037,-2.05,0.26,1.32,0.024,0.249,9.794,0.0,-0.01,-0.01
1777316769.3048284,-2.04,0.26,1.32,0.02,0.25,9.799,-0.01,-0.01,-0.01
1777316769.314296,-2.03,0.26,1.32,0.01,0.247,9.802,-0.01,-0.01,-0.01
1777316769.3243222,-2.02,0.26,1.32,0.026,0.226,9.794,-0.01,-0.01,-0.01
1777316769.334315,-2.02,0.26,1.32,0.038,0.213,9.796,-0.01,-0.01,-0.01
1777316769.344261,-2.03,0.27,1.32,0.055,0.207,9.798,-0.01,-0.01,0.0
1777316769.3542788,-2.04,0.27,1.32,0.06,0.21,9.798,-0.01,-0.01,0.0
1777316769.3642612,-2.04,0.28,1.32,0.066,0.226,9.802,-0.01,-0.01,0.0
1777316769.3742435,-2.04,0.28,1.32,0.057,0.232,9.804,-0.01,-0.01,0.0
1777316769.3842657,-2.03,0.28,1.32,0.066,0.238,9.799,-0.01,-0.01,-0.01
1777316769.3942428,-2.02,0.28,1.32,0.068,0.216,9.803,0.0,0.0,-0.01
1777316769.404318,-2.02,0.27,1.32,0.068,0.201,9.788,0.0,0.0,-0.01
1777316769.4142933,-2.02,0.27,1.32,0.059,0.188,9.782,0.0,0.0,-0.01
1777316769.4242496,-2.02,0.27,1.32,0.046,0.176,9.779,-0.01,0.0,-0.01
1777316769.4342673,-2.02,0.27,1.32,0.037,0.177,9.784,0.0,0.0,0.0
1777316769.4442787,-2.04,0.26,1.32,0.034,0.184,9.787,0.0,0.0,0.0
1777316769.4542305,-2.05,0.26,1.32,0.026,0.202,9.787,0.0,0.0,0.0
1777316769.4642637,-2.06,0.26,1.32,0.022,0.231,9.791,0.0,0.0,0.0
1777316769.474287,-2.07,0.26,1.32,0.025,0.249,9.79,0.0,-0.01,0.0
1777316769.4842494,-2.06,0.26,1.33,0.03,0.261,9.793,0.0,-0.01,0.0
1777316769.4942293,-2.05,0.26,1.33,0.034,0.265,9.798,-0.01,-0.01,-0.01
1777316769.5042002,-2.05,0.26,1.33,0.042,0.26,9.798,-0.01,-0.01,-0.01
1777316769.5142882,-2.04,0.27,1.33,0.042,0.261,9.799,-0.01,-0.01,-0.01
1777316769.5242481,-2.03,0.27,1.33,0.049,0.242,9.799,-0.01,-0.01,-0.01
1777316769.5342145,-2.02,0.27,1.33,0.06,0.232,9.803,-0.01,0.0,-0.01
1777316769.5442736,-2.03,0.27,1.32,0.108,0.261,9.805,-0.01,0.0,0.0
1777316769.554214,-2.04,0.28,1.33,0.143,0.313,9.806,-0.01,0.0,0.0
1777316769.564216,-2.05,0.27,1.33,0.17,0.364,9.808,-0.01,0.0,0.0
1777316769.5742064,-2.05,0.26,1.34,0.192,0.388,9.809,-0.01,0.01,0.0
1777316769.5842085,-2.04,0.25,1.33,0.188,0.384,9.798,-0.01,0.01,0.0
1777316769.5942416,-2.04,0.23,1.32,0.145,0.368,9.796,-0.02,0.01,-0.01
1777316769.6042066,-2.02,0.2,1.3,0.097,0.328,9.792,-0.02,0.01,-0.01
1777316769.6143332,-2.02,0.18,1.28,0.038,0.273,9.797,-0.02,0.01,-0.01
1777316769.6242294,-2.0,0.16,1.26,-0.013,0.204,9.782,-0.02,0.01,-0.01
1777316769.6342146,-1.99,0.15,1.24,-0.054,0.152,9.73,-0.02,0.01,-0.01
1777316769.6442137,-1.99,0.13,1.22,-0.09,0.083,9.703,-0.01,0.0,-0.01
1777316769.6542027,-1.99,0.13,1.21,-0.092,0.046,9.699,-0.01,0.0,-0.01
1777316769.6641984,-1.99,0.14,1.19,-0.09,0.017,9.729,-0.01,-0.01,-0.01
1777316769.6742074,-1.99,0.15,1.19,-0.068,0.031,9.745,0.0,-0.01,0.0
1777316769.684196,-2.01,0.16,1.19,-0.024,0.047,9.744,0.0,-0.01,0.0
1777316769.6941981,-2.02,0.18,1.2,0.026,0.091,9.743,0.0,-0.02,0.0
1777316769.7041886,-2.03,0.21,1.21,0.073,0.154,9.755,0.0,-0.02,0.0
1777316769.7141778,-2.04,0.23,1.23,0.113,0.222,9.769,0.0,-0.02,0.0
1777316769.7241707,-2.04,0.25,1.25,0.144,0.28,9.781,0.0,-0.01,0.0
1777316769.7341733,-2.04,0.25,1.28,0.174,0.332,9.788,0.0,-0.01,0.0
1777316769.744181,-2.04,0.26,1.3,0.187,0.366,9.794,0.0,0.0,-0.01
1777316769.7541807,-2.03,0.26,1.31,0.189,0.395,9.799,0.0,0.0,-0.01
1777316769.7641766,-2.02,0.25,1.32,0.168,0.41,9.803,0.0,0.0,-0.01
1777316769.7741702,-2.01,0.24,1.32,0.143,0.393,9.805,-0.01,0.0,-0.01
1777316769.7842677,-2.0,0.23,1.33,0.102,0.368,9.806,-0.01,0.0,-0.01
1777316769.7942152,-1.99,0.21,1.32,0.053,0.34,9.805,-0.01,0.0,-0.01
1777316769.804181,-1.97,0.2,1.31,0.022,0.277,9.794,-0.01,0.0,-0.01
1777316769.8142643,-1.97,0.19,1.3,-0.004,0.217,9.778,-0.01,0.0,-0.01
1777316769.824225,-1.98,0.18,1.28,-0.025,0.182,9.748,-0.01,0.0,0.0
1777316769.8342345,-2.0,0.18,1.26,-0.038,0.157,9.742,-0.01,-0.01,0.0
1777316769.844196,-2.01,0.18,1.26,-0.04,0.15,9.755,-0.01,-0.01,0.0
1777316769.8542392,-2.02,0.19,1.26,-0.038,0.162,9.769,-0.01,-0.01,0.0
1777316769.864185,-2.02,0.2,1.26,-0.006,0.162,9.778,-0.01,-0.01,0.0
1777316769.8741984,-2.02,0.21,1.26,0.029,0.168,9.782,0.0,-0.01,0.0
1777316769.8841927,-2.02,0.23,1.26,0.072,0.176,9.786,0.0,-0.01,0.0
1777316769.894188,-2.02,0.25,1.26,0.103,0.188,9.792,0.0,-0.01,-0.01
1777316769.9041984,-2.02,0.26,1.27,0.134,0.201,9.797,0.0,-0.01,-0.01
1777316769.914284,-2.02,0.27,1.28,0.153,0.223,9.8,0.0,-0.01,-0.01
1777316769.9241745,-2.02,0.27,1.28,0.16,0.236,9.804,0.0,0.0,0.0
1777316769.9341826,-2.02,0.27,1.29,0.168,0.254,9.805,0.0,0.0,0.0
1777316769.944139,-2.03,0.27,1.3,0.153,0.278,9.804,0.0,0.0,0.0
1777316769.9541454,-2.03,0.26,1.3,0.128,0.295,9.802,0.0,0.0,0.0
1777316769.964125,-2.03,0.25,1.31,0.097,0.31,9.804,0.0,0.0,0.0
1777316769.9741251,-2.02,0.24,1.32,0.051,0.326,9.805,-0.01,0.0,-0.01
1777316769.9841104,-2.01,0.23,1.32,0.017,0.322,9.804,-0.01,0.0,-0.01
1777316769.9941344,-2.0,0.22,1.32,-0.018,0.304,9.805,-0.01,0.0,-0.01
1777316770.0041015,-1.98,0.21,1.32,-0.017,0.251,9.798,-0.01,0.0,-0.02
1777316770.0141387,-1.97,0.21,1.3,-0.02,0.202,9.788,-0.01,0.0,-0.01
1777316770.024156,-1.97,0.22,1.3,-0.005,0.168,9.776,-0.01,-0.01,-0.01
1777316770.034145,-1.99,0.23,1.28,0.011,0.148,9.779,-0.01,-0.01,0.0
1777316770.044102,-2.01,0.23,1.28,0.032,0.154,9.785,-0.01,-0.01,0.01
1777316770.0542092,-2.03,0.25,1.28,0.049,0.172,9.792,-0.01,-0.01,0.01
1777316770.0641131,-2.04,0.25,1.28,0.068,0.199,9.797,-0.01,-0.01,0.01
1777316770.0741115,-2.05,0.26,1.28,0.091,0.225,9.8,0.0,-0.01,0.01
1777316770.0841053,-2.06,0.27,1.29,0.105,0.262,9.803,0.0,-0.01,0.0
1777316770.0941787,-2.05,0.27,1.3,0.114,0.274,9.805,0.0,-0.01,-0.01
1777316770.1041162,-2.04,0.27,1.3,0.103,0.292,9.806,0.0,0.0,-0.01
1777316770.1131985,-2.02,0.27,1.31,0.084,0.302,9.808,0.0,0.0,-0.02
1777316770.1241581,-1.99,0.26,1.32,0.065,0.298,9.808,0.0,0.0,-0.02
1777316770.1332395,-1.98,0.25,1.32,0.061,0.259,9.809,0.0,0.0,-0.02
1777316770.14412,-1.96,0.25,1.32,0.056,0.217,9.793,0.0,0.0,-0.02
1777316770.153264,-1.96,0.25,1.31,0.051,0.187,9.782,0.0,0.0,-0.01
1777316770.1641324,-1.98,0.25,1.3,0.049,0.182,9.784,-0.01,0.0,0.0
1777316770.1733446,-2.0,0.25,1.3,0.043,0.184,9.791,-0.01,-0.01,0.01
1777316770.184167,-2.02,0.25,1.3,0.037,0.199,9.796,-0.01,0.0,0.01
1777316770.1931996,-2.04,0.25,1.3,0.034,0.228,9.799,-0.01,-0.01,0.01
1777316770.2032158,-2.05,0.25,1.31,0.031,0.254,9.803,-0.01,-0.01,0.01
1777316770.2140975,-2.05,0.25,1.31,0.037,0.281,9.802,0.0,-0.01,0.0
1777316770.2231727,-2.05,0.25,1.32,0.044,0.296,9.804,0.0,-0.01,0.0
1777316770.2331915,-2.03,0.26,1.32,0.042,0.31,9.806,-0.01,-0.01,-0.01
1777316770.2433717,-2.0,0.26,1.32,0.047,0.31,9.808,-0.01,-0.01,-0.02
1777316770.2532818,-1.98,0.26,1.33,0.049,0.286,9.809,-0.01,-0.01,-0.02
1777316770.2631805,-1.96,0.26,1.33,0.056,0.238,9.808,0.0,-0.01,-0.02
1777316770.2732468,-1.95,0.27,1.32,0.071,0.193,9.8,0.0,0.0,-0.02
1777316770.2831657,-1.95,0.27,1.31,0.079,0.163,9.791,-0.01,-0.01,-0.01
1777316770.2932353,-1.97,0.27,1.3,0.079,0.156,9.791,-0.01,0.0,0.0
1777316770.303176,-2.0,0.27,1.3,0.075,0.16,9.796,-0.01,-0.01,0.01
1777316770.313167,-2.02,0.27,1.3,0.073,0.189,9.8,0.0,-0.01,0.01
1777316770.3235202,-2.04,0.28,1.31,0.063,0.222,9.802,0.0,-0.01,0.01
1777316770.3331733,-2.05,0.28,1.32,0.055,0.259,9.791,0.0,0.0,0.01
1777316770.3431585,-2.05,0.28,1.32,0.05,0.271,9.792,0.0,0.0,0.0
1777316770.3531635,-2.05,0.27,1.33,0.041,0.28,9.797,0.0,0.0,-0.01
1777316770.3631613,-2.03,0.27,1.33,0.04,0.281,9.799,0.0,-0.01,-0.01
1777316770.3731446,-2.01,0.27,1.34,0.029,0.287,9.803,0.0,0.0,-0.02
1777316770.3833215,-1.99,0.27,1.35,0.02,0.285,9.805,0.0,-0.01,-0.02
1777316770.393308,-1.98,0.27,1.35,0.025,0.266,9.806,0.0,0.0,-0.02
1777316770.4031568,-1.96,0.27,1.35,0.026,0.247,9.806,0.0,-0.01,-0.02
1777316770.4131415,-1.95,0.27,1.34,0.041,0.219,9.805,-0.01,-0.01,-0.01
1777316770.4231231,-1.96,0.27,1.33,0.05,0.196,9.806,-0.01,-0.01,-0.01
1777316770.433184,-1.98,0.27,1.33,0.063,0.187,9.797,-0.01,-0.01,0.0
1777316770.4431446,-2.0,0.28,1.32,0.069,0.193,9.799,-0.01,-0.01,0.01
1777316770.4531233,-2.02,0.28,1.32,0.081,0.207,9.802,-0.01,-0.01,0.01
1777316770.4631295,-2.04,0.29,1.32,0.077,0.226,9.804,-0.01,-0.01,0.01
1777316770.473157,-2.05,0.28,1.32,0.073,0.245,9.806,-0.01,0.0,0.01
1777316770.4831817,-2.05,0.28,1.33,0.073,0.254,9.804,0.0,0.0,0.0
1777316770.4931135,-2.04,0.28,1.33,0.066,0.265,9.802,0.0,0.0,-0.01
1777316770.5032606,-2.03,0.28,1.34,0.056,0.255,9.792,0.0,0.0,-0.01
1777316770.513102,-2.01,0.28,1.34,0.04,0.256,9.793,0.0,0.0,-0.01
1777316770.5236394,-2.0,0.28,1.34,0.036,0.245,9.798,0.0,0.0,-0.02
1777316770.533684,-1.98,0.27,1.34,0.024,0.223,9.802,0.0,-0.01,-0.02
1777316770.5436354,-1.98,0.27,1.34,0.036,0.193,9.804,0.0,0.0,-0.01
1777316770.553147,-1.98,0.27,1.33,0.044,0.172,9.799,0.0,-0.01,-0.01
1777316770.563121,-1.99,0.28,1.33,0.053,0.174,9.794,0.0,-0.01,0.0
1777316770.5730627,-2.01,0.28,1.33,0.051,0.194,9.799,-0.01,-0.01,0.0
1777316770.58315,-2.02,0.29,1.33,0.065,0.208,9.803,0.0,-0.01,0.01
1777316770.5931075,-2.04,0.29,1.33,0.067,0.234,9.805,0.0,-0.01,0.01
1777316770.6030962,-2.05,0.29,1.34,0.065,0.271,9.806,0.0,-0.01,0.0
1777316770.6130943,-2.05,0.29,1.34,0.062,0.286,9.804,-0.01,-0.01,0.0
1777316770.623109,-2.03,0.29,1.35,0.053,0.299,9.806,0.0,0.0,-0.01
1777316770.63309,-2.01,0.29,1.35,0.046,0.292,9.808,-0.01,0.0,-0.01
1777316770.6431038,-1.99,0.28,1.35,0.036,0.277,9.809,-0.01,0.0,-0.02
1777316770.653172,-1.98,0.28,1.35,0.049,0.242,9.809,-0.01,0.0,-0.02
1777316770.663251,-1.97,0.28,1.35,0.046,0.204,9.806,0.0,0.0,-0.01
1777316770.6731362,-1.98,0.28,1.34,0.056,0.175,9.792,0.0,0.0,-0.01
1777316770.683095,-1.99,0.28,1.33,0.055,0.165,9.792,-0.01,-0.01,0.0
1777316770.6930907,-2.01,0.29,1.32,0.049,0.18,9.796,-0.01,-0.01,0.01
1777316770.703151,-2.03,0.29,1.33,0.053,0.2,9.8,-0.01,-0.01,0.01
1777316770.713074,-2.05,0.29,1.33,0.044,0.232,9.803,0.0,-0.01,0.01
1777316770.7230842,-2.05,0.29,1.34,0.049,0.267,9.797,0.0,0.0,0.0
1777316770.733123,-2.04,0.29,1.34,0.043,0.286,9.798,0.0,-0.01,-0.01
1777316770.7430406,-2.02,0.29,1.35,0.042,0.295,9.802,0.0,-0.01,-0.01
1777316770.7530599,-2.0,0.29,1.36,0.05,0.273,9.804,0.0,0.0,-0.02
1777316770.7631443,-1.98,0.29,1.35,0.055,0.232,9.8,0.0,0.0,-0.02
1777316770.773041,-1.98,0.29,1.35,0.068,0.207,9.785,0.0,0.0,-0.01
1777316770.7913203,-1.98,0.29,1.35,0.065,0.2,9.785,-0.01,0.0,-0.01
1777316770.7930846,-1.99,0.29,1.35,0.075,0.19,9.776,-0.01,-0.01,0.0
1777316770.803143,-2.0,0.3,1.34,0.053,0.217,9.786,-0.01,-0.01,0.0
1777316770.8130574,-2.02,0.3,1.34,0.061,0.232,9.792,-0.01,-0.01,0.01
1777316770.8230267,-2.02,0.3,1.34,0.04,0.263,9.796,-0.01,0.0,0.0
1777316770.8330266,-2.02,0.29,1.35,0.055,0.271,9.775,0.0,0.0,0.0
1777316770.8430586,-2.02,0.29,1.35,0.046,0.272,9.782,0.0,0.0,-0.01
1777316770.8530314,-2.02,0.29,1.35,0.053,0.245,9.785,-0.01,0.0,-0.01
1777316770.8630111,-2.0,0.29,1.35,0.04,0.242,9.792,-0.01,-0.01,-0.01
1777316770.873032,-2.0,0.29,1.35,0.051,0.228,9.79,-0.01,-0.01,-0.01
1777316770.8830297,-1.99,0.29,1.35,0.037,0.217,9.793,0.0,-0.01,-0.01
1777316770.8930013,-1.99,0.29,1.35,0.048,0.204,9.793,-0.01,-0.01,-0.01
1777316770.9029965,-1.99,0.3,1.35,0.043,0.19,9.798,-0.01,-0.01,-0.01
1777316770.9130156,-2.0,0.3,1.34,0.056,0.193,9.802,0.0,-0.01,0.0
1777316770.922998,-2.01,0.3,1.34,0.055,0.196,9.802,-0.01,-0.01,0.0
1777316770.9330359,-2.02,0.3,1.34,0.062,0.207,9.797,0.0,-0.01,0.0
1777316770.9430816,-2.02,0.3,1.34,0.062,0.223,9.8,0.0,0.0,0.0
1777316770.9530237,-2.02,0.3,1.34,0.06,0.245,9.804,0.0,-0.01,0.0
1777316770.963034,-2.02,0.3,1.35,0.055,0.262,9.805,0.0,0.0,-0.01
1777316770.973068,-2.01,0.3,1.35,0.037,0.275,9.808,0.0,0.0,-0.01
1777316770.983035,-2.0,0.29,1.36,0.035,0.26,9.808,0.0,-0.01,-0.01
1777316770.9930465,-1.98,0.29,1.36,0.04,0.23,9.808,0.0,0.0,-0.01
1777316771.003011,-1.98,0.29,1.35,0.046,0.204,9.796,0.0,-0.01,-0.01
1777316771.0130208,-1.98,0.3,1.35,0.046,0.202,9.79,-0.01,0.0,-0.01
1777316771.023449,-2.0,0.3,1.34,0.056,0.198,9.782,-0.01,-0.01,0.0
1777316771.0330367,-2.0,0.3,1.34,0.049,0.216,9.786,-0.01,-0.01,0.0
1777316771.0433016,-2.02,0.3,1.34,0.054,0.224,9.793,-0.01,-0.01,0.0
1777316771.0530136,-2.02,0.3,1.34,0.047,0.242,9.798,-0.01,0.0,0.0
1777316771.0630195,-2.02,0.3,1.35,0.057,0.242,9.787,0.0,-0.01,0.0
1777316771.07302,-2.02,0.3,1.35,0.054,0.24,9.792,0.0,0.0,-0.01
1777316771.0829997,-2.01,0.3,1.35,0.057,0.236,9.79,-0.01,-0.01,-0.01
1777316771.0930152,-2.0,0.3,1.35,0.056,0.231,9.791,-0.01,-0.01,-0.01
1777316771.1020834,-2.0,0.3,1.35,0.047,0.229,9.797,-0.01,0.0,-0.01
1777316771.1130931,-2.0,0.3,1.34,0.038,0.23,9.797,-0.01,0.0,-0.01
1777316771.1230154,-1.99,0.29,1.35,0.035,0.211,9.798,0.0,-0.01,-0.01
1777316771.1329885,-1.99,0.3,1.35,0.042,0.195,9.802,0.0,0.0,-0.01
1777316771.1430318,-1.99,0.3,1.35,0.055,0.194,9.804,0.0,-0.01,-0.01
1777316771.1520898,-2.0,0.3,1.34,0.053,0.199,9.805,-0.01,-0.01,0.0
1777316771.1629825,-2.01,0.3,1.34,0.057,0.206,9.806,-0.01,-0.01,0.0
1777316771.1720715,-2.02,0.3,1.34,0.06,0.213,9.808,0.0,-0.01,0.0
1777316771.1821036,-2.02,0.3,1.34,0.061,0.232,9.809,0.0,-0.01,0.0
1777316771.1929636,-2.02,0.3,1.35,0.069,0.243,9.809,0.0,-0.01,0.0
1777316771.2022521,-2.02,0.3,1.35,0.065,0.265,9.809,0.0,0.0,-0.01
1777316771.2129672,-2.01,0.3,1.36,0.061,0.267,9.81,0.0,0.0,-0.01
1777316771.2220871,-2.0,0.3,1.36,0.059,0.268,9.805,-0.01,-0.01,-0.01
1777316771.2320526,-1.98,0.3,1.36,0.042,0.251,9.805,-0.01,-0.01,-0.01
1777316771.242959,-1.98,0.3,1.36,0.049,0.225,9.806,0.0,0.0,-0.01
1777316771.2521706,-1.98,0.3,1.35,0.044,0.199,9.808,0.0,0.0,-0.01
1777316771.262992,-1.98,0.3,1.34,0.055,0.183,9.793,-0.01,-0.01,0.0
1777316771.2720497,-2.0,0.3,1.34,0.055,0.19,9.798,-0.01,-0.01,0.0
1777316771.2820637,-2.01,0.3,1.34,0.056,0.216,9.802,-0.01,-0.01,0.01
1777316771.2930055,-2.02,0.3,1.34,0.059,0.229,9.802,-0.01,-0.01,0.01
1777316771.302074,-2.02,0.31,1.35,0.05,0.263,9.804,0.0,-0.01,0.0
1777316771.3120625,-2.02,0.3,1.36,0.06,0.267,9.805,-0.01,-0.01,0.0
1777316771.3220532,-2.01,0.31,1.36,0.044,0.272,9.806,0.0,0.0,-0.01
1777316771.332049,-2.0,0.3,1.36,0.059,0.247,9.784,0.0,-0.01,-0.01
1777316771.3420632,-1.98,0.3,1.36,0.046,0.232,9.79,0.0,0.0,-0.01
1777316771.3520565,-1.98,0.3,1.36,0.062,0.199,9.787,0.0,-0.01,-0.01
1777316771.3620408,-1.98,0.31,1.35,0.048,0.2,9.792,0.0,0.0,-0.01
1777316771.3720613,-1.98,0.3,1.35,0.059,0.199,9.788,-0.01,-0.01,0.0
1777316771.3821068,-2.0,0.31,1.35,0.048,0.206,9.794,0.0,0.0,0.0
1777316771.392059,-2.0,0.3,1.35,0.061,0.222,9.799,0.0,-0.01,0.0
1777316771.402085,-2.01,0.31,1.35,0.046,0.248,9.803,-0.01,0.0,0.0
1777316771.412043,-2.01,0.31,1.36,0.041,0.275,9.805,-0.01,-0.01,0.0
1777316771.4220734,-2.0,0.3,1.36,0.047,0.268,9.805,-0.01,-0.01,-0.01
1777316771.4320436,-2.0,0.3,1.36,0.046,0.248,9.806,0.0,0.0,-0.01
1777316771.442124,-1.99,0.3,1.36,0.055,0.231,9.803,-0.01,0.0,-0.01
1777316771.4520297,-1.99,0.31,1.36,0.054,0.217,9.805,-0.01,0.0,-0.01
1777316771.4620287,-1.99,0.31,1.35,0.055,0.21,9.804,-0.01,0.0,-0.01
1777316771.471995,-2.0,0.31,1.35,0.051,0.204,9.802,0.0,0.0,0.0
1777316771.4820137,-2.0,0.31,1.35,0.048,0.223,9.802,0.0,-0.01,0.0
1777316771.49198,-2.0,0.31,1.35,0.047,0.237,9.8,-0.01,-0.01,0.0
1777316771.5020137,-2.0,0.3,1.36,0.038,0.256,9.804,-0.01,-0.01,0.0
1777316771.5120547,-2.0,0.3,1.36,0.044,0.244,9.804,0.0,0.0,-0.01
1777316771.5223937,-2.0,0.3,1.36,0.044,0.231,9.805,0.0,0.0,-0.01
1777316771.5320456,-1.99,0.3,1.36,0.054,0.22,9.804,0.0,0.0,-0.01
1777316771.542006,-1.99,0.3,1.36,0.047,0.213,9.806,-0.01,0.0,-0.01
1777316771.5520356,-1.99,0.3,1.36,0.051,0.211,9.808,-0.01,-0.01,0.0
1777316771.5620196,-2.0,0.3,1.36,0.055,0.206,9.809,0.0,0.0,0.0
1777316771.5719907,-2.0,0.31,1.36,0.053,0.217,9.809,0.0,-0.01,0.0
1777316771.581981,-2.01,0.31,1.36,0.051,0.229,9.808,-0.01,-0.01,0.0
1777316771.5919952,-2.01,0.3,1.36,0.051,0.255,9.804,-0.01,-0.01,0.0
1777316771.602023,-2.01,0.3,1.37,0.061,0.249,9.805,0.0,0.0,0.0
1777316771.61198,-2.0,0.3,1.37,0.049,0.255,9.808,-0.01,-0.01,-0.01
1777316771.6222298,-2.0,0.3,1.36,0.053,0.249,9.808,-0.01,0.0,-0.01
1777316771.6319966,-1.99,0.3,1.37,0.047,0.232,9.809,-0.01,0.0,-0.01
1777316771.6419804,-1.99,0.3,1.36,0.055,0.208,9.797,0.0,0.0,-0.01
1777316771.651971,-1.99,0.3,1.36,0.05,0.199,9.798,0.0,0.0,-0.01
1777316771.6619766,-2.0,0.3,1.35,0.054,0.208,9.8,-0.01,-0.01,0.0
1777316771.671969,-2.0,0.31,1.35,0.049,0.223,9.804,-0.01,-0.01,0.0
1777316771.68198,-2.0,0.3,1.36,0.048,0.231,9.804,-0.01,-0.01,0.0
1777316771.692019,-2.0,0.31,1.36,0.043,0.228,9.805,0.0,0.0,0.0
1777316771.701975,-2.0,0.3,1.36,0.05,0.224,9.803,0.0,-0.01,0.0
1777316771.711941,-2.0,0.31,1.36,0.051,0.219,9.798,-0.01,0.0,-0.01
1777316771.7219858,-2.0,0.31,1.36,0.053,0.219,9.798,-0.01,-0.01,-0.01
1777316771.7321033,-2.0,0.31,1.36,0.054,0.219,9.802,0.0,0.0,-0.01
1777316771.7419713,-2.0,0.31,1.36,0.051,0.226,9.804,0.0,0.0,-0.01
1777316771.7521462,-2.0,0.31,1.36,0.043,0.238,9.803,-0.01,-0.01,-0.01
1777316771.7620733,-1.99,0.31,1.36,0.042,0.253,9.802,0.0,-0.01,-0.01
1777316771.7719822,-1.98,0.3,1.37,0.047,0.237,9.797,-0.01,-0.01,-0.01
1777316771.7820055,-1.98,0.31,1.36,0.044,0.222,9.799,0.0,0.0,-0.01
1777316771.7920523,-1.98,0.31,1.36,0.056,0.208,9.799,-0.01,-0.01,-0.01
1777316771.8019474,-1.99,0.31,1.35,0.053,0.204,9.802,-0.01,-0.01,0.0
1777316771.8119576,-2.0,0.31,1.35,0.056,0.205,9.8,-0.01,-0.01,0.0
1777316771.82196,-2.0,0.31,1.35,0.062,0.208,9.803,-0.01,-0.01,0.0
1777316771.8320403,-2.02,0.31,1.35,0.061,0.214,9.805,0.0,-0.01,0.0
1777316771.8419409,-2.02,0.31,1.35,0.053,0.235,9.806,-0.01,0.0,0.0
1777316771.8519342,-2.02,0.31,1.36,0.049,0.257,9.8,0.0,0.0,0.0
1777316771.8619585,-2.0,0.31,1.36,0.036,0.267,9.802,0.0,0.0,-0.01
1777316771.8719227,-1.99,0.31,1.37,0.026,0.269,9.804,-0.01,0.0,-0.01
1777316771.8819277,-1.98,0.3,1.37,0.04,0.244,9.803,-0.01,-0.01,-0.02
1777316771.8919766,-1.97,0.3,1.36,0.044,0.219,9.802,0.0,0.0,-0.01
1777316771.9019108,-1.97,0.31,1.36,0.057,0.187,9.786,0.0,-0.01,-0.01
1777316771.9120238,-1.98,0.31,1.35,0.057,0.178,9.78,0.0,0.0,0.0
1777316771.921918,-1.99,0.31,1.35,0.055,0.192,9.788,-0.01,-0.01,0.0
1777316771.9319124,-2.0,0.32,1.35,0.055,0.21,9.794,-0.01,-0.01,0.01
1777316771.9419122,-2.01,0.32,1.35,0.047,0.242,9.798,0.0,-0.01,0.0
1777316771.9520059,-2.02,0.31,1.36,0.044,0.268,9.802,-0.01,-0.01,0.0
1777316771.9618738,-2.01,0.31,1.37,0.04,0.28,9.804,0.0,0.0,-0.01
1777316771.9718978,-2.0,0.31,1.37,0.043,0.268,9.803,0.0,0.0,-0.01
1777316771.98192,-1.98,0.31,1.37,0.042,0.255,9.805,-0.01,0.0,-0.01
1777316771.9919353,-1.97,0.31,1.37,0.038,0.23,9.804,-0.01,0.0,-0.01
1777316772.001909,-1.97,0.3,1.36,0.044,0.204,9.805,0.0,-0.01,-0.01
1777316772.0122585,-1.98,0.31,1.36,0.049,0.188,9.792,0.0,0.0,-0.01
1777316772.022064,-1.98,0.31,1.35,0.047,0.196,9.79,-0.01,-0.01,0.0
1777316772.0320032,-2.0,0.31,1.35,0.054,0.207,9.786,-0.01,0.0,0.0
1777316772.0419219,-2.0,0.31,1.35,0.032,0.236,9.792,0.0,-0.01,0.0
1777316772.051921,-2.01,0.3,1.36,0.036,0.251,9.797,-0.01,-0.01,0.0
1777316772.0618863,-2.0,0.31,1.37,0.031,0.26,9.802,0.0,0.0,0.0
1777316772.0719233,-2.0,0.3,1.37,0.044,0.261,9.799,0.0,-0.01,-0.01
1777316772.081893,-1.99,0.31,1.37,0.046,0.257,9.799,0.0,0.0,-0.01
1777316772.0918746,-1.99,0.3,1.37,0.049,0.256,9.803,0.0,-0.01,-0.01
1777316772.101894,-1.98,0.31,1.37,0.042,0.243,9.805,0.0,0.0,-0.01
1777316772.1118739,-1.98,0.3,1.37,0.031,0.251,9.806,0.0,-0.01,-0.01
1777316772.1218586,-1.98,0.3,1.37,0.04,0.235,9.806,-0.01,0.0,-0.01
1777316772.1318705,-1.98,0.3,1.37,0.044,0.22,9.798,0.0,0.0,0.0
1777316772.1419435,-1.99,0.3,1.37,0.059,0.21,9.779,0.0,0.0,0.0
1777316772.151867,-2.0,0.3,1.37,0.054,0.214,9.786,-0.01,0.0,0.0
1777316772.1619017,-2.0,0.31,1.37,0.054,0.229,9.792,-0.01,-0.01,0.0
1777316772.17187,-2.0,0.3,1.37,0.051,0.24,9.797,-0.01,-0.01,0.0
1777316772.1818767,-2.0,0.3,1.37,0.048,0.256,9.8,0.0,0.0,0.0
1777316772.1919775,-2.0,0.3,1.37,0.047,0.257,9.804,-0.01,-0.01,-0.01
1777316772.2011812,-1.98,0.3,1.37,0.036,0.266,9.805,-0.01,0.0,-0.01
1777316772.2118611,-1.97,0.3,1.37,0.038,0.235,9.806,0.0,-0.01,-0.01
1777316772.2209942,-1.96,0.3,1.37,0.04,0.208,9.808,0.0,0.0,-0.01
1777316772.2318487,-1.97,0.3,1.37,0.053,0.183,9.806,0.0,-0.01,-0.01
1777316772.2418208,-1.98,0.3,1.36,0.051,0.18,9.797,-0.01,-0.01,0.0
1777316772.251855,-1.99,0.31,1.36,0.06,0.181,9.797,0.0,-0.01,0.0
1777316772.2616284,-2.0,0.31,1.36,0.054,0.195,9.798,0.0,-0.01,0.01
1777316772.2719414,-2.01,0.31,1.36,0.062,0.216,9.802,0.0,0.0,0.0
1777316772.2818666,-2.02,0.31,1.36,0.057,0.24,9.804,-0.01,0.0,0.0
1777316772.2910275,-2.02,0.31,1.37,0.057,0.254,9.798,0.0,0.0,0.0
1777316772.3013437,-2.0,0.3,1.37,0.047,0.259,9.802,0.0,0.0,-0.01
1777316772.3119667,-2.0,0.3,1.37,0.047,0.257,9.794,0.0,0.0,-0.01
1777316772.3218486,-1.98,0.3,1.37,0.034,0.245,9.797,-0.01,-0.01,-0.01
1777316772.331021,-1.98,0.3,1.37,0.025,0.25,9.8,0.0,-0.01,-0.01
1777316772.3410356,-1.97,0.3,1.37,0.032,0.22,9.794,0.0,0.0,-0.01
1777316772.3510265,-1.97,0.3,1.37,0.03,0.21,9.796,0.0,0.0,-0.01
1777316772.3610215,-1.98,0.3,1.37,0.043,0.202,9.794,-0.01,-0.01,0.0
1777316772.3710167,-1.99,0.3,1.37,0.038,0.217,9.799,-0.01,-0.01,0.0
1777316772.3818443,-2.0,0.3,1.37,0.054,0.223,9.802,-0.01,-0.01,0.0
1777316772.3911169,-2.01,0.3,1.37,0.053,0.23,9.804,0.0,-0.01,0.0
1777316772.4010355,-2.01,0.3,1.37,0.062,0.238,9.806,0.0,-0.01,0.0
1777316772.4110093,-2.01,0.3,1.37,0.06,0.25,9.806,-0.01,0.0,0.0
1777316772.421001,-2.0,0.3,1.37,0.056,0.262,9.797,0.0,0.0,-0.01
1777316772.4309857,-1.99,0.3,1.37,0.054,0.251,9.8,0.0,0.0,-0.01
1777316772.4409688,-1.98,0.3,1.37,0.046,0.248,9.804,-0.01,0.0,-0.01
1777316772.450952,-1.96,0.3,1.37,0.046,0.222,9.805,0.0,-0.01,-0.02
1777316772.4609869,-1.95,0.3,1.37,0.046,0.192,9.806,0.0,0.0,-0.01
1777316772.470935,-1.96,0.3,1.36,0.053,0.169,9.796,0.0,0.0,-0.01
1777316772.4809935,-1.98,0.3,1.35,0.048,0.171,9.797,-0.01,-0.01,0.0
1777316772.4909625,-1.99,0.3,1.35,0.054,0.18,9.791,-0.01,-0.01,0.0
1777316772.500954,-2.0,0.3,1.35,0.049,0.213,9.796,0.0,-0.01,0.0
1777316772.5109847,-2.01,0.3,1.36,0.05,0.235,9.794,0.0,-0.01,0.0
1777316772.5209968,-2.01,0.3,1.37,0.046,0.254,9.799,0.0,0.0,0.0
1777316772.531287,-2.0,0.3,1.37,0.055,0.251,9.802,0.0,0.0,-0.01
1777316772.5413136,-2.0,0.3,1.37,0.055,0.245,9.804,0.0,0.0,-0.01
1777316772.5509458,-1.99,0.3,1.37,0.05,0.243,9.805,0.0,0.0,-0.01
1777316772.5611424,-1.98,0.3,1.37,0.046,0.245,9.808,0.0,0.0,-0.01
1777316772.5709722,-1.98,0.3,1.37,0.034,0.238,9.808,0.0,-0.01,-0.01
1777316772.581,-1.97,0.3,1.37,0.03,0.235,9.809,-0.01,-0.01,-0.01
1777316772.5913866,-1.96,0.3,1.37,0.035,0.22,9.809,-0.01,-0.01,-0.01
1777316772.6009367,-1.96,0.3,1.37,0.038,0.206,9.81,0.0,0.0,-0.01
1777316772.6109476,-1.97,0.3,1.36,0.044,0.199,9.804,-0.01,-0.01,0.0
1777316772.6209366,-1.98,0.3,1.36,0.048,0.2,9.802,-0.01,-0.01,0.0
1777316772.6309476,-1.99,0.3,1.36,0.061,0.2,9.804,-0.01,-0.01,0.0
1777316772.6411102,-2.0,0.3,1.36,0.061,0.218,9.8,-0.01,0.0,0.0
1777316772.6509576,-2.0,0.3,1.36,0.066,0.243,9.804,0.0,-0.01,0.0
1777316772.660957,-2.0,0.31,1.36,0.057,0.26,9.805,0.0,0.0,0.0
1777316772.6709216,-1.99,0.3,1.37,0.057,0.267,9.808,-0.01,0.0,-0.01
1777316772.6809351,-1.98,0.3,1.37,0.059,0.249,9.808,0.0,0.0,-0.01
1777316772.6909013,-1.97,0.3,1.37,0.065,0.226,9.8,0.0,0.0,-0.01
1777316772.700933,-1.97,0.3,1.37,0.06,0.206,9.797,0.0,0.0,-0.01
1777316772.7109425,-1.98,0.3,1.37,0.053,0.207,9.8,0.0,-0.01,-0.01
1777316772.720925,-1.98,0.3,1.37,0.051,0.218,9.797,0.0,0.0,0.0
1777316772.7308753,-1.99,0.3,1.37,0.044,0.229,9.8,0.0,-0.01,0.0
1777316772.740914,-1.99,0.3,1.37,0.028,0.255,9.804,-0.01,-0.01,0.0
1777316772.7508886,-1.99,0.3,1.37,0.025,0.271,9.805,-0.01,-0.01,0.0
1777316772.7609198,-1.98,0.3,1.37,0.025,0.268,9.808,0.0,-0.01,-0.01
1777316772.7718887,-1.98,0.3,1.37,0.044,0.247,9.805,0.0,-0.01,-0.01
1777316772.7810576,-1.98,0.3,1.37,0.054,0.232,9.805,-0.01,-0.01,-0.01
1777316772.7909977,-1.98,0.3,1.37,0.056,0.226,9.806,-0.01,-0.01,-0.01
1777316772.8010743,-1.98,0.3,1.37,0.06,0.214,9.808,-0.01,0.0,0.0
1777316772.8109794,-1.98,0.31,1.37,0.048,0.229,9.809,0.0,0.0,0.0
1777316772.8209076,-1.99,0.3,1.37,0.067,0.24,9.803,-0.01,0.0,0.0
1777316772.8309686,-1.98,0.31,1.37,0.041,0.249,9.805,0.0,0.0,0.0
1777316772.8410084,-1.98,0.3,1.37,0.055,0.235,9.788,-0.01,-0.01,-0.01
1777316772.8508594,-1.98,0.3,1.37,0.026,0.23,9.794,0.0,0.0,-0.01
1777316772.860888,-1.98,0.3,1.37,0.053,0.208,9.794,0.0,-0.01,-0.01
1777316772.8708632,-1.98,0.3,1.37,0.04,0.202,9.797,0.0,0.0,-0.01
1777316772.8808756,-1.98,0.3,1.37,0.044,0.196,9.791,-0.01,-0.01,0.0
1777316772.8908482,-1.98,0.3,1.37,0.041,0.206,9.797,0.0,0.0,0.0
1777316772.9010928,-1.98,0.3,1.37,0.043,0.211,9.798,0.0,-0.01,0.0
1777316772.9108577,-1.99,0.3,1.37,0.043,0.23,9.8,-0.01,-0.01,0.0
1777316772.9208694,-1.99,0.3,1.37,0.036,0.242,9.803,-0.01,-0.01,0.0
1777316772.9307883,-1.99,0.3,1.37,0.046,0.241,9.803,0.0,0.0,0.0
1777316772.9407961,-1.99,0.3,1.37,0.049,0.238,9.805,0.0,-0.01,-0.01
1777316772.95078,-1.98,0.3,1.37,0.055,0.226,9.803,-0.01,0.0,-0.01
1777316772.9607873,-1.98,0.3,1.37,0.056,0.23,9.802,-0.01,-0.01,-0.01
1777316772.9707947,-1.98,0.3,1.37,0.054,0.228,9.797,-0.01,0.0,-0.01
1777316772.9807706,-1.98,0.3,1.37,0.051,0.237,9.8,0.0,0.0,0.0
1777316772.9907901,-1.98,0.3,1.37,0.043,0.236,9.794,-0.01,0.0,0.0
1777316773.0007875,-1.98,0.3,1.37,0.034,0.251,9.799,-0.01,-0.01,-0.01
1777316773.010762,-1.98,0.3,1.37,0.044,0.237,9.803,-0.01,-0.01,-0.01
1777316773.020837,-1.98,0.3,1.37,0.043,0.218,9.797,0.0,0.0,-0.01
1777316773.0308404,-1.98,0.3,1.37,0.05,0.214,9.791,-0.01,-0.01,-0.01
1777316773.040872,-1.98,0.3,1.36,0.047,0.214,9.796,-0.01,-0.01,-0.01
1777316773.0509486,-1.98,0.3,1.36,0.044,0.228,9.793,-0.01,-0.01,-0.01
1777316773.06107,-1.98,0.3,1.37,0.054,0.218,9.798,0.0,-0.01,-0.01
1777316773.0708385,-1.98,0.3,1.36,0.059,0.2,9.802,0.0,-0.01,0.0
1777316773.0808766,-1.98,0.31,1.36,0.06,0.206,9.8,-0.01,0.0,0.0
1777316773.090841,-1.98,0.31,1.36,0.055,0.229,9.803,-0.01,-0.01,0.0
1777316773.1007996,-1.98,0.31,1.36,0.049,0.243,9.804,0.0,0.0,0.0
1777316773.110819,-1.98,0.3,1.37,0.05,0.238,9.806,0.0,0.0,-0.01
1777316773.1207893,-1.97,0.3,1.37,0.047,0.237,9.808,0.0,0.0,-0.01
1777316773.130816,-1.97,0.3,1.37,0.053,0.224,9.806,0.0,0.0,-0.01
1777316773.140776,-1.97,0.3,1.37,0.053,0.219,9.802,0.0,0.0,-0.01
1777316773.150883,-1.98,0.3,1.37,0.056,0.213,9.804,0.0,-0.01,0.0
1777316773.1608374,-1.98,0.3,1.37,0.055,0.216,9.805,0.0,0.0,0.0
1777316773.170877,-1.99,0.3,1.37,0.048,0.223,9.806,-0.01,-0.01,0.0
1777316773.1808221,-2.0,0.3,1.37,0.043,0.241,9.808,0.0,0.0,0.0
1777316773.1907303,-2.0,0.3,1.37,0.04,0.25,9.806,0.0,0.0,0.0
1777316773.2007415,-2.0,0.3,1.37,0.043,0.271,9.794,0.0,0.0,-0.01
1777316773.210749,-1.98,0.3,1.38,0.034,0.286,9.799,-0.01,-0.01,-0.01
1777316773.219927,-1.97,0.3,1.38,0.028,0.286,9.803,-0.01,-0.01,-0.01
1777316773.2307715,-1.95,0.3,1.38,0.026,0.263,9.805,-0.01,-0.01,-0.02
1777316773.2407348,-1.95,0.3,1.38,0.044,0.228,9.794,0.0,0.0,-0.02
1777316773.25076,-1.95,0.3,1.37,0.05,0.192,9.79,0.0,-0.01,-0.01
1777316773.2607298,-1.95,0.3,1.37,0.061,0.177,9.779,-0.01,-0.01,0.0
1777316773.2699008,-1.97,0.31,1.36,0.06,0.177,9.787,-0.01,-0.01,0.0
1777316773.281481,-1.98,0.31,1.36,0.062,0.182,9.793,-0.01,-0.01,0.01
1777316773.29008,-2.0,0.31,1.36,0.059,0.201,9.798,0.0,-0.01,0.01
1777316773.3007472,-2.01,0.31,1.36,0.061,0.229,9.792,0.0,0.0,0.01
1777316773.3108022,-2.01,0.31,1.37,0.057,0.248,9.787,0.0,0.0,0.0
1777316773.3207595,-2.0,0.3,1.37,0.046,0.266,9.794,0.0,0.0,-0.01
1777316773.3307173,-1.99,0.3,1.37,0.042,0.271,9.798,0.0,0.0,-0.01
1777316773.3408053,-1.98,0.3,1.37,0.037,0.26,9.802,0.0,0.0,-0.02
1777316773.350071,-1.96,0.3,1.38,0.03,0.247,9.799,0.0,0.0,-0.02
1777316773.3607244,-1.95,0.3,1.38,0.034,0.219,9.797,0.0,0.0,-0.01
1777316773.3699524,-1.95,0.3,1.37,0.042,0.189,9.796,0.0,-0.01,-0.01
1777316773.3798811,-1.96,0.3,1.37,0.042,0.182,9.792,-0.01,-0.01,0.0
1777316773.390697,-1.98,0.3,1.37,0.042,0.198,9.797,-0.01,-0.01,0.0
1777316773.3998957,-1.99,0.3,1.37,0.053,0.224,9.8,-0.01,-0.01,0.01
1777316773.4101868,-2.0,0.3,1.37,0.06,0.234,9.804,0.0,-0.01,0.01
1777316773.419874,-2.0,0.31,1.37,0.05,0.271,9.803,-0.01,-0.01,0.0
1777316773.4298525,-2.0,0.3,1.38,0.061,0.274,9.799,-0.01,-0.01,0.0
1777316773.4398556,-2.0,0.3,1.38,0.056,0.272,9.802,-0.01,0.0,-0.01
1777316773.449822,-1.98,0.3,1.38,0.063,0.261,9.803,0.0,0.0,-0.01
1777316773.4598367,-1.98,0.3,1.38,0.056,0.255,9.8,-0.01,0.0,-0.01
1777316773.4698403,-1.96,0.3,1.37,0.051,0.24,9.791,-0.01,-0.01,-0.01
1777316773.4798582,-1.95,0.3,1.37,0.035,0.23,9.796,-0.01,0.0,-0.01
1777316773.4898179,-1.95,0.3,1.37,0.042,0.205,9.799,0.0,-0.01,-0.01
1777316773.4998162,-1.95,0.3,1.37,0.044,0.188,9.803,0.0,0.0,-0.01
1777316773.509813,-1.97,0.3,1.37,0.056,0.184,9.788,-0.01,-0.01,0.0
1777316773.5198252,-1.98,0.31,1.37,0.038,0.202,9.794,-0.01,-0.01,0.0
1777316773.5298064,-1.98,0.31,1.37,0.056,0.216,9.792,0.0,-0.01,0.0
1777316773.5400317,-1.98,0.31,1.37,0.044,0.238,9.798,0.0,-0.01,0.0
1777316773.550081,-1.98,0.31,1.37,0.062,0.25,9.802,-0.01,-0.01,0.0
1777316773.5598836,-1.98,0.31,1.37,0.053,0.243,9.804,0.0,0.0,-0.01
1777316773.5700688,-1.97,0.31,1.37,0.065,0.232,9.796,0.0,0.0,-0.01
1777316773.579889,-1.96,0.31,1.37,0.071,0.212,9.796,0.0,0.0,-0.01
1777316773.5900257,-1.97,0.31,1.37,0.073,0.201,9.799,-0.01,-0.01,-0.01
1777316773.599836,-1.98,0.31,1.37,0.063,0.195,9.802,-0.01,0.0,0.0
1777316773.6098661,-1.98,0.31,1.37,0.051,0.22,9.804,0.0,0.0,0.0
1777316773.619858,-1.99,0.31,1.37,0.044,0.228,9.796,0.0,0.0,0.0
1777316773.6298306,-1.99,0.31,1.37,0.035,0.25,9.798,0.0,0.0,0.0
1777316773.6398501,-1.98,0.3,1.37,0.026,0.263,9.802,-0.01,-0.01,0.0
1777316773.649801,-1.98,0.3,1.38,0.026,0.261,9.804,0.0,0.0,-0.01
1777316773.6608,-1.97,0.3,1.38,0.024,0.24,9.805,0.0,-0.01,-0.01
1777316773.6698098,-1.96,0.3,1.37,0.04,0.224,9.805,0.0,0.0,-0.01
1777316773.6798496,-1.96,0.3,1.37,0.037,0.222,9.806,-0.01,-0.01,-0.01
1777316773.689798,-1.96,0.3,1.37,0.046,0.208,9.798,-0.01,-0.01,-0.01
1777316773.6997643,-1.97,0.31,1.37,0.038,0.207,9.802,0.0,-0.01,0.0
1777316773.7097967,-1.97,0.3,1.37,0.049,0.218,9.802,-0.01,-0.01,0.0
1777316773.7197766,-1.98,0.31,1.37,0.053,0.217,9.8,-0.01,0.0,0.0
1777316773.7297716,-1.98,0.31,1.37,0.065,0.214,9.796,0.0,-0.01,0.0
1777316773.7398014,-1.98,0.31,1.37,0.072,0.218,9.781,0.0,0.0,0.0
1777316773.7497926,-1.98,0.31,1.37,0.073,0.23,9.79,0.0,-0.01,0.0
1777316773.759806,-1.98,0.31,1.37,0.075,0.231,9.796,-0.01,0.0,0.0
1777316773.769815,-1.98,0.31,1.37,0.057,0.231,9.799,0.0,0.0,0.0
1777316773.779765,-1.98,0.31,1.37,0.054,0.23,9.8,0.0,0.0,-0.01
1777316773.7898817,-1.98,0.3,1.37,0.044,0.231,9.796,0.0,0.0,-0.01
1777316773.799788,-1.98,0.3,1.37,0.044,0.234,9.796,0.0,0.0,-0.01
1777316773.8097522,-1.98,0.3,1.37,0.028,0.234,9.799,-0.01,-0.01,-0.01
1777316773.8199017,-1.97,0.3,1.37,0.032,0.237,9.803,-0.01,-0.01,-0.01
1777316773.8299274,-1.97,0.3,1.37,0.025,0.223,9.805,0.0,-0.01,-0.01
1777316773.840008,-1.97,0.3,1.37,0.038,0.214,9.794,0.0,-0.01,-0.01
1777316773.8497872,-1.98,0.3,1.37,0.038,0.22,9.792,-0.01,-0.01,0.0
1777316773.8597386,-1.98,0.3,1.37,0.047,0.237,9.791,-0.01,-0.01,0.0
1777316773.8697681,-1.98,0.31,1.37,0.038,0.245,9.797,-0.01,-0.01,0.0
1777316773.879792,-1.98,0.31,1.37,0.046,0.261,9.8,-0.01,-0.01,-0.01
1777316773.8897476,-1.97,0.31,1.37,0.054,0.247,9.803,-0.01,-0.01,-0.01
1777316773.9001517,-1.96,0.31,1.37,0.062,0.23,9.8,0.0,0.0,-0.01
1777316773.9097261,-1.96,0.31,1.37,0.072,0.204,9.796,-0.01,0.0,-0.01
1777316773.91972,-1.96,0.32,1.37,0.067,0.192,9.797,-0.01,-0.01,-0.01
1777316773.9297512,-1.97,0.32,1.36,0.067,0.19,9.8,-0.01,0.0,0.0
1777316773.9397714,-1.98,0.32,1.36,0.059,0.194,9.804,0.0,0.0,0.0
1777316773.9497707,-1.99,0.31,1.36,0.055,0.208,9.805,0.0,0.0,0.0
1777316773.9597626,-1.99,0.31,1.37,0.043,0.228,9.802,0.0,0.0,0.0
1777316773.9697526,-1.99,0.31,1.37,0.037,0.242,9.797,0.0,0.0,0.0
1777316773.9797487,-1.98,0.3,1.37,0.025,0.255,9.802,0.0,0.0,-0.01
1777316773.9897373,-1.98,0.3,1.37,0.028,0.255,9.804,0.0,0.0,-0.01
1777316773.9997103,-1.96,0.3,1.37,0.016,0.247,9.805,-0.01,-0.01,-0.01
1777316774.0097234,-1.95,0.3,1.37,0.034,0.231,9.8,0.0,0.0,-0.01
1777316774.0196917,-1.95,0.3,1.37,0.034,0.21,9.803,0.0,-0.01,-0.01
1777316774.0298576,-1.96,0.3,1.37,0.06,0.199,9.796,0.0,-0.01,-0.01
1777316774.0397508,-1.97,0.31,1.37,0.063,0.204,9.799,-0.01,-0.01,0.0
1777316774.0502255,-1.98,0.32,1.37,0.067,0.22,9.802,-0.01,-0.01,0.0
1777316774.0598688,-1.99,0.32,1.37,0.069,0.218,9.804,-0.01,-0.01,0.0
1777316774.0697064,-2.0,0.32,1.37,0.061,0.253,9.806,-0.01,0.0,0.0
1777316774.0796702,-2.0,0.32,1.37,0.059,0.259,9.802,-0.01,-0.01,0.0
1777316774.0897386,-1.99,0.31,1.37,0.05,0.265,9.804,-0.01,0.0,-0.01
1777316774.09968,-1.98,0.31,1.37,0.061,0.241,9.805,0.0,0.0,-0.01
1777316774.109746,-1.97,0.31,1.37,0.04,0.234,9.806,-0.01,0.0,-0.01
1777316774.1196918,-1.96,0.3,1.37,0.046,0.212,9.8,-0.01,-0.01,-0.01
1777316774.1296706,-1.95,0.3,1.37,0.041,0.189,9.798,0.0,0.0,-0.01
