timestamp,yaw,pitch,roll,accel_x,accel_y,accel_z,gyro_x,gyro_y,gyro_z
1777733162.743783,0.15,0.04,-1.2,0.028,-0.192,9.81,-0.01,-0.01,-0.01
1777733162.7536783,0.15,0.04,-1.2,0.034,-0.213,9.81,-0.01,0.0,-0.01
1777733162.7637112,0.14,0.04,-1.2,0.042,-0.23,9.81,0.0,0.0,0.0
1777733162.7738159,0.14,0.04,-1.21,0.03,-0.224,9.81,-0.01,0.0,0.0
1777733162.7837386,0.13,0.04,-1.21,0.017,-0.213,9.81,-0.01,0.0,0.0
1777733162.7936983,0.13,0.04,-1.2,0.006,-0.202,9.81,0.0,0.0,0.0
1777733162.8036978,0.14,0.04,-1.2,-0.016,-0.19,9.81,0.0,0.0,0.0
1777733162.8136933,0.15,0.04,-1.2,-0.066,-0.169,9.81,-0.01,0.0,-0.01
1777733162.8240318,0.15,0.02,-1.2,-0.193,-0.19,9.81,0.0,-0.01,-0.01
1777733162.8336623,0.15,0.0,-1.2,-0.269,-0.19,9.81,0.0,-0.01,-0.01
1777733162.8438473,0.15,-0.01,-1.19,-0.32,-0.189,9.81,-0.01,-0.01,-0.01
1777733162.8551252,0.15,-0.02,-1.18,-0.4,-0.237,9.81,0.0,-0.02,0.0
1777733162.864273,0.15,-0.01,-1.2,-0.274,-0.207,9.81,0.0,-0.01,0.0
1777733162.8742669,0.15,0.03,-1.18,-0.156,-0.222,9.81,-0.01,-0.02,0.0
1777733162.883776,0.16,0.07,-1.17,-0.096,-0.253,9.81,0.0,-0.02,-0.01
1777733162.8942933,0.18,0.11,-1.17,0.049,-0.303,9.81,0.01,-0.02,-0.01
1777733162.9041376,0.2,0.17,-1.17,0.159,-0.29,9.81,0.0,-0.02,-0.02
1777733162.9138415,0.2,0.2,-1.17,0.24,-0.265,9.81,0.0,-0.02,-0.02
1777733162.9242766,0.21,0.23,-1.16,0.316,-0.265,9.81,0.0,-0.01,-0.01
1777733162.9342914,0.2,0.24,-1.15,0.319,-0.212,9.81,0.0,0.0,0.0
1777733162.9442358,0.19,0.23,-1.15,0.273,-0.162,9.81,0.0,0.0,0.0
1777733162.9538007,0.19,0.2,-1.13,0.213,-0.105,9.81,-0.01,0.01,0.0
1777733162.9643128,0.19,0.18,-1.13,0.122,-0.086,9.81,-0.01,0.01,0.0
1777733162.9742885,0.19,0.16,-1.13,0.031,-0.097,9.81,-0.01,0.01,-0.01
1777733162.9840336,0.18,0.13,-1.13,-0.05,-0.125,9.81,-0.01,0.01,0.0
1777733162.993672,0.18,0.11,-1.13,-0.114,-0.165,9.81,-0.01,0.0,0.0
1777733163.0036962,0.17,0.09,-1.15,-0.146,-0.199,9.81,-0.01,0.0,0.0
1777733163.0136857,0.16,0.09,-1.15,-0.164,-0.231,9.81,-0.01,-0.01,0.0
1777733163.0236742,0.16,0.09,-1.17,-0.145,-0.261,9.81,-0.01,-0.01,0.0
1777733163.0334578,0.17,0.09,-1.17,-0.103,-0.29,9.81,0.0,-0.01,-0.01
1777733163.043958,0.18,0.1,-1.17,-0.051,-0.315,9.81,0.0,-0.01,-0.01
1777733163.053679,0.18,0.11,-1.17,-0.01,-0.31,9.81,0.0,-0.01,-0.01
1777733163.062889,0.18,0.11,-1.17,0.02,-0.273,9.81,0.0,-0.01,-0.01
1777733163.0737104,0.18,0.12,-1.17,0.044,-0.234,9.81,0.0,-0.01,-0.01
1777733163.0829227,0.18,0.12,-1.16,0.05,-0.174,9.81,0.0,-0.01,0.0
1777733163.0936944,0.18,0.12,-1.15,0.037,-0.135,9.81,0.0,0.0,0.0
1777733163.1028461,0.18,0.11,-1.15,0.012,-0.108,9.81,-0.01,0.0,0.0
1777733163.1136906,0.18,0.11,-1.14,-0.014,-0.114,9.81,-0.01,0.0,0.0
1777733163.1236756,0.18,0.1,-1.15,-0.04,-0.135,9.81,-0.01,0.0,-0.01
1777733163.1328955,0.18,0.09,-1.15,-0.057,-0.201,9.81,-0.01,0.0,-0.01
1777733163.143693,0.18,0.09,-1.16,-0.069,-0.249,9.81,-0.01,0.0,0.0
1777733163.153678,0.18,0.09,-1.17,-0.068,-0.28,9.81,-0.01,-0.01,0.0
1777733163.1629322,0.17,0.09,-1.18,-0.054,-0.289,9.81,-0.01,-0.01,0.0
1777733163.1728485,0.18,0.09,-1.18,-0.04,-0.29,9.81,-0.01,-0.01,0.0
1777733163.183669,0.18,0.09,-1.18,-0.029,-0.267,9.81,0.0,-0.01,-0.01
1777733163.1928518,0.18,0.09,-1.18,-0.02,-0.236,9.81,0.0,-0.01,-0.01
1777733163.2028782,0.18,0.09,-1.17,-0.012,-0.214,9.81,0.0,0.0,-0.01
1777733163.212851,0.18,0.09,-1.17,-0.013,-0.18,9.81,0.0,0.0,-0.01
1777733163.2228305,0.18,0.09,-1.17,-0.011,-0.164,9.81,0.0,0.0,-0.01
1777733163.2328134,0.18,0.09,-1.17,-0.005,-0.157,9.81,-0.01,-0.01,0.0
1777733163.2428534,0.18,0.08,-1.17,-0.008,-0.163,9.81,-0.01,0.0,0.0
1777733163.2528412,0.18,0.08,-1.17,-0.007,-0.19,9.81,-0.01,0.0,0.0
1777733163.2628398,0.18,0.08,-1.17,-0.011,-0.213,9.81,-0.01,0.0,0.0
1777733163.2728367,0.18,0.07,-1.18,-0.014,-0.236,9.81,-0.01,0.0,-0.01
1777733163.2828379,0.18,0.07,-1.19,-0.023,-0.253,9.81,-0.01,0.0,-0.01
1777733163.292803,0.18,0.07,-1.19,-0.028,-0.273,9.81,0.0,0.0,-0.01
1777733163.302777,0.18,0.06,-1.2,-0.03,-0.261,9.81,0.0,0.0,0.0
1777733163.3128035,0.18,0.06,-1.2,-0.032,-0.241,9.81,0.0,-0.01,0.0
1777733163.322786,0.18,0.06,-1.19,-0.025,-0.205,9.81,0.0,-0.01,0.0
1777733163.3328037,0.18,0.06,-1.18,-0.016,-0.176,9.81,0.0,-0.01,0.0
1777733163.3427975,0.18,0.06,-1.18,-0.008,-0.157,9.81,-0.01,-0.01,-0.01
1777733163.3528337,0.18,0.06,-1.17,0.0,-0.16,9.81,-0.01,-0.01,-0.01
1777733163.3627832,0.18,0.06,-1.18,0.005,-0.175,9.81,-0.01,-0.01,-0.01
1777733163.3727973,0.18,0.06,-1.18,0.001,-0.195,9.81,-0.01,0.0,-0.01
1777733163.3827937,0.18,0.06,-1.19,0.0,-0.214,9.81,-0.01,0.0,0.0
1777733163.3927739,0.18,0.06,-1.19,-0.007,-0.226,9.81,-0.01,0.0,0.0
1777733163.4027927,0.18,0.06,-1.2,-0.018,-0.238,9.81,-0.01,0.0,0.0
1777733163.4133632,0.18,0.06,-1.2,-0.031,-0.251,9.81,-0.01,0.0,-0.01
1777733163.4232821,0.18,0.05,-1.2,-0.034,-0.251,9.81,0.0,0.0,0.0
1777733163.4333007,0.18,0.05,-1.2,-0.037,-0.238,9.81,0.0,0.0,0.0
1777733163.442792,0.18,0.05,-1.2,-0.037,-0.216,9.81,0.0,0.0,0.0
1777733163.4527686,0.18,0.05,-1.2,-0.03,-0.189,9.81,0.0,-0.01,0.0
1777733163.4628067,0.18,0.05,-1.19,-0.024,-0.186,9.81,0.0,-0.01,-0.01
1777733163.4728723,0.18,0.05,-1.19,-0.01,-0.184,9.81,-0.01,-0.01,-0.01
1777733163.482782,0.18,0.05,-1.19,-0.002,-0.186,9.81,-0.01,-0.01,-0.01
1777733163.4927735,0.18,0.05,-1.19,0.004,-0.202,9.81,0.0,0.0,-0.01
1777733163.502801,0.18,0.05,-1.2,0.005,-0.208,9.81,-0.01,0.0,0.0
1777733163.5132918,0.18,0.04,-1.2,-0.001,-0.22,9.81,-0.01,0.0,0.0
1777733163.523225,0.18,0.04,-1.2,-0.017,-0.22,9.81,-0.01,0.0,0.0
1777733163.5332797,0.18,0.04,-1.2,-0.026,-0.226,9.81,-0.01,0.0,0.0
1777733163.5433645,0.18,0.04,-1.2,-0.036,-0.228,9.81,0.0,0.0,-0.01
1777733163.5530047,0.18,0.04,-1.2,-0.032,-0.226,9.81,0.0,0.0,-0.01
1777733163.5627666,0.17,0.04,-1.2,-0.029,-0.213,9.81,0.0,-0.01,0.0
1777733163.5727792,0.17,0.04,-1.2,-0.019,-0.195,9.81,0.0,-0.01,0.0
1777733163.5827603,0.17,0.04,-1.2,-0.013,-0.193,9.81,0.0,-0.01,0.0
1777733163.5927646,0.18,0.04,-1.2,-0.004,-0.188,9.81,-0.01,-0.01,-0.01
1777733163.6027687,0.18,0.04,-1.2,0.002,-0.188,9.81,-0.01,-0.01,-0.01
1777733163.6127565,0.18,0.04,-1.2,-0.001,-0.2,9.81,-0.01,0.0,-0.01
1777733163.6227942,0.18,0.04,-1.2,-0.006,-0.208,9.81,-0.01,0.0,-0.01
1777733163.6327648,0.17,0.03,-1.2,-0.014,-0.222,9.81,-0.01,0.0,0.0
1777733163.642805,0.17,0.03,-1.2,-0.019,-0.217,9.81,-0.01,0.0,0.0
1777733163.652776,0.17,0.03,-1.2,-0.031,-0.212,9.81,-0.01,0.0,0.0
1777733163.66278,0.17,0.02,-1.2,-0.029,-0.204,9.81,-0.01,0.0,-0.01
1777733163.6727753,0.18,0.02,-1.2,-0.029,-0.208,9.81,-0.01,-0.01,-0.01
1777733163.6827762,0.18,0.02,-1.2,-0.031,-0.21,9.81,-0.01,-0.01,-0.01
1777733163.692776,0.18,0.02,-1.2,-0.018,-0.219,9.81,0.0,-0.01,0.0
1777733163.7027779,0.17,0.03,-1.21,-0.007,-0.223,9.81,-0.01,-0.01,0.0
1777733163.7133257,0.17,0.03,-1.21,0.004,-0.216,9.81,-0.01,-0.01,0.0
1777733163.723384,0.16,0.03,-1.2,0.007,-0.204,9.81,0.0,-0.01,0.0
1777733163.7333453,0.16,0.03,-1.2,0.004,-0.201,9.81,-0.01,-0.01,0.0
1777733163.7429898,0.17,0.03,-1.2,-0.004,-0.204,9.81,-0.01,0.0,-0.01
1777733163.7533336,0.17,0.02,-1.2,-0.012,-0.211,9.81,0.0,0.0,-0.01
1777733163.7633493,0.17,0.02,-1.21,-0.019,-0.211,9.81,-0.01,0.0,-0.01
1777733163.7728548,0.17,0.02,-1.21,-0.024,-0.214,9.81,-0.01,0.0,0.0
1777733163.7826948,0.17,0.02,-1.21,-0.024,-0.216,9.81,-0.01,-0.01,0.0
1777733163.792779,0.17,0.02,-1.21,-0.012,-0.223,9.81,-0.01,-0.01,0.0
1777733163.8028057,0.17,0.02,-1.22,0.022,-0.217,9.81,-0.01,-0.01,-0.01
1777733163.812754,0.18,0.03,-1.22,0.067,-0.2,9.81,-0.01,0.0,-0.01
1777733163.822751,0.18,0.03,-1.21,0.117,-0.199,9.81,-0.01,0.0,-0.01
1777733163.832788,0.19,0.03,-1.2,0.146,-0.089,9.81,0.0,0.0,-0.01
1777733163.8434567,0.2,0.03,-1.19,0.162,0.014,9.81,-0.01,0.0,-0.01
1777733163.853226,0.22,0.02,-1.16,0.156,0.074,9.81,-0.01,0.0,-0.02
1777733163.8633678,0.24,0.01,-1.15,0.144,0.079,9.81,0.0,0.01,-0.02
1777733163.8725553,0.25,-0.03,-1.15,0.108,0.014,9.81,-0.01,0.01,-0.02
1777733163.8832374,0.25,-0.05,-1.17,0.097,-0.096,9.81,-0.01,0.02,-0.01
1777733163.89319,0.24,-0.09,-1.21,0.04,-0.225,9.81,-0.02,0.02,0.0
1777733163.9032393,0.22,-0.12,-1.25,-0.028,-0.341,9.811,-0.02,0.01,0.01
1777733163.9127235,0.19,-0.14,-1.29,-0.098,-0.404,9.812,-0.02,0.01,0.01
1777733163.9231787,0.18,-0.17,-1.32,-0.166,-0.474,9.812,-0.02,0.01,0.01
1777733163.9332178,0.18,-0.19,-1.33,-0.212,-0.516,9.812,-0.01,0.0,0.0
1777733163.9432065,0.18,-0.19,-1.33,-0.218,-0.478,9.812,0.0,0.0,0.0
1777733163.952438,0.2,-0.19,-1.32,-0.189,-0.418,9.812,0.0,-0.01,-0.01
1777733163.9619355,0.23,-0.17,-1.31,-0.131,-0.341,9.812,0.01,-0.02,-0.02
1777733163.971888,0.24,-0.14,-1.29,-0.034,-0.263,9.812,0.0,-0.02,-0.02
1777733163.982739,0.25,-0.12,-1.27,0.046,-0.186,9.811,0.0,-0.01,-0.02
1777733163.9927437,0.25,-0.1,-1.25,0.117,-0.119,9.811,0.0,-0.01,-0.01
1777733164.0023284,0.24,-0.08,-1.23,0.193,-0.071,9.81,0.0,-0.01,0.0
1777733164.0127263,0.22,-0.07,-1.22,0.208,-0.014,9.81,-0.01,0.0,0.0
1777733164.0219114,0.22,-0.07,-1.22,0.202,-0.016,9.81,-0.01,0.0,0.0
1777733164.0327487,0.22,-0.08,-1.22,0.158,-0.056,9.81,-0.01,0.0,0.0
1777733164.0433145,0.22,-0.1,-1.24,0.08,-0.143,9.81,-0.01,0.0,-0.01
1777733164.0519207,0.22,-0.11,-1.25,0.007,-0.228,9.811,-0.01,0.0,-0.01
1777733164.0619352,0.23,-0.12,-1.27,-0.063,-0.31,9.811,-0.01,0.0,-0.01
1777733164.0727217,0.22,-0.14,-1.28,-0.104,-0.354,9.812,0.0,0.0,-0.01
1777733164.0818167,0.22,-0.14,-1.28,-0.098,-0.35,9.812,0.0,-0.01,0.0
1777733164.0918765,0.21,-0.13,-1.28,-0.075,-0.295,9.812,0.0,-0.01,0.0
1777733164.1027098,0.22,-0.12,-1.27,-0.025,-0.229,9.811,0.0,-0.01,0.0
1777733164.1118083,0.24,-0.1,-1.25,0.014,-0.183,9.811,0.0,-0.01,-0.01
1777733164.1218345,0.24,-0.08,-1.24,0.08,-0.16,9.81,0.0,-0.01,-0.02
1777733164.1318502,0.25,-0.07,-1.24,0.127,-0.157,9.81,0.0,-0.01,-0.01
1777733164.1418617,0.24,-0.06,-1.23,0.141,-0.129,9.81,0.0,-0.01,0.0
1777733164.1519818,0.22,-0.06,-1.22,0.145,-0.104,9.81,-0.01,0.0,0.0
1777733164.1618404,0.22,-0.06,-1.22,0.126,-0.096,9.81,-0.01,0.0,0.01
1777733164.172362,0.22,-0.07,-1.22,0.092,-0.097,9.81,-0.01,0.0,0.0
1777733164.1824512,0.22,-0.07,-1.23,0.044,-0.145,9.81,-0.01,0.0,-0.01
1777733164.191816,0.23,-0.08,-1.24,-0.008,-0.205,9.81,-0.01,0.0,-0.01
1777733164.2019677,0.24,-0.1,-1.25,-0.037,-0.273,9.811,-0.01,0.0,-0.01
1777733164.2118392,0.23,-0.1,-1.26,-0.049,-0.323,9.811,-0.01,0.0,-0.01
1777733164.2225053,0.22,-0.09,-1.27,-0.046,-0.308,9.811,0.0,-0.01,0.0
1777733164.2318075,0.22,-0.08,-1.26,-0.007,-0.273,9.811,0.0,-0.01,0.0
1777733164.241983,0.22,-0.07,-1.25,0.031,-0.22,9.811,0.0,-0.01,0.0
1777733164.2518327,0.23,-0.06,-1.24,0.08,-0.18,9.81,0.0,-0.01,-0.01
1777733164.2619574,0.24,-0.05,-1.23,0.104,-0.159,9.81,0.0,0.0,-0.01
1777733164.2718492,0.24,-0.05,-1.22,0.111,-0.137,9.81,0.0,0.0,-0.01
1777733164.282281,0.24,-0.05,-1.22,0.113,-0.128,9.81,0.0,0.0,-0.01
1777733164.2922032,0.23,-0.05,-1.22,0.085,-0.119,9.81,-0.01,0.0,0.0
1777733164.3018668,0.22,-0.06,-1.21,0.04,-0.111,9.81,-0.01,0.0,0.0
1777733164.312443,0.22,-0.07,-1.21,0.02,-0.146,9.81,-0.01,0.0,0.0
1777733164.321833,0.22,-0.07,-1.22,-0.018,-0.178,9.81,-0.01,0.0,0.0
1777733164.3318121,0.23,-0.08,-1.22,-0.023,-0.234,9.81,-0.01,0.0,-0.01
1777733164.3417923,0.23,-0.08,-1.24,-0.041,-0.249,9.81,-0.01,-0.01,-0.01
1777733164.3518188,0.23,-0.08,-1.24,-0.032,-0.249,9.81,-0.01,-0.01,-0.01
1777733164.362335,0.24,-0.07,-1.24,-0.02,-0.247,9.81,0.0,-0.01,-0.01
1777733164.3722014,0.24,-0.06,-1.24,0.018,-0.234,9.81,0.0,-0.01,-0.01
1777733164.3821971,0.24,-0.05,-1.23,0.046,-0.22,9.81,0.0,-0.01,-0.01
1777733164.3922577,0.24,-0.05,-1.22,0.073,-0.186,9.81,0.0,-0.01,-0.01
1777733164.4024963,0.24,-0.04,-1.22,0.098,-0.163,9.81,0.0,0.0,-0.01
1777733164.4123557,0.24,-0.03,-1.22,0.102,-0.141,9.81,-0.01,0.0,0.0
1777733164.4220843,0.23,-0.03,-1.22,0.084,-0.147,9.81,-0.01,0.0,0.0
1777733164.4323225,0.23,-0.04,-1.22,0.062,-0.165,9.81,-0.01,0.0,0.0
1777733164.4423227,0.23,-0.04,-1.22,0.034,-0.192,9.81,-0.01,0.0,0.0
1777733164.4520285,0.22,-0.05,-1.22,0.0,-0.224,9.81,-0.01,0.0,0.0
1777733164.4623027,0.22,-0.05,-1.23,-0.012,-0.229,9.81,-0.01,0.0,0.0
1777733164.4720545,0.22,-0.05,-1.23,-0.023,-0.234,9.81,-0.01,0.0,0.0
1777733164.4820673,0.22,-0.05,-1.23,-0.018,-0.218,9.81,0.0,-0.01,-0.01
1777733164.4920626,0.23,-0.05,-1.23,0.004,-0.222,9.81,0.0,-0.01,-0.01
1777733164.502305,0.24,-0.04,-1.23,0.025,-0.216,9.81,0.0,-0.01,-0.01
1777733164.5120316,0.24,-0.03,-1.22,0.051,-0.212,9.81,-0.01,-0.01,-0.01
1777733164.5222654,0.24,-0.03,-1.22,0.062,-0.207,9.81,0.0,-0.01,-0.01
1777733164.5322688,0.23,-0.02,-1.22,0.072,-0.175,9.81,0.0,-0.01,0.0
1777733164.5422754,0.23,-0.02,-1.22,0.072,-0.156,9.81,-0.01,0.0,0.0
1777733164.5522273,0.22,-0.02,-1.22,0.068,-0.15,9.81,-0.01,0.0,0.0
1777733164.5622213,0.22,-0.02,-1.21,0.049,-0.168,9.81,-0.01,0.0,0.0
1777733164.5733206,0.22,-0.03,-1.22,0.022,-0.192,9.81,-0.01,0.0,-0.01
1777733164.581972,0.22,-0.03,-1.22,0.008,-0.21,9.81,-0.01,0.0,0.0
1777733164.5918686,0.22,-0.03,-1.22,-0.016,-0.223,9.81,-0.01,0.0,0.0
1777733164.6018145,0.23,-0.03,-1.22,-0.013,-0.236,9.81,0.0,-0.01,-0.01
1777733164.6118195,0.22,-0.03,-1.22,-0.01,-0.226,9.81,-0.01,-0.01,-0.01
1777733164.621813,0.22,-0.03,-1.22,0.004,-0.224,9.81,0.0,-0.01,0.0
1777733164.631783,0.22,-0.02,-1.22,0.025,-0.202,9.81,0.0,-0.01,0.0
1777733164.6418087,0.23,-0.01,-1.22,0.048,-0.181,9.81,0.0,-0.01,-0.01
1777733164.6518226,0.24,-0.0,-1.21,0.062,-0.17,9.81,-0.01,-0.01,-0.01
1777733164.6617918,0.24,-0.0,-1.21,0.073,-0.165,9.81,0.0,0.0,-0.01
1777733164.6717846,0.24,-0.0,-1.21,0.066,-0.176,9.81,-0.01,0.0,-0.01
1777733164.681834,0.23,-0.0,-1.22,0.047,-0.175,9.81,-0.01,0.0,0.0
1777733164.691827,0.22,-0.0,-1.22,0.036,-0.188,9.81,-0.01,0.0,0.0
1777733164.7018511,0.22,-0.0,-1.22,0.02,-0.199,9.81,-0.01,0.0,0.0
1777733164.7117846,0.22,-0.01,-1.22,0.004,-0.211,9.81,-0.01,0.0,0.0
1777733164.7217693,0.22,-0.01,-1.22,-0.006,-0.222,9.81,-0.01,0.0,-0.01
1777733164.7318428,0.23,-0.01,-1.22,-0.017,-0.251,9.81,0.0,-0.01,-0.01
1777733164.741799,0.23,-0.01,-1.22,-0.013,-0.247,9.81,0.0,-0.01,-0.01
1777733164.7517624,0.22,-0.0,-1.22,0.0,-0.228,9.81,0.0,-0.01,0.0
1777733164.761807,0.22,0.0,-1.22,0.023,-0.188,9.81,0.0,-0.01,0.0
1777733164.7717583,0.22,0.0,-1.21,0.05,-0.153,9.81,0.0,-0.01,0.0
1777733164.7808347,0.23,0.01,-1.21,0.06,-0.148,9.81,-0.01,-0.01,-0.01
1777733164.7917886,0.24,0.01,-1.21,0.062,-0.157,9.81,-0.01,0.0,-0.01
1777733164.8017538,0.23,0.02,-1.21,0.055,-0.183,9.81,-0.01,0.0,-0.01
1777733164.8117805,0.23,0.01,-1.22,0.034,-0.206,9.81,-0.01,0.0,0.0
1777733164.8217473,0.22,0.01,-1.22,0.022,-0.23,9.81,-0.01,0.0,0.0
1777733164.8317795,0.22,0.01,-1.22,0.017,-0.222,9.81,-0.01,0.0,0.0
1777733164.8409286,0.22,0.0,-1.22,0.011,-0.207,9.81,-0.01,0.0,0.0
1777733164.851768,0.22,0.0,-1.22,0.007,-0.206,9.81,0.0,0.0,-0.01
1777733164.8609142,0.23,0.0,-1.22,0.0,-0.208,9.81,0.0,0.0,-0.01
1777733164.8717687,0.23,0.0,-1.22,-0.002,-0.216,9.81,-0.01,-0.01,-0.01
1777733164.8809555,0.23,0.01,-1.22,0.005,-0.218,9.81,0.0,-0.01,-0.01
1777733164.8917832,0.22,0.02,-1.22,0.019,-0.201,9.81,0.0,-0.01,0.0
1777733164.9009466,0.22,0.02,-1.21,0.044,-0.177,9.81,-0.01,-0.01,0.0
1777733164.911788,0.22,0.02,-1.21,0.053,-0.152,9.81,-0.01,0.0,0.0
1777733164.921819,0.23,0.02,-1.2,0.055,-0.175,9.81,-0.01,0.0,-0.01
1777733164.9309394,0.23,0.02,-1.21,0.049,-0.189,9.81,0.0,0.0,-0.01
1777733164.9417825,0.23,0.02,-1.22,0.022,-0.218,9.81,-0.01,0.0,-0.01
1777733164.9509814,0.22,0.02,-1.22,0.011,-0.226,9.81,-0.01,0.0,0.0
1777733164.9609365,0.22,0.02,-1.22,-0.006,-0.222,9.81,0.0,0.0,0.0
1777733164.9709241,0.22,0.02,-1.22,-0.004,-0.208,9.81,-0.01,-0.01,0.0
1777733164.9809139,0.22,0.02,-1.22,-0.007,-0.189,9.81,0.0,0.0,0.0
1777733164.9909227,0.22,0.02,-1.21,0.008,-0.192,9.81,-0.01,-0.01,-0.01
1777733165.0009058,0.23,0.02,-1.21,0.012,-0.194,9.81,0.0,-0.01,-0.01
1777733165.0108984,0.23,0.02,-1.21,0.026,-0.193,9.81,-0.01,-0.01,-0.01
1777733165.0209084,0.23,0.03,-1.21,0.036,-0.211,9.81,0.0,0.0,-0.01
1777733165.0314212,0.22,0.03,-1.21,0.037,-0.195,9.81,0.0,0.0,0.0
1777733165.0409265,0.22,0.03,-1.21,0.044,-0.186,9.81,-0.01,0.0,0.0
1777733165.0509014,0.22,0.03,-1.2,0.042,-0.175,9.81,0.0,0.0,0.0
1777733165.0609767,0.22,0.03,-1.2,0.032,-0.171,9.81,0.0,0.0,0.0
1777733165.0709054,0.22,0.03,-1.2,0.03,-0.174,9.81,-0.01,0.0,-0.01
1777733165.081185,0.22,0.03,-1.2,0.006,-0.198,9.81,-0.01,0.0,-0.01
1777733165.0910718,0.23,0.02,-1.2,0.008,-0.214,9.81,0.0,0.0,-0.01
1777733165.1008558,0.22,0.03,-1.21,-0.002,-0.232,9.81,-0.01,0.0,-0.01
1777733165.111141,0.22,0.03,-1.22,-0.001,-0.219,9.81,-0.01,-0.01,0.0
1777733165.1218414,0.22,0.03,-1.21,0.016,-0.2,9.81,-0.01,-0.01,0.0
1777733165.1308956,0.22,0.04,-1.21,0.019,-0.178,9.81,0.0,-0.01,0.0
1777733165.140851,0.22,0.04,-1.2,0.035,-0.164,9.81,-0.01,-0.01,-0.01
1777733165.1510148,0.22,0.04,-1.2,0.049,-0.175,9.81,0.0,0.0,-0.01
1777733165.1609128,0.23,0.04,-1.2,0.044,-0.198,9.81,0.0,0.0,-0.01
1777733165.1708558,0.23,0.04,-1.2,0.038,-0.223,9.81,-0.01,0.0,-0.01
1777733165.1808848,0.22,0.04,-1.21,0.028,-0.211,9.81,0.0,0.0,0.0
1777733165.1919525,0.22,0.04,-1.21,0.026,-0.189,9.81,-0.01,0.0,0.0
1777733165.200828,0.21,0.04,-1.2,0.02,-0.165,9.81,-0.01,0.0,0.0
1777733165.2109408,0.22,0.04,-1.2,0.016,-0.166,9.81,-0.01,0.0,-0.01
1777733165.2208352,0.22,0.04,-1.2,0.016,-0.186,9.81,-0.01,0.0,-0.01
1777733165.2308226,0.23,0.04,-1.2,0.004,-0.216,9.81,-0.01,0.0,-0.01
1777733165.2408514,0.23,0.04,-1.21,0.013,-0.24,9.81,0.0,-0.01,-0.01
1777733165.2508395,0.22,0.04,-1.21,0.017,-0.232,9.81,-0.01,-0.01,0.0
1777733165.260823,0.22,0.04,-1.21,0.025,-0.201,9.81,-0.01,-0.01,0.0
1777733165.2708359,0.21,0.04,-1.2,0.042,-0.171,9.81,0.0,-0.01,0.0
1777733165.280858,0.22,0.05,-1.2,0.044,-0.164,9.81,0.0,0.0,0.0
1777733165.2908857,0.22,0.05,-1.2,0.04,-0.175,9.81,-0.01,0.0,-0.01
1777733165.3008301,0.23,0.04,-1.2,0.022,-0.198,9.81,-0.01,0.0,-0.01
1777733165.3108442,0.23,0.04,-1.2,0.016,-0.217,9.81,-0.01,0.0,-0.01
1777733165.3209305,0.22,0.04,-1.2,0.005,-0.222,9.81,-0.01,0.0,0.0
1777733165.3309195,0.22,0.04,-1.2,0.005,-0.214,9.81,-0.01,-0.01,0.0
1777733165.340833,0.22,0.04,-1.2,0.007,-0.202,9.81,0.0,0.0,0.0
1777733165.3508723,0.22,0.04,-1.2,0.007,-0.199,9.81,-0.01,0.0,0.0
1777733165.3608582,0.22,0.04,-1.2,0.022,-0.192,9.81,-0.01,-0.01,-0.01
1777733165.3708477,0.22,0.04,-1.2,0.019,-0.196,9.81,0.0,0.0,-0.01
1777733165.3813345,0.23,0.04,-1.2,0.028,-0.199,9.81,0.0,0.0,-0.01
1777733165.3912508,0.23,0.05,-1.2,0.025,-0.204,9.81,-0.01,0.0,-0.01
1777733165.4013429,0.22,0.05,-1.2,0.026,-0.208,9.81,-0.01,-0.01,0.0
1777733165.4108803,0.22,0.05,-1.2,0.025,-0.208,9.81,0.0,-0.01,0.0
1777733165.4214194,0.21,0.05,-1.2,0.024,-0.193,9.81,-0.01,-0.01,0.0
1777733165.4312887,0.22,0.05,-1.2,0.029,-0.184,9.81,-0.01,0.0,0.0
1777733165.4408538,0.22,0.05,-1.2,0.018,-0.188,9.81,-0.01,0.0,-0.01
1777733165.4508939,0.23,0.04,-1.2,0.007,-0.213,9.81,0.0,0.0,-0.01
1777733165.460856,0.23,0.04,-1.21,-0.004,-0.237,9.81,-0.01,0.0,-0.01
1777733165.4708388,0.22,0.04,-1.21,-0.004,-0.23,9.81,-0.01,-0.01,0.0
1777733165.4808564,0.21,0.04,-1.21,-0.002,-0.218,9.81,-0.01,-0.01,0.0
1777733165.4908414,0.2,0.04,-1.21,0.008,-0.177,9.81,0.0,-0.01,0.0
1777733165.501305,0.21,0.05,-1.2,0.026,-0.148,9.81,-0.01,-0.01,0.0
1777733165.511404,0.22,0.05,-1.2,0.032,-0.156,9.81,-0.01,0.0,-0.01
1777733165.5213273,0.23,0.05,-1.2,0.028,-0.181,9.81,0.0,0.0,-0.01
1777733165.5308743,0.23,0.05,-1.2,0.023,-0.223,9.81,-0.01,0.0,-0.01
1777733165.5408685,0.22,0.05,-1.21,0.007,-0.254,9.81,-0.01,0.0,-0.01
1777733165.550896,0.22,0.05,-1.22,0.005,-0.247,9.81,-0.01,-0.01,0.0
1777733165.5608413,0.2,0.04,-1.22,0.002,-0.22,9.81,-0.01,-0.01,0.0
1777733165.5708332,0.2,0.04,-1.21,0.011,-0.187,9.81,0.0,-0.01,0.0
1777733165.580884,0.2,0.05,-1.2,0.016,-0.164,9.81,0.0,0.0,0.0
1777733165.5908427,0.22,0.05,-1.2,0.017,-0.17,9.81,-0.01,0.0,-0.01
1777733165.6008024,0.23,0.05,-1.2,0.013,-0.193,9.81,0.0,0.0,-0.02
1777733165.6108325,0.24,0.05,-1.2,0.001,-0.23,9.81,0.0,0.0,-0.01
1777733165.6208174,0.23,0.04,-1.21,0.012,-0.234,9.81,0.0,-0.01,-0.01
1777733165.6313787,0.22,0.05,-1.21,0.024,-0.213,9.81,-0.01,0.0,0.0
1777733165.6408384,0.21,0.05,-1.21,0.035,-0.189,9.81,-0.01,-0.01,0.0
1777733165.6508052,0.2,0.06,-1.21,0.037,-0.175,9.81,0.0,0.0,0.0
1777733165.6608226,0.21,0.06,-1.2,0.038,-0.175,9.81,-0.01,0.0,0.0
1777733165.6708145,0.22,0.05,-1.2,0.026,-0.196,9.81,-0.01,0.0,-0.01
1777733165.6808257,0.23,0.05,-1.21,0.023,-0.223,9.81,-0.01,0.0,-0.01
1777733165.6908107,0.22,0.05,-1.21,0.007,-0.25,9.81,-0.01,0.0,-0.01
1777733165.7008474,0.22,0.05,-1.22,-0.001,-0.244,9.81,0.0,-0.01,0.0
1777733165.7107968,0.21,0.05,-1.22,0.0,-0.23,9.81,0.0,-0.01,0.0
1777733165.7208347,0.2,0.05,-1.21,0.007,-0.189,9.81,0.0,-0.01,0.0
1777733165.7308114,0.2,0.06,-1.2,0.025,-0.157,9.81,-0.01,-0.01,0.0
1777733165.7399728,0.22,0.06,-1.2,0.032,-0.146,9.81,0.0,-0.01,-0.01
1777733165.7508125,0.22,0.06,-1.2,0.037,-0.163,9.81,0.0,0.0,-0.01
1777733165.7599976,0.23,0.06,-1.2,0.025,-0.202,9.81,-0.01,0.0,-0.01
1777733165.7699804,0.23,0.06,-1.2,0.018,-0.238,9.81,-0.01,0.0,-0.01
1777733165.780809,0.22,0.06,-1.22,0.019,-0.234,9.81,-0.01,0.0,0.0
1777733165.7899609,0.2,0.06,-1.22,0.018,-0.202,9.81,-0.01,0.0,0.0
1777733165.8007934,0.2,0.06,-1.21,0.026,-0.176,9.81,-0.01,0.0,0.0
1777733165.8099656,0.2,0.06,-1.2,0.02,-0.16,9.81,0.0,0.0,0.0
1777733165.8200283,0.22,0.06,-1.2,0.014,-0.164,9.81,-0.01,0.0,-0.01
1777733165.8299608,0.23,0.06,-1.2,0.007,-0.202,9.81,-0.01,0.0,-0.01
1777733165.8399806,0.23,0.05,-1.21,0.0,-0.251,9.81,0.0,0.0,-0.01
1777733165.84996,0.22,0.06,-1.22,0.004,-0.256,9.81,0.0,-0.01,0.0
1777733165.859947,0.21,0.06,-1.22,0.005,-0.217,9.81,-0.01,-0.01,0.0
1777733165.8699677,0.2,0.06,-1.21,0.03,-0.178,9.81,-0.01,-0.01,0.0
1777733165.8801057,0.2,0.07,-1.2,0.042,-0.154,9.81,0.0,-0.01,0.0
1777733165.8899643,0.21,0.07,-1.2,0.049,-0.144,9.81,-0.01,0.0,-0.01
1777733165.899917,0.22,0.07,-1.2,0.043,-0.174,9.81,-0.01,0.0,-0.01
1777733165.9099681,0.23,0.07,-1.2,0.019,-0.222,9.81,-0.01,0.0,-0.01
1777733165.9199367,0.22,0.06,-1.21,0.012,-0.251,9.81,0.0,0.0,-0.01
1777733165.9299636,0.22,0.06,-1.22,0.001,-0.244,9.81,-0.01,0.0,0.0
1777733165.939958,0.2,0.07,-1.22,0.007,-0.207,9.81,-0.01,-0.01,0.0
1777733165.94997,0.2,0.07,-1.21,0.01,-0.189,9.81,0.0,-0.01,0.0
1777733165.9599202,0.2,0.07,-1.2,0.016,-0.163,9.81,0.0,-0.01,0.0
1777733165.9699154,0.21,0.07,-1.2,0.019,-0.172,9.81,-0.01,0.0,-0.01
1777733165.9799485,0.22,0.07,-1.2,0.02,-0.204,9.81,0.0,0.0,-0.01
1777733165.9899118,0.22,0.07,-1.2,0.014,-0.229,9.81,-0.01,0.0,-0.01
1777733165.9999702,0.22,0.07,-1.21,0.007,-0.248,9.81,0.0,0.0,-0.01
1777733166.009907,0.22,0.07,-1.21,0.014,-0.224,9.81,-0.01,0.0,0.0
1777733166.0199533,0.2,0.07,-1.21,0.013,-0.206,9.81,0.0,-0.01,0.0
1777733166.0299258,0.2,0.07,-1.21,0.014,-0.166,9.81,-0.01,-0.01,0.0
1777733166.0402088,0.21,0.07,-1.2,0.013,-0.174,9.81,-0.01,0.0,0.0
1777733166.0499306,0.22,0.07,-1.2,0.01,-0.192,9.81,-0.01,0.0,-0.01
1777733166.0598936,0.22,0.07,-1.21,0.005,-0.228,9.81,0.0,0.0,-0.01
1777733166.0699067,0.22,0.06,-1.22,0.002,-0.242,9.81,-0.01,0.0,-0.01
1777733166.079913,0.22,0.06,-1.22,-0.004,-0.249,9.81,-0.01,-0.01,0.0
1777733166.089942,0.21,0.06,-1.22,-0.001,-0.242,9.81,0.0,0.0,0.0
1777733166.099897,0.21,0.06,-1.22,0.0,-0.223,9.81,-0.01,-0.01,0.0
1777733166.1100316,0.2,0.06,-1.22,0.007,-0.202,9.81,-0.01,-0.01,0.0
1777733166.1199076,0.21,0.07,-1.22,0.012,-0.196,9.81,0.0,0.0,0.0
1777733166.1298819,0.21,0.07,-1.21,0.01,-0.189,9.81,-0.01,0.0,-0.01
1777733166.1399815,0.22,0.07,-1.21,0.011,-0.192,9.81,-0.01,0.0,-0.01
1777733166.150044,0.22,0.07,-1.21,0.013,-0.204,9.81,-0.01,0.0,-0.01
1777733166.1600106,0.22,0.07,-1.22,0.017,-0.222,9.81,-0.01,0.0,-0.01
1777733166.1699271,0.21,0.06,-1.22,0.012,-0.228,9.81,-0.01,0.0,0.0
1777733166.1799147,0.21,0.06,-1.22,0.013,-0.225,9.81,-0.01,0.0,0.0
1777733166.1904404,0.2,0.06,-1.22,0.01,-0.2,9.81,-0.01,0.0,0.0
1777733166.1999617,0.2,0.06,-1.22,0.008,-0.189,9.81,0.0,0.0,0.0
1777733166.2100437,0.21,0.06,-1.22,0.008,-0.19,9.81,0.0,0.0,-0.01
1777733166.2200575,0.22,0.06,-1.22,0.006,-0.204,9.81,0.0,-0.01,-0.01
1777733166.2302349,0.22,0.06,-1.22,0.001,-0.225,9.81,-0.01,0.0,-0.01
1777733166.2399006,0.22,0.06,-1.22,0.004,-0.238,9.81,0.0,-0.01,-0.01
1777733166.2500803,0.21,0.06,-1.22,0.012,-0.218,9.81,0.0,-0.01,0.0
1777733166.259915,0.2,0.07,-1.22,0.017,-0.189,9.81,-0.01,0.0,0.0
1777733166.2698662,0.2,0.07,-1.21,0.024,-0.158,9.81,-0.01,0.0,0.0
1777733166.2803013,0.21,0.07,-1.21,0.032,-0.152,9.81,-0.01,0.0,-0.01
1777733166.2899034,0.22,0.07,-1.21,0.026,-0.174,9.81,-0.01,0.0,-0.01
1777733166.2998836,0.22,0.07,-1.21,0.025,-0.206,9.81,-0.01,0.0,-0.01
1777733166.3098953,0.22,0.07,-1.22,0.017,-0.23,9.81,-0.01,0.0,-0.01
1777733166.3199008,0.21,0.07,-1.22,0.01,-0.245,9.81,-0.01,-0.01,0.0
1777733166.329897,0.2,0.07,-1.22,0.018,-0.244,9.81,0.0,-0.01,0.0
1777733166.3399143,0.2,0.07,-1.22,0.012,-0.211,9.81,-0.01,0.0,0.0
1777733166.3498957,0.2,0.07,-1.22,0.014,-0.19,9.81,-0.01,0.0,0.0
1777733166.3598704,0.21,0.07,-1.21,0.019,-0.171,9.81,0.0,0.0,-0.01
1777733166.3698978,0.22,0.07,-1.21,0.022,-0.177,9.81,0.0,0.0,-0.01
1777733166.3799336,0.22,0.07,-1.21,0.023,-0.183,9.81,-0.01,0.0,-0.01
1777733166.3899345,0.22,0.07,-1.21,0.018,-0.201,9.81,-0.01,-0.01,-0.01
1777733166.399917,0.22,0.07,-1.22,0.017,-0.21,9.81,0.0,-0.01,0.0
1777733166.4099104,0.2,0.07,-1.22,0.018,-0.198,9.81,-0.01,-0.01,0.0
1777733166.419884,0.2,0.07,-1.22,0.023,-0.195,9.81,-0.01,-0.01,0.0
1777733166.429914,0.2,0.07,-1.22,0.03,-0.186,9.81,0.0,0.0,0.0
1777733166.4398992,0.21,0.07,-1.22,0.029,-0.196,9.81,-0.01,0.0,-0.01
1777733166.4498684,0.22,0.07,-1.22,0.014,-0.212,9.81,-0.01,0.0,-0.01
1777733166.4599173,0.22,0.07,-1.22,0.002,-0.242,9.81,0.0,0.0,-0.01
1777733166.4698613,0.22,0.07,-1.22,0.001,-0.242,9.81,0.0,0.0,-0.01
1777733166.4799073,0.21,0.07,-1.22,-0.001,-0.223,9.81,-0.01,-0.01,0.0
1777733166.4898863,0.2,0.07,-1.22,0.014,-0.183,9.81,-0.01,-0.01,0.0
1777733166.499841,0.2,0.07,-1.21,0.018,-0.158,9.81,0.0,-0.01,0.0
1777733166.5090437,0.21,0.07,-1.21,0.036,-0.141,9.81,-0.01,-0.01,-0.01
1777733166.5198758,0.22,0.07,-1.2,0.042,-0.168,9.81,-0.01,0.0,-0.01
1777733166.5298584,0.22,0.07,-1.21,0.075,-0.182,9.81,-0.01,0.0,-0.01
1777733166.5390766,0.22,0.07,-1.21,0.098,-0.208,9.81,-0.01,0.0,-0.01
1777733166.5498705,0.22,0.07,-1.22,0.108,-0.226,9.81,-0.01,0.0,-0.01
1777733166.5598578,0.21,0.06,-1.22,0.096,-0.22,9.81,-0.01,0.0,0.0
1777733166.5699136,0.2,0.04,-1.22,0.061,-0.208,9.81,-0.01,0.0,0.0
1777733166.5790777,0.2,0.03,-1.22,0.018,-0.204,9.81,0.0,0.0,0.0
1777733166.5898812,0.2,0.02,-1.22,-0.031,-0.208,9.81,-0.01,0.0,0.0
1777733166.5990584,0.2,0.01,-1.22,-0.06,-0.21,9.81,0.0,0.0,0.0
1777733166.609849,0.2,0.0,-1.22,-0.077,-0.216,9.81,-0.01,0.0,0.0
1777733166.6190522,0.2,0.0,-1.22,-0.078,-0.199,9.81,0.0,-0.01,0.0
1777733166.6292982,0.2,0.0,-1.22,-0.046,-0.177,9.81,-0.01,-0.01,-0.01
1777733166.6398802,0.21,0.02,-1.21,-0.022,-0.175,9.81,-0.01,-0.01,-0.01
1777733166.6490169,0.22,0.02,-1.21,0.022,-0.211,9.81,0.0,-0.01,-0.01
1777733166.6590273,0.22,0.04,-1.22,0.071,-0.236,9.81,0.0,-0.01,-0.01
1777733166.6698685,0.21,0.04,-1.22,0.104,-0.256,9.81,0.0,-0.01,-0.01
1777733166.6790574,0.2,0.05,-1.22,0.125,-0.232,9.81,0.0,0.0,0.0
1777733166.689035,0.2,0.05,-1.22,0.115,-0.198,9.81,0.0,0.0,0.0
1777733166.6992226,0.2,0.04,-1.21,0.075,-0.147,9.81,-0.01,0.0,0.0
1777733166.7089818,0.2,0.04,-1.2,0.035,-0.125,9.81,-0.01,0.0,0.0
1777733166.7190735,0.2,0.03,-1.2,-0.018,-0.128,9.81,-0.01,0.0,-0.01
1777733166.7289882,0.2,0.02,-1.2,-0.037,-0.177,9.81,-0.01,0.0,-0.01
1777733166.7390146,0.2,0.02,-1.21,-0.046,-0.211,9.81,-0.01,-0.01,-0.01
1777733166.7490127,0.2,0.02,-1.22,-0.025,-0.255,9.81,-0.01,-0.01,-0.01
1777733166.759046,0.2,0.03,-1.22,-0.011,-0.274,9.81,-0.01,-0.01,0.0
1777733166.768987,0.2,0.04,-1.22,0.024,-0.256,9.81,0.0,-0.01,0.0
1777733166.77909,0.19,0.04,-1.22,0.047,-0.238,9.81,0.0,-0.01,0.0
1777733166.788998,0.2,0.05,-1.21,0.065,-0.194,9.81,0.0,-0.01,0.0
1777733166.799057,0.2,0.05,-1.21,0.074,-0.165,9.81,0.0,0.0,-0.01
1777733166.8090134,0.21,0.05,-1.2,0.065,-0.156,9.81,0.0,0.0,-0.01
1777733166.81902,0.21,0.05,-1.2,0.056,-0.17,9.81,0.0,0.0,-0.01
1777733166.8289523,0.2,0.05,-1.2,0.048,-0.175,9.81,-0.01,0.0,0.0
1777733166.8389943,0.2,0.04,-1.2,0.023,-0.172,9.81,-0.01,0.0,0.0
1777733166.8489466,0.19,0.04,-1.2,0.011,-0.168,9.81,-0.01,0.0,0.0
1777733166.8589923,0.19,0.04,-1.21,0.002,-0.182,9.81,-0.01,0.0,0.0
1777733166.8689764,0.2,0.04,-1.21,0.006,-0.216,9.81,-0.01,-0.01,-0.01
1777733166.8789704,0.21,0.04,-1.22,0.007,-0.247,9.81,-0.01,-0.01,-0.01
1777733166.8889515,0.21,0.04,-1.22,0.014,-0.285,9.81,0.0,-0.01,-0.01
1777733166.898995,0.21,0.05,-1.22,0.02,-0.277,9.81,0.0,-0.01,-0.01
1777733166.9089513,0.2,0.06,-1.22,0.022,-0.241,9.81,0.0,-0.01,0.0
1777733166.9189687,0.2,0.06,-1.22,0.035,-0.206,9.81,0.0,-0.01,0.0
1777733166.9289591,0.19,0.06,-1.21,0.05,-0.156,9.81,0.0,0.0,0.0
1777733166.9389873,0.2,0.06,-1.2,0.044,-0.143,9.81,0.0,-0.01,0.0
1777733166.948956,0.2,0.06,-1.2,0.038,-0.129,9.81,-0.01,0.0,-0.01
1777733166.9589837,0.21,0.06,-1.2,0.034,-0.164,9.81,-0.01,0.0,-0.01
1777733166.9689739,0.2,0.06,-1.2,0.018,-0.183,9.81,-0.01,0.0,-0.01
1777733166.9789631,0.2,0.05,-1.21,0.006,-0.202,9.81,-0.01,0.0,0.0
1777733166.9894924,0.2,0.06,-1.21,0.011,-0.22,9.81,-0.01,0.0,0.0
1777733166.9993498,0.19,0.06,-1.22,0.014,-0.22,9.81,-0.01,-0.01,0.0
1777733167.008931,0.2,0.06,-1.22,0.022,-0.224,9.81,-0.01,0.0,0.0
1777733167.0189502,0.2,0.06,-1.22,0.018,-0.223,9.81,-0.01,-0.01,-0.01
1777733167.029436,0.21,0.06,-1.22,0.034,-0.247,9.81,0.0,0.0,-0.01
1777733167.0394151,0.21,0.06,-1.22,0.02,-0.23,9.81,0.0,-0.01,-0.01
1777733167.0493956,0.2,0.07,-1.22,0.035,-0.206,9.81,-0.01,-0.01,0.0
1777733167.0589619,0.2,0.07,-1.21,0.024,-0.188,9.81,-0.01,-0.01,0.0
1777733167.068952,0.2,0.07,-1.21,0.034,-0.169,9.81,0.0,-0.01,0.0
1777733167.078977,0.2,0.06,-1.2,0.041,-0.159,9.81,-0.01,0.0,0.0
1777733167.088963,0.2,0.06,-1.2,0.041,-0.174,9.81,-0.01,0.0,-0.01
1777733167.0994487,0.2,0.07,-1.21,0.038,-0.208,9.81,-0.01,0.0,-0.01
1777733167.1089978,0.2,0.07,-1.22,0.025,-0.226,9.81,-0.01,0.0,-0.01
1777733167.1189792,0.2,0.07,-1.22,0.029,-0.248,9.81,-0.01,0.0,-0.01
1777733167.1289425,0.2,0.07,-1.22,0.016,-0.26,9.81,-0.01,-0.01,0.0
1777733167.1390052,0.19,0.06,-1.22,0.012,-0.244,9.81,0.0,-0.01,0.0
1777733167.1489377,0.19,0.07,-1.22,0.011,-0.219,9.81,0.0,-0.01,0.0
1777733167.158996,0.19,0.06,-1.22,0.023,-0.192,9.81,-0.01,-0.01,-0.01
1777733167.1689754,0.2,0.07,-1.21,0.012,-0.193,9.81,0.0,0.0,-0.01
1777733167.1789758,0.2,0.07,-1.21,0.016,-0.201,9.81,0.0,-0.01,-0.01
1777733167.1889546,0.2,0.07,-1.21,0.026,-0.19,9.81,-0.01,-0.01,-0.01
1777733167.1989386,0.2,0.07,-1.21,0.031,-0.176,9.81,-0.01,-0.01,0.0
1777733167.2100704,0.2,0.08,-1.21,0.037,-0.157,9.81,-0.01,0.0,0.0
1777733167.2190092,0.2,0.08,-1.21,0.047,-0.156,9.81,-0.01,0.0,0.0
1777733167.2289565,0.2,0.08,-1.21,0.041,-0.183,9.81,-0.01,0.0,-0.01
1777733167.2389922,0.2,0.07,-1.21,0.026,-0.225,9.81,0.0,0.0,-0.01
1777733167.2489038,0.2,0.07,-1.22,0.01,-0.254,9.81,0.0,0.0,-0.01
1777733167.258947,0.2,0.07,-1.22,0.0,-0.256,9.81,-0.01,0.0,-0.01
1777733167.2689521,0.19,0.06,-1.22,-0.006,-0.23,9.81,-0.01,0.0,0.0
1777733167.2789538,0.19,0.07,-1.22,0.001,-0.193,9.81,0.0,-0.01,0.0
