timestamp,yaw,pitch,roll,accel_x,accel_y,accel_z,gyro_x,gyro_y,gyro_z
1777733753.440779,0.88,-0.72,0.28,-0.145,0.048,9.809,0.0,0.0,0.0
1777733753.4508345,0.88,-0.72,0.28,-0.133,0.042,9.809,0.0,0.0,-0.01
1777733753.4607527,0.87,-0.72,0.29,-0.126,0.047,9.809,-0.01,-0.01,0.0
1777733753.4709013,0.86,-0.71,0.29,-0.116,0.034,9.809,0.0,-0.01,0.0
1777733753.48077,0.86,-0.71,0.28,-0.115,0.057,9.809,0.0,-0.01,0.0
1777733753.4899507,0.86,-0.71,0.29,-0.111,0.059,9.809,-0.01,-0.01,0.0
1777733753.5007787,0.86,-0.71,0.29,-0.125,0.061,9.809,0.0,0.0,-0.01
1777733753.5099223,0.87,-0.71,0.29,-0.114,0.061,9.809,0.0,0.0,-0.01
1777733753.5207913,0.88,-0.71,0.29,-0.116,0.037,9.809,0.0,0.0,-0.01
1777733753.5299137,0.88,-0.71,0.29,-0.12,0.024,9.809,0.0,0.0,-0.01
1777733753.5408328,0.88,-0.71,0.28,-0.122,0.025,9.809,0.0,0.0,-0.01
1777733753.5500035,0.88,-0.71,0.29,-0.126,0.03,9.809,0.0,-0.01,0.0
1777733753.5608144,0.87,-0.71,0.29,-0.132,0.034,9.809,0.0,-0.01,0.0
1777733753.569941,0.87,-0.71,0.29,-0.131,0.049,9.809,0.0,-0.01,0.0
1777733753.5799308,0.87,-0.71,0.29,-0.122,0.054,9.809,0.0,0.0,0.0
1777733753.589935,0.88,-0.71,0.29,-0.116,0.066,9.809,-0.01,-0.01,-0.01
1777733753.6000545,0.88,-0.71,0.29,-0.105,0.063,9.809,-0.01,0.0,-0.01
1777733753.6101449,0.88,-0.7,0.3,-0.104,0.046,9.809,0.0,0.0,-0.01
1777733753.6202521,0.88,-0.7,0.29,-0.103,0.062,9.809,-0.01,0.0,-0.01
1777733753.6299696,0.88,-0.7,0.29,-0.104,0.055,9.809,0.0,0.0,0.0
1777733753.6399689,0.88,-0.7,0.3,-0.126,0.062,9.809,0.0,0.0,0.0
1777733753.6500063,0.88,-0.71,0.29,-0.131,0.049,9.809,0.0,-0.01,-0.01
1777733753.6600008,0.88,-0.71,0.3,-0.135,0.046,9.809,-0.01,0.0,-0.01
1777733753.6701915,0.88,-0.71,0.29,-0.129,0.036,9.809,-0.01,0.0,-0.01
1777733753.6803439,0.88,-0.71,0.29,-0.125,0.028,9.809,-0.01,0.0,-0.01
1777733753.6902,0.87,-0.71,0.29,-0.109,0.047,9.809,-0.01,-0.01,0.0
1777733753.7002923,0.86,-0.7,0.29,-0.108,0.049,9.809,0.0,-0.01,0.0
1777733753.7103064,0.86,-0.7,0.29,-0.111,0.073,9.809,-0.01,-0.01,0.0
1777733753.720331,0.86,-0.7,0.3,-0.115,0.068,9.809,0.0,-0.01,0.0
1777733753.7300606,0.87,-0.7,0.3,-0.119,0.065,9.809,0.0,0.0,-0.01
1777733753.7400408,0.88,-0.71,0.3,-0.117,0.048,9.809,0.0,0.0,-0.01
1777733753.7500846,0.88,-0.71,0.29,-0.114,0.03,9.809,-0.01,0.0,-0.01
1777733753.760076,0.88,-0.71,0.29,-0.113,0.018,9.809,0.0,0.0,-0.01
1777733753.7700725,0.88,-0.71,0.29,-0.109,0.007,9.809,0.0,-0.01,0.0
1777733753.7801108,0.86,-0.71,0.29,-0.105,0.01,9.809,0.0,0.0,0.0
1777733753.790067,0.85,-0.7,0.29,-0.113,0.034,9.809,0.0,0.0,0.01
1777733753.8000965,0.84,-0.71,0.29,-0.122,0.06,9.809,0.0,-0.01,0.0
1777733753.8100815,0.84,-0.71,0.3,-0.138,0.096,9.809,-0.01,-0.01,0.0
1777733753.8201182,0.85,-0.71,0.3,-0.146,0.093,9.809,0.0,-0.01,-0.01
1777733753.8301125,0.86,-0.71,0.3,-0.152,0.116,9.809,-0.01,-0.01,-0.01
1777733753.8402107,0.88,-0.71,0.3,-0.133,0.079,9.809,-0.01,0.0,-0.01
1777733753.8501577,0.88,-0.71,0.3,-0.123,0.056,9.809,-0.01,0.0,-0.01
1777733753.8601592,0.88,-0.71,0.3,-0.107,0.032,9.809,-0.01,-0.01,-0.01
1777733753.8701339,0.88,-0.7,0.29,-0.11,0.004,9.809,-0.01,-0.01,0.0
1777733753.8801816,0.86,-0.7,0.28,-0.116,0.011,9.809,-0.01,-0.01,0.0
1777733753.8905585,0.86,-0.71,0.28,-0.115,0.002,9.809,0.0,0.0,0.0
1777733753.900257,0.86,-0.71,0.29,-0.123,0.031,9.809,0.0,0.0,0.0
1777733753.9106312,0.86,-0.71,0.29,-0.12,0.053,9.809,0.0,-0.01,0.0
1777733753.9206123,0.86,-0.71,0.3,-0.139,0.056,9.809,0.0,-0.01,-0.01
1777733753.9302032,0.87,-0.71,0.3,-0.144,0.084,9.809,0.0,-0.01,-0.01
1777733753.9402096,0.87,-0.71,0.3,-0.134,0.075,9.809,0.0,0.0,-0.01
1777733753.950196,0.88,-0.71,0.3,-0.127,0.061,9.809,0.0,-0.01,-0.01
1777733753.9602125,0.87,-0.71,0.3,-0.12,0.056,9.809,0.0,0.0,-0.01
1777733753.9702141,0.87,-0.71,0.3,-0.117,0.054,9.809,-0.01,-0.01,0.0
1777733753.9802456,0.86,-0.71,0.3,-0.122,0.043,9.809,-0.01,-0.01,0.0
1777733753.9902291,0.86,-0.7,0.3,-0.123,0.05,9.809,0.0,0.0,0.0
1777733754.000266,0.86,-0.71,0.3,-0.12,0.05,9.809,-0.01,-0.01,0.0
1777733754.0102618,0.87,-0.71,0.3,-0.125,0.049,9.809,-0.01,0.0,-0.01
1777733754.0202878,0.87,-0.71,0.3,-0.119,0.04,9.809,0.0,0.0,-0.01
1777733754.0303133,0.88,-0.71,0.29,-0.117,0.03,9.809,-0.01,0.0,-0.01
1777733754.0402792,0.87,-0.71,0.29,-0.114,0.017,9.809,0.0,0.0,-0.01
1777733754.0502815,0.87,-0.71,0.3,-0.117,0.023,9.809,-0.01,-0.01,0.0
1777733754.0603,0.86,-0.7,0.29,-0.121,0.049,9.809,0.0,0.0,0.0
1777733754.0702932,0.86,-0.7,0.3,-0.12,0.047,9.809,-0.01,-0.01,0.0
1777733754.081025,0.86,-0.7,0.3,-0.125,0.055,9.809,0.0,0.0,0.0
1777733754.090817,0.86,-0.7,0.3,-0.138,0.075,9.809,0.0,-0.01,-0.01
1777733754.100343,0.87,-0.71,0.3,-0.119,0.059,9.809,-0.01,0.0,-0.01
1777733754.1103067,0.88,-0.7,0.3,-0.131,0.053,9.809,0.0,0.0,-0.01
1777733754.12031,0.88,-0.71,0.3,-0.121,0.036,9.809,-0.01,-0.01,-0.01
1777733754.1303563,0.88,-0.7,0.29,-0.127,0.025,9.809,-0.01,0.0,-0.01
1777733754.1404073,0.88,-0.7,0.29,-0.121,0.035,9.809,-0.01,-0.01,-0.01
1777733754.150325,0.88,-0.71,0.29,-0.121,0.016,9.809,-0.01,-0.01,0.0
1777733754.1603456,0.87,-0.7,0.29,-0.119,0.024,9.809,0.0,0.0,0.0
1777733754.1703928,0.86,-0.7,0.28,-0.116,0.03,9.809,0.0,0.0,0.0
1777733754.180358,0.86,-0.7,0.29,-0.117,0.042,9.809,0.0,-0.01,0.0
1777733754.1904533,0.86,-0.7,0.29,-0.129,0.065,9.809,0.0,0.0,0.0
1777733754.2004113,0.86,-0.71,0.3,-0.135,0.065,9.809,0.0,-0.01,0.0
1777733754.210364,0.86,-0.71,0.3,-0.134,0.08,9.809,0.0,0.0,-0.01
1777733754.220416,0.87,-0.71,0.3,-0.127,0.062,9.809,-0.01,0.0,-0.01
1777733754.2303877,0.87,-0.71,0.3,-0.123,0.067,9.809,0.0,0.0,-0.01
1777733754.2404335,0.87,-0.71,0.29,-0.101,0.037,9.809,-0.01,0.0,-0.01
1777733754.2510197,0.86,-0.7,0.29,-0.103,0.048,9.809,-0.01,0.0,0.0
1777733754.261218,0.86,-0.7,0.29,-0.107,0.042,9.809,0.0,-0.01,0.0
1777733754.2715695,0.86,-0.7,0.29,-0.125,0.043,9.809,-0.01,0.0,0.0
1777733754.2808363,0.86,-0.71,0.29,-0.139,0.055,9.809,0.0,0.0,0.0
1777733754.2904594,0.86,-0.72,0.29,-0.14,0.043,9.809,-0.01,0.0,-0.01
1777733754.3007948,0.87,-0.72,0.28,-0.14,0.031,9.809,0.0,0.0,-0.01
1777733754.310726,0.87,-0.72,0.28,-0.134,0.02,9.809,-0.01,-0.01,-0.01
1777733754.3205338,0.87,-0.71,0.28,-0.129,0.035,9.809,0.0,0.0,-0.01
1777733754.329689,0.86,-0.71,0.29,-0.119,0.036,9.809,0.0,-0.01,0.0
1777733754.3405354,0.85,-0.71,0.29,-0.113,0.048,9.809,0.0,-0.01,0.0
1777733754.3496475,0.84,-0.71,0.29,-0.127,0.074,9.809,0.0,-0.01,0.0
1777733754.3604636,0.84,-0.71,0.3,-0.117,0.072,9.809,-0.01,0.0,0.0
1777733754.3696618,0.85,-0.71,0.3,-0.133,0.071,9.809,0.0,-0.01,-0.01
1777733754.3805285,0.86,-0.71,0.3,-0.121,0.059,9.809,-0.01,0.0,-0.01
1777733754.3896492,0.87,-0.71,0.29,-0.121,0.048,9.809,0.0,0.0,-0.01
1777733754.3996742,0.88,-0.71,0.29,-0.109,0.023,9.809,-0.01,-0.01,-0.01
1777733754.4096735,0.88,-0.71,0.28,-0.117,0.019,9.809,0.0,0.0,-0.01
1777733754.420514,0.87,-0.71,0.28,-0.121,0.02,9.809,-0.01,-0.01,0.0
1777733754.4297416,0.86,-0.71,0.28,-0.127,0.025,9.809,0.0,0.0,0.0
1777733754.4397328,0.86,-0.71,0.29,-0.143,0.035,9.809,0.0,-0.01,0.0
1777733754.450034,0.86,-0.71,0.29,-0.139,0.036,9.809,0.0,0.0,0.0
1777733754.4597309,0.86,-0.71,0.29,-0.131,0.05,9.809,0.0,0.0,0.0
1777733754.470252,0.86,-0.71,0.29,-0.123,0.065,9.809,-0.01,-0.01,-0.01
1777733754.4796522,0.86,-0.71,0.29,-0.132,0.062,9.809,-0.01,-0.01,-0.01
1777733754.4900584,0.86,-0.71,0.3,-0.143,0.067,9.809,0.0,-0.01,-0.01
1777733754.5000265,0.86,-0.71,0.29,-0.125,0.065,9.809,0.0,0.0,-0.01
1777733754.5102193,0.86,-0.71,0.29,-0.121,0.047,9.809,-0.01,0.0,-0.01
1777733754.520221,0.87,-0.71,0.29,-0.116,0.038,9.809,-0.01,-0.01,-0.01
1777733754.53021,0.87,-0.7,0.28,-0.115,0.017,9.809,-0.01,-0.01,-0.01
1777733754.5399082,0.86,-0.71,0.28,-0.117,0.018,9.809,0.0,-0.01,0.0
1777733754.5502203,0.86,-0.71,0.28,-0.123,0.01,9.809,0.0,0.0,0.0
1777733754.5602083,0.86,-0.71,0.28,-0.133,0.018,9.809,0.0,0.0,0.0
1777733754.5701652,0.86,-0.71,0.28,-0.123,0.041,9.809,0.0,0.0,0.0
1777733754.5801802,0.86,-0.71,0.29,-0.133,0.044,9.809,0.0,-0.01,0.0
1777733754.5902433,0.86,-0.71,0.29,-0.138,0.073,9.809,-0.01,-0.01,-0.01
1777733754.6003773,0.86,-0.71,0.29,-0.138,0.079,9.809,0.0,-0.01,-0.01
1777733754.6102984,0.86,-0.71,0.3,-0.127,0.079,9.809,-0.01,0.0,-0.01
1777733754.620267,0.87,-0.71,0.3,-0.113,0.056,9.809,0.0,0.0,-0.01
1777733754.6302154,0.87,-0.7,0.29,-0.113,0.042,9.809,0.0,-0.01,-0.01
1777733754.6399248,0.87,-0.71,0.29,-0.104,0.028,9.809,-0.01,-0.01,-0.01
1777733754.6497817,0.87,-0.7,0.28,-0.101,0.012,9.809,-0.01,0.0,0.0
1777733754.6598072,0.86,-0.71,0.28,-0.104,0.017,9.809,0.0,0.0,0.0
1777733754.6698267,0.85,-0.71,0.28,-0.108,0.017,9.809,0.0,0.0,0.0
1777733754.679792,0.84,-0.71,0.28,-0.126,0.043,9.809,0.0,0.0,0.0
1777733754.6898234,0.84,-0.71,0.28,-0.145,0.056,9.809,-0.01,-0.01,0.0
1777733754.699829,0.84,-0.71,0.29,-0.148,0.071,9.809,-0.01,-0.01,0.0
1777733754.7103603,0.86,-0.72,0.29,-0.144,0.073,9.809,-0.01,0.0,-0.01
1777733754.720285,0.86,-0.72,0.29,-0.135,0.054,9.809,0.0,0.0,-0.01
1777733754.7307985,0.87,-0.72,0.28,-0.121,0.029,9.809,0.0,0.0,-0.01
1777733754.7402945,0.86,-0.71,0.28,-0.103,0.019,9.809,-0.01,-0.01,-0.01
1777733754.750529,0.86,-0.7,0.27,-0.102,0.026,9.809,-0.01,-0.01,0.0
1777733754.7599204,0.86,-0.7,0.28,-0.102,0.029,9.809,0.0,-0.01,0.0
1777733754.7703938,0.86,-0.7,0.28,-0.105,0.042,9.809,0.0,0.0,0.0
1777733754.7799337,0.86,-0.71,0.28,-0.104,0.042,9.809,0.0,0.0,0.0
1777733754.790335,0.86,-0.7,0.28,-0.117,0.055,9.809,0.0,0.0,-0.01
1777733754.800514,0.86,-0.71,0.28,-0.125,0.065,9.809,-0.01,-0.01,-0.01
1777733754.8099217,0.86,-0.71,0.28,-0.131,0.047,9.809,-0.01,0.0,-0.01
1777733754.8198986,0.86,-0.71,0.29,-0.144,0.059,9.809,-0.01,-0.01,0.0
1777733754.829937,0.86,-0.71,0.29,-0.125,0.047,9.809,0.0,0.0,0.0
1777733754.839947,0.86,-0.71,0.28,-0.135,0.041,9.809,-0.01,-0.01,0.0
1777733754.8503292,0.86,-0.71,0.28,-0.125,0.037,9.809,-0.01,-0.01,0.0
1777733754.8599348,0.86,-0.71,0.28,-0.128,0.032,9.809,-0.01,0.0,-0.01
1777733754.870374,0.86,-0.71,0.28,-0.116,0.019,9.809,0.0,0.0,-0.01
1777733754.8799696,0.86,-0.71,0.28,-0.107,0.02,9.809,0.0,0.0,-0.01
1777733754.8899038,0.86,-0.71,0.28,-0.105,0.022,9.809,0.0,0.0,-0.01
1777733754.8999794,0.86,-0.7,0.28,-0.117,0.034,9.809,0.0,0.0,-0.01
1777733754.9104023,0.86,-0.71,0.29,-0.123,0.047,9.809,0.0,-0.01,0.0
1777733754.9200191,0.86,-0.71,0.3,-0.128,0.062,9.809,0.0,-0.01,-0.01
1777733754.9302864,0.86,-0.71,0.3,-0.134,0.065,9.809,0.0,0.0,0.0
1777733754.9403715,0.86,-0.71,0.3,-0.127,0.078,9.809,0.0,0.0,0.0
1777733754.950831,0.86,-0.71,0.3,-0.133,0.093,9.809,-0.01,0.0,0.0
1777733754.9606812,0.86,-0.71,0.3,-0.132,0.085,9.809,-0.01,-0.01,0.0
1777733754.970586,0.86,-0.71,0.3,-0.14,0.087,9.809,-0.01,-0.01,0.0
1777733754.980697,0.86,-0.71,0.3,-0.126,0.063,9.809,-0.01,-0.01,0.0
1777733754.990036,0.86,-0.71,0.3,-0.123,0.066,9.809,-0.01,0.0,-0.01
1777733754.9999757,0.86,-0.71,0.3,-0.114,0.024,9.809,-0.01,-0.01,-0.01
1777733755.0100193,0.87,-0.71,0.29,-0.115,0.043,9.809,-0.01,0.0,-0.01
1777733755.020038,0.88,-0.71,0.29,-0.116,-0.006,9.809,-0.01,0.0,-0.01
1777733755.030081,0.88,-0.71,0.28,-0.122,0.016,9.809,0.0,0.0,-0.01
1777733755.0400856,0.87,-0.72,0.28,-0.109,0.012,9.809,0.0,0.0,-0.01
1777733755.0500553,0.86,-0.72,0.29,-0.113,0.031,9.809,0.0,0.0,0.0
1777733755.0600352,0.85,-0.71,0.29,-0.115,0.053,9.809,0.0,0.0,0.0
1777733755.0700316,0.83,-0.71,0.3,-0.127,0.066,9.809,0.0,-0.01,0.0
1777733755.0800698,0.83,-0.72,0.3,-0.144,0.102,9.809,0.0,-0.01,0.0
1777733755.0900397,0.84,-0.72,0.3,-0.138,0.092,9.809,-0.01,-0.01,-0.01
1777733755.1000648,0.86,-0.72,0.3,-0.141,0.092,9.809,-0.01,0.0,-0.01
1777733755.1091454,0.87,-0.72,0.3,-0.129,0.057,9.809,0.0,0.0,-0.02
1777733755.120402,0.88,-0.72,0.3,-0.117,0.032,9.809,-0.01,-0.01,-0.01
1777733755.129166,0.88,-0.72,0.29,-0.102,0.017,9.809,-0.01,-0.01,-0.01
1777733755.1391892,0.87,-0.71,0.29,-0.104,0.005,9.809,-0.01,-0.01,0.0
1777733755.1503377,0.86,-0.71,0.29,-0.104,0.013,9.809,-0.01,-0.01,0.0
1777733755.1601233,0.86,-0.71,0.29,-0.114,0.026,9.809,0.0,0.0,0.0
1777733755.1692424,0.85,-0.71,0.3,-0.113,0.038,9.809,-0.01,0.0,0.0
1777733755.17991,0.85,-0.71,0.3,-0.133,0.067,9.809,0.0,0.0,0.0
1777733755.189194,0.86,-0.72,0.3,-0.138,0.075,9.809,0.0,-0.01,-0.01
1777733755.1991947,0.86,-0.72,0.3,-0.141,0.06,9.809,-0.01,0.0,-0.01
1777733755.2092388,0.87,-0.72,0.3,-0.138,0.073,9.809,0.0,-0.01,-0.01
1777733755.2193048,0.87,-0.72,0.3,-0.127,0.048,9.809,-0.01,0.0,-0.01
1777733755.2292855,0.86,-0.72,0.3,-0.126,0.051,9.809,0.0,0.0,0.0
1777733755.2392373,0.86,-0.72,0.3,-0.119,0.05,9.809,0.0,-0.01,0.0
1777733755.249284,0.86,-0.72,0.3,-0.12,0.038,9.809,-0.01,-0.01,0.0
1777733755.2593763,0.85,-0.72,0.3,-0.121,0.043,9.809,0.0,-0.01,0.0
1777733755.2692635,0.86,-0.72,0.3,-0.113,0.044,9.809,-0.01,0.0,0.0
1777733755.2793293,0.86,-0.72,0.3,-0.121,0.037,9.809,0.0,0.0,-0.01
1777733755.2892714,0.86,-0.72,0.3,-0.11,0.03,9.809,0.0,0.0,-0.01
1777733755.2992766,0.87,-0.71,0.29,-0.11,0.013,9.809,0.0,0.0,-0.01
1777733755.3093286,0.87,-0.72,0.29,-0.115,0.032,9.809,-0.01,-0.01,-0.01
1777733755.3197825,0.86,-0.72,0.29,-0.115,0.042,9.809,0.0,0.0,0.0
1777733755.3292954,0.86,-0.72,0.3,-0.133,0.049,9.809,0.0,-0.01,0.0
1777733755.3393753,0.85,-0.72,0.3,-0.128,0.074,9.809,0.0,0.0,0.0
1777733755.349307,0.85,-0.72,0.3,-0.131,0.072,9.809,0.0,-0.01,0.0
1777733755.3599825,0.86,-0.72,0.3,-0.138,0.068,9.809,0.0,0.0,-0.01
1777733755.369296,0.86,-0.72,0.3,-0.123,0.068,9.809,0.0,-0.01,-0.01
1777733755.3794394,0.87,-0.72,0.3,-0.132,0.046,9.809,-0.01,-0.01,-0.01
1777733755.3898098,0.88,-0.72,0.3,-0.113,0.036,9.809,-0.01,0.0,-0.01
1777733755.3993914,0.87,-0.72,0.3,-0.116,0.011,9.809,0.0,0.0,-0.01
1777733755.4093947,0.86,-0.72,0.3,-0.097,0.013,9.809,-0.01,0.0,0.0
1777733755.419465,0.85,-0.71,0.29,-0.099,0.034,9.809,0.0,0.0,0.0
1777733755.4294066,0.83,-0.72,0.3,-0.117,0.046,9.809,0.0,-0.01,0.01
1777733755.439353,0.83,-0.72,0.3,-0.133,0.077,9.809,0.0,0.0,0.0
1777733755.4493837,0.84,-0.72,0.3,-0.148,0.071,9.809,0.0,-0.01,-0.01
1777733755.45936,0.86,-0.72,0.3,-0.15,0.079,9.809,-0.01,0.0,-0.01
1777733755.469356,0.87,-0.72,0.3,-0.14,0.057,9.809,-0.01,0.0,-0.02
1777733755.4794686,0.87,-0.72,0.3,-0.127,0.04,9.809,-0.01,0.0,-0.01
1777733755.4893813,0.86,-0.72,0.3,-0.113,0.023,9.809,-0.01,-0.01,-0.01
1777733755.4999266,0.85,-0.72,0.29,-0.107,0.025,9.809,0.0,-0.01,0.0
1777733755.5094407,0.84,-0.72,0.3,-0.103,0.028,9.809,-0.01,-0.01,0.01
1777733755.5194385,0.83,-0.71,0.3,-0.114,0.053,9.809,0.0,0.0,0.0
1777733755.5293915,0.83,-0.72,0.3,-0.113,0.057,9.809,-0.01,-0.01,0.0
1777733755.5394306,0.85,-0.72,0.3,-0.134,0.055,9.809,0.0,0.0,-0.01
1777733755.5497618,0.86,-0.72,0.3,-0.122,0.051,9.809,0.0,0.0,-0.01
1777733755.5594199,0.87,-0.72,0.3,-0.129,0.034,9.809,0.0,0.0,-0.01
1777733755.5694973,0.88,-0.72,0.3,-0.133,0.04,9.809,-0.01,-0.01,-0.01
1777733755.5795124,0.87,-0.72,0.3,-0.131,0.042,9.809,0.0,0.0,-0.01
1777733755.58959,0.86,-0.72,0.3,-0.134,0.055,9.809,-0.01,-0.01,0.0
1777733755.599454,0.86,-0.72,0.3,-0.126,0.048,9.809,0.0,0.0,0.0
1777733755.6098583,0.86,-0.72,0.3,-0.133,0.066,9.809,-0.01,-0.01,0.0
1777733755.619525,0.86,-0.72,0.3,-0.122,0.072,9.809,0.0,-0.01,0.0
1777733755.629855,0.86,-0.72,0.3,-0.113,0.069,9.809,-0.01,0.0,-0.01
1777733755.639718,0.86,-0.72,0.3,-0.113,0.047,9.809,-0.01,0.0,-0.01
1777733755.650164,0.86,-0.72,0.3,-0.107,0.071,9.809,-0.01,-0.01,-0.01
1777733755.6595683,0.86,-0.72,0.3,-0.119,0.051,9.809,-0.01,0.0,0.0
1777733755.6697595,0.86,-0.72,0.3,-0.121,0.042,9.809,0.0,-0.01,0.0
1777733755.6795087,0.86,-0.72,0.3,-0.122,0.038,9.809,0.0,0.0,-0.01
1777733755.6894894,0.86,-0.72,0.3,-0.126,0.037,9.809,-0.01,-0.01,-0.01
1777733755.6997619,0.86,-0.72,0.3,-0.123,0.029,9.809,0.0,0.0,-0.01
1777733755.70958,0.87,-0.72,0.3,-0.129,0.026,9.809,0.0,-0.01,-0.01
1777733755.720085,0.87,-0.72,0.29,-0.113,0.016,9.809,0.0,-0.01,-0.01
1777733755.7301733,0.87,-0.71,0.29,-0.114,0.008,9.809,0.0,-0.01,-0.01
1777733755.7396333,0.86,-0.71,0.29,-0.11,0.019,9.809,0.0,-0.01,0.0
1777733755.7499764,0.86,-0.71,0.29,-0.109,0.048,9.809,0.0,0.0,0.0
1777733755.7598104,0.85,-0.71,0.3,-0.116,0.054,9.809,0.0,-0.01,0.0
1777733755.7701774,0.85,-0.71,0.3,-0.126,0.063,9.809,0.0,-0.01,0.0
1777733755.7796357,0.86,-0.71,0.3,-0.128,0.092,9.809,-0.01,0.0,-0.01
1777733755.7897527,0.86,-0.72,0.3,-0.131,0.083,9.809,-0.01,0.0,-0.01
1777733755.7995603,0.87,-0.72,0.3,-0.126,0.066,9.809,-0.01,0.0,-0.01
1777733755.8097699,0.86,-0.72,0.3,-0.126,0.038,9.809,0.0,0.0,-0.01
1777733755.8190007,0.86,-0.72,0.29,-0.107,0.025,9.809,-0.01,0.0,0.0
1777733755.8296235,0.85,-0.72,0.29,-0.111,0.02,9.809,-0.01,0.0,0.0
1777733755.8387733,0.84,-0.72,0.28,-0.125,0.018,9.809,0.0,-0.01,0.0
1777733755.8500738,0.83,-0.72,0.29,-0.131,0.037,9.809,-0.01,-0.01,0.0
1777733755.8596656,0.84,-0.72,0.29,-0.134,0.043,9.809,0.0,0.0,0.0
1777733755.8696084,0.84,-0.72,0.29,-0.134,0.041,9.809,0.0,0.0,-0.01
1777733755.8797262,0.85,-0.72,0.3,-0.131,0.046,9.809,0.0,0.0,-0.01
1777733755.8887463,0.86,-0.72,0.3,-0.113,0.038,9.809,0.0,0.0,-0.01
1777733755.8996289,0.86,-0.72,0.29,-0.12,0.031,9.809,0.0,0.0,-0.01
1777733755.908791,0.86,-0.72,0.29,-0.11,0.046,9.809,-0.01,-0.01,0.0
1777733755.9196446,0.85,-0.72,0.29,-0.113,0.062,9.809,-0.01,0.0,0.0
1777733755.928781,0.84,-0.72,0.3,-0.119,0.062,9.809,0.0,-0.01,0.0
1777733755.938808,0.84,-0.72,0.3,-0.117,0.062,9.809,0.0,0.0,0.0
1777733755.948797,0.85,-0.72,0.3,-0.128,0.069,9.809,-0.01,-0.01,-0.01
1777733755.9588232,0.86,-0.72,0.3,-0.125,0.059,9.809,-0.01,0.0,-0.01
1777733755.968809,0.86,-0.72,0.29,-0.128,0.037,9.809,-0.01,0.0,-0.01
1777733755.978818,0.87,-0.72,0.29,-0.125,0.014,9.809,0.0,-0.01,-0.01
1777733755.9890332,0.86,-0.72,0.28,-0.123,0.018,9.809,0.0,0.0,-0.01
1777733755.9993174,0.86,-0.72,0.28,-0.117,0.002,9.809,0.0,-0.01,0.0
1777733756.0094457,0.86,-0.72,0.28,-0.126,0.02,9.809,0.0,-0.01,0.0
1777733756.018889,0.85,-0.72,0.28,-0.12,0.035,9.809,0.0,-0.01,0.0
1777733756.0288556,0.84,-0.72,0.29,-0.119,0.05,9.809,-0.01,0.0,0.0
1777733756.0388758,0.84,-0.72,0.29,-0.116,0.066,9.809,0.0,-0.01,0.0
1777733756.0488667,0.84,-0.72,0.29,-0.119,0.081,9.809,0.0,0.0,0.0
1777733756.0588439,0.85,-0.72,0.29,-0.127,0.073,9.809,-0.01,-0.01,-0.01
1777733756.068824,0.86,-0.72,0.29,-0.123,0.06,9.809,-0.01,-0.01,-0.01
1777733756.0788546,0.86,-0.72,0.29,-0.119,0.048,9.809,-0.01,0.0,-0.01
1777733756.0888488,0.86,-0.72,0.28,-0.122,0.028,9.809,-0.01,0.0,-0.01
1777733756.0988817,0.86,-0.72,0.28,-0.114,0.019,9.809,0.0,0.0,-0.01
1777733756.1088414,0.86,-0.72,0.27,-0.125,0.012,9.809,0.0,-0.01,0.0
1777733756.1188998,0.86,-0.72,0.28,-0.125,0.022,9.809,-0.01,-0.01,0.0
1777733756.1288629,0.86,-0.71,0.27,-0.122,0.03,9.809,0.0,-0.01,0.0
1777733756.138915,0.86,-0.71,0.28,-0.132,0.041,9.809,0.0,-0.01,-0.01
1777733756.148867,0.86,-0.72,0.28,-0.121,0.046,9.809,0.0,0.0,-0.01
1777733756.1589277,0.87,-0.72,0.29,-0.125,0.044,9.809,0.0,0.0,-0.01
1777733756.168892,0.87,-0.72,0.29,-0.117,0.04,9.809,0.0,-0.01,-0.01
1777733756.178918,0.86,-0.72,0.28,-0.11,0.04,9.809,0.0,0.0,0.0
1777733756.188907,0.86,-0.71,0.29,-0.114,0.035,9.809,-0.01,-0.01,0.0
1777733756.198975,0.85,-0.71,0.28,-0.114,0.062,9.809,0.0,0.0,0.0
1777733756.208947,0.84,-0.71,0.29,-0.116,0.065,9.809,-0.01,-0.01,0.0
1777733756.2189684,0.83,-0.71,0.29,-0.123,0.067,9.809,0.0,0.0,0.0
1777733756.2289436,0.84,-0.72,0.3,-0.127,0.087,9.809,0.0,0.0,0.0
1777733756.2389936,0.86,-0.72,0.29,-0.131,0.051,9.809,-0.01,0.0,-0.01
1777733756.248956,0.86,-0.72,0.29,-0.139,0.059,9.809,-0.01,-0.01,-0.01
1777733756.2590592,0.87,-0.72,0.28,-0.128,0.025,9.809,-0.01,-0.01,-0.01
1777733756.268975,0.87,-0.72,0.28,-0.123,0.032,9.809,0.0,0.0,-0.01
1777733756.2790253,0.86,-0.72,0.28,-0.113,0.013,9.809,0.0,-0.01,0.0
1777733756.2890232,0.85,-0.71,0.27,-0.116,0.036,9.809,-0.01,-0.01,0.0
1777733756.298983,0.84,-0.71,0.27,-0.12,0.044,9.809,-0.01,-0.01,0.0
1777733756.3089962,0.84,-0.71,0.28,-0.117,0.063,9.809,0.0,-0.01,0.0
1777733756.3190742,0.84,-0.71,0.28,-0.132,0.067,9.809,0.0,0.0,0.0
1777733756.3289962,0.86,-0.72,0.29,-0.123,0.054,9.809,0.0,0.0,-0.01
1777733756.339303,0.86,-0.72,0.28,-0.129,0.059,9.809,0.0,0.0,-0.01
1777733756.3490279,0.88,-0.72,0.28,-0.126,0.029,9.809,-0.01,0.0,-0.01
1777733756.3590875,0.87,-0.72,0.27,-0.129,0.02,9.809,-0.01,-0.01,-0.01
1777733756.3690562,0.86,-0.72,0.27,-0.121,0.017,9.809,0.0,-0.01,0.0
1777733756.379036,0.86,-0.72,0.27,-0.113,0.014,9.809,0.0,0.0,0.0
1777733756.3890707,0.84,-0.71,0.27,-0.121,0.047,9.809,0.0,0.0,0.0
1777733756.3990333,0.83,-0.71,0.28,-0.126,0.063,9.809,0.0,-0.01,0.0
1777733756.4090965,0.84,-0.71,0.29,-0.135,0.085,9.809,0.0,-0.01,0.0
1777733756.4190583,0.85,-0.71,0.29,-0.143,0.092,9.809,0.0,-0.01,-0.01
1777733756.4290988,0.86,-0.72,0.3,-0.134,0.08,9.809,-0.01,0.0,-0.01
1777733756.439104,0.88,-0.71,0.29,-0.131,0.069,9.809,-0.01,-0.01,-0.02
1777733756.4491875,0.88,-0.72,0.29,-0.109,0.031,9.809,-0.01,-0.01,-0.01
1777733756.459101,0.88,-0.71,0.28,-0.111,0.018,9.809,0.0,0.0,-0.01
1777733756.4690714,0.86,-0.71,0.27,-0.104,0.026,9.809,-0.01,-0.01,0.0
1777733756.4790897,0.85,-0.71,0.27,-0.108,0.035,9.809,-0.01,-0.01,0.01
1777733756.4892895,0.84,-0.71,0.27,-0.11,0.046,9.809,-0.01,-0.01,0.01
1777733756.4995637,0.83,-0.71,0.28,-0.122,0.048,9.809,0.0,-0.01,0.0
1777733756.5092678,0.84,-0.72,0.28,-0.131,0.049,9.809,0.0,0.0,0.0
1777733756.5192034,0.85,-0.72,0.28,-0.135,0.05,9.809,0.0,0.0,-0.01
1777733756.5292912,0.86,-0.72,0.28,-0.138,0.041,9.809,0.0,-0.01,-0.01
1777733756.5390935,0.87,-0.72,0.28,-0.141,0.044,9.809,0.0,-0.01,-0.01
1777733756.5491433,0.87,-0.72,0.29,-0.133,0.041,9.809,0.0,-0.01,-0.01
1777733756.5591516,0.87,-0.72,0.29,-0.126,0.051,9.809,0.0,-0.01,-0.01
1777733756.56989,0.86,-0.71,0.29,-0.108,0.046,9.809,0.0,-0.01,0.0
1777733756.579134,0.84,-0.71,0.29,-0.104,0.055,9.809,0.0,0.0,0.0
1777733756.5891616,0.83,-0.71,0.29,-0.099,0.069,9.809,-0.01,-0.01,0.0
1777733756.598389,0.83,-0.71,0.29,-0.11,0.06,9.809,-0.01,0.0,0.0
1777733756.6091695,0.83,-0.71,0.29,-0.12,0.079,9.809,-0.01,0.0,0.0
1777733756.6183279,0.84,-0.72,0.29,-0.134,0.078,9.809,0.0,0.0,-0.01
1777733756.6291654,0.85,-0.72,0.3,-0.138,0.056,9.809,-0.01,0.0,-0.01
1777733756.6383107,0.86,-0.72,0.29,-0.15,0.04,9.809,0.0,0.0,-0.01
1777733756.6491766,0.87,-0.72,0.29,-0.144,0.026,9.809,0.0,-0.01,-0.01
1777733756.6591935,0.87,-0.72,0.29,-0.138,0.024,9.809,-0.01,-0.01,-0.01
1777733756.6683586,0.86,-0.72,0.28,-0.122,0.02,9.809,0.0,-0.01,0.0
1777733756.6784236,0.86,-0.71,0.29,-0.109,0.008,9.809,0.0,-0.01,0.0
1777733756.6883388,0.85,-0.71,0.28,-0.098,0.028,9.809,0.0,-0.01,0.0
1777733756.6983774,0.85,-0.71,0.28,-0.092,0.04,9.809,0.0,-0.01,0.0
1777733756.7091994,0.85,-0.71,0.29,-0.097,0.057,9.809,-0.01,0.0,0.0
1777733756.7192123,0.85,-0.71,0.29,-0.105,0.065,9.809,0.0,0.0,0.0
1777733756.7283692,0.85,-0.71,0.29,-0.114,0.065,9.809,-0.01,0.0,0.0
1777733756.7384405,0.85,-0.72,0.29,-0.127,0.069,9.809,-0.01,0.0,-0.01
1777733756.7483985,0.85,-0.72,0.29,-0.134,0.057,9.809,0.0,0.0,-0.01
1777733756.7592237,0.85,-0.72,0.29,-0.135,0.057,9.809,-0.01,-0.01,-0.01
1777733756.7684135,0.86,-0.72,0.29,-0.135,0.041,9.809,0.0,0.0,-0.01
1777733756.778413,0.86,-0.72,0.28,-0.138,0.028,9.809,-0.01,-0.01,-0.01
1777733756.788358,0.86,-0.72,0.28,-0.132,0.02,9.809,-0.01,-0.01,-0.01
1777733756.7983916,0.86,-0.72,0.28,-0.121,0.019,9.809,0.0,-0.01,-0.01
1777733756.8083982,0.86,-0.72,0.27,-0.122,0.026,9.809,0.0,-0.01,-0.01
1777733756.8189113,0.86,-0.71,0.28,-0.111,0.041,9.809,0.0,-0.01,0.0
1777733756.8284338,0.86,-0.71,0.29,-0.119,0.041,9.809,0.0,-0.01,-0.01
1777733756.8384416,0.86,-0.71,0.29,-0.119,0.059,9.809,0.0,-0.01,-0.01
1777733756.848442,0.86,-0.71,0.29,-0.12,0.071,9.809,-0.01,0.0,-0.01
1777733756.8584218,0.86,-0.72,0.29,-0.121,0.084,9.809,-0.01,0.0,-0.01
1777733756.868426,0.86,-0.72,0.29,-0.122,0.087,9.809,-0.01,0.0,0.0
1777733756.8789477,0.86,-0.72,0.3,-0.127,0.075,9.809,-0.01,-0.01,0.0
1777733756.8891673,0.86,-0.71,0.29,-0.132,0.078,9.809,0.0,-0.01,0.0
1777733756.8987393,0.86,-0.72,0.29,-0.128,0.069,9.809,-0.01,-0.01,-0.01
1777733756.9088771,0.86,-0.71,0.29,-0.126,0.034,9.809,-0.01,0.0,-0.01
1777733756.9185822,0.87,-0.71,0.28,-0.117,0.036,9.809,-0.01,-0.01,-0.01
1777733756.9284651,0.87,-0.71,0.28,-0.107,0.024,9.809,0.0,0.0,-0.01
1777733756.938484,0.88,-0.71,0.28,-0.111,0.007,9.809,0.0,-0.01,-0.01
1777733756.9485004,0.88,-0.71,0.27,-0.109,0.028,9.809,0.0,0.0,-0.01
1777733756.958512,0.88,-0.71,0.28,-0.113,0.022,9.809,0.0,0.0,0.0
1777733756.968456,0.87,-0.71,0.28,-0.126,0.032,9.809,0.0,0.0,0.0
1777733756.9784818,0.86,-0.72,0.28,-0.115,0.023,9.809,0.0,0.0,0.0
1777733756.9888954,0.86,-0.71,0.28,-0.12,0.041,9.809,0.0,0.0,0.0
1777733756.9990969,0.85,-0.71,0.29,-0.125,0.068,9.809,0.0,0.0,0.0
1777733757.0091193,0.84,-0.72,0.29,-0.132,0.071,9.809,0.0,0.0,0.0
1777733757.0191963,0.85,-0.72,0.3,-0.154,0.087,9.809,-0.01,-0.01,0.0
1777733757.0288837,0.86,-0.72,0.29,-0.15,0.085,9.809,0.0,0.0,-0.01
1777733757.0385046,0.87,-0.72,0.29,-0.151,0.074,9.809,-0.01,-0.01,-0.01
1777733757.0485337,0.87,-0.72,0.29,-0.139,0.056,9.809,-0.01,-0.01,-0.01
1777733757.058535,0.87,-0.72,0.28,-0.121,0.034,9.809,-0.01,0.0,-0.01
1777733757.0685194,0.86,-0.72,0.28,-0.117,0.024,9.809,-0.01,-0.01,0.0
1777733757.07852,0.85,-0.71,0.27,-0.105,0.03,9.809,-0.01,-0.01,0.0
1777733757.088552,0.84,-0.71,0.28,-0.108,0.04,9.809,-0.01,-0.01,0.0
1777733757.0985644,0.85,-0.71,0.28,-0.113,0.036,9.809,0.0,-0.01,0.0
1777733757.1085703,0.86,-0.71,0.28,-0.115,0.059,9.809,0.0,0.0,-0.01
1777733757.1185465,0.86,-0.72,0.28,-0.115,0.034,9.809,-0.01,0.0,-0.01
1777733757.12856,0.88,-0.72,0.28,-0.111,0.038,9.809,0.0,0.0,-0.01
1777733757.1385558,0.88,-0.72,0.28,-0.111,0.026,9.809,0.0,0.0,-0.01
1777733757.1485908,0.87,-0.71,0.28,-0.116,0.029,9.809,0.0,0.0,-0.01
1777733757.1585925,0.86,-0.71,0.29,-0.117,0.053,9.809,0.0,-0.01,0.0
1777733757.1685688,0.86,-0.71,0.29,-0.126,0.075,9.809,0.0,-0.01,0.0
1777733757.178592,0.86,-0.71,0.3,-0.132,0.083,9.809,-0.01,-0.01,0.0
1777733757.188594,0.86,-0.71,0.3,-0.135,0.105,9.809,-0.01,0.0,-0.01
1777733757.1985981,0.86,-0.72,0.3,-0.126,0.102,9.809,-0.01,-0.01,-0.01
1777733757.2085996,0.87,-0.71,0.3,-0.119,0.092,9.809,-0.01,0.0,-0.01
1777733757.2185729,0.87,-0.72,0.3,-0.109,0.061,9.809,-0.01,0.0,-0.01
1777733757.2286136,0.86,-0.71,0.29,-0.114,0.048,9.809,-0.01,0.0,-0.01
1777733757.2385983,0.86,-0.71,0.28,-0.103,0.024,9.809,-0.01,0.0,0.0
1777733757.2486272,0.86,-0.71,0.28,-0.119,0.022,9.809,-0.01,-0.01,0.0
1777733757.2586594,0.87,-0.71,0.28,-0.114,0.011,9.809,-0.01,-0.01,-0.01
1777733757.269575,0.87,-0.71,0.28,-0.117,0.01,9.809,0.0,0.0,-0.01
1777733757.2787173,0.87,-0.71,0.27,-0.115,0.013,9.809,0.0,-0.01,-0.01
1777733757.2886202,0.87,-0.71,0.28,-0.11,0.018,9.809,0.0,0.0,-0.01
1777733757.298653,0.87,-0.71,0.29,-0.117,0.04,9.809,0.0,-0.01,0.0
1777733757.3086293,0.87,-0.71,0.29,-0.123,0.06,9.809,0.0,-0.01,0.0
1777733757.3186557,0.87,-0.71,0.3,-0.129,0.071,9.809,0.0,-0.01,0.0
1777733757.328622,0.87,-0.71,0.3,-0.129,0.081,9.809,0.0,-0.01,0.0
1777733757.3386726,0.87,-0.71,0.3,-0.127,0.075,9.809,-0.01,0.0,-0.01
1777733757.349683,0.87,-0.71,0.3,-0.12,0.072,9.809,-0.01,0.0,-0.01
1777733757.358874,0.86,-0.71,0.3,-0.105,0.066,9.809,-0.01,0.0,0.0
1777733757.3690386,0.86,-0.71,0.29,-0.101,0.053,9.809,-0.01,0.0,0.0
1777733757.3786762,0.85,-0.71,0.29,-0.101,0.065,9.809,-0.01,0.0,0.0
1777733757.38865,0.84,-0.71,0.29,-0.12,0.057,9.809,0.0,-0.01,0.0
1777733757.3986893,0.84,-0.71,0.29,-0.12,0.056,9.809,-0.01,0.0,0.0
1777733757.407878,0.86,-0.71,0.29,-0.129,0.03,9.809,0.0,0.0,-0.01
1777733757.4178503,0.87,-0.72,0.28,-0.131,0.038,9.809,-0.01,-0.01,-0.01
1777733757.428697,0.88,-0.71,0.28,-0.125,0.004,9.809,-0.01,0.0,-0.01
1777733757.4378936,0.88,-0.71,0.28,-0.129,-0.005,9.809,-0.01,-0.01,-0.01
1777733757.448736,0.88,-0.71,0.27,-0.105,0.004,9.809,0.0,-0.01,-0.01
1777733757.4579163,0.87,-0.7,0.28,-0.104,0.006,9.809,0.0,-0.01,0.0
1777733757.4687343,0.86,-0.7,0.28,-0.111,0.042,9.809,0.0,-0.01,0.0
1777733757.478468,0.86,-0.7,0.29,-0.116,0.059,9.809,0.0,-0.01,0.0
1777733757.48939,0.86,-0.7,0.3,-0.123,0.071,9.809,0.0,-0.01,0.0
1777733757.498369,0.86,-0.7,0.3,-0.121,0.093,9.809,0.0,0.0,-0.01
1777733757.50848,0.87,-0.71,0.3,-0.116,0.075,9.809,-0.01,0.0,-0.01
1777733757.5181284,0.88,-0.71,0.3,-0.121,0.079,9.809,-0.01,0.0,-0.01
1777733757.5279555,0.87,-0.71,0.29,-0.121,0.05,9.809,-0.01,0.0,-0.01
1777733757.5378993,0.86,-0.7,0.29,-0.127,0.059,9.809,-0.01,-0.01,0.0
1777733757.5479078,0.86,-0.7,0.28,-0.138,0.063,9.809,-0.01,-0.01,0.0
1777733757.5580678,0.85,-0.71,0.29,-0.134,0.051,9.809,-0.01,-0.01,0.0
1777733757.567928,0.86,-0.71,0.28,-0.127,0.044,9.809,0.0,0.0,0.0
1777733757.5784652,0.86,-0.71,0.28,-0.119,0.03,9.809,-0.01,-0.01,-0.01
1777733757.5884078,0.87,-0.7,0.28,-0.11,0.018,9.809,-0.01,0.0,-0.01
1777733757.598342,0.88,-0.7,0.27,-0.11,0.024,9.809,0.0,-0.01,-0.01
1777733757.6080008,0.88,-0.7,0.28,-0.101,0.022,9.809,0.0,-0.01,-0.01
1777733757.618017,0.88,-0.7,0.28,-0.102,0.018,9.809,0.0,0.0,-0.01
1777733757.6279228,0.87,-0.7,0.29,-0.11,0.051,9.809,0.0,-0.01,0.0
1777733757.6379452,0.87,-0.69,0.29,-0.114,0.056,9.809,0.0,0.0,0.0
1777733757.6479585,0.87,-0.7,0.3,-0.138,0.069,9.809,0.0,-0.01,0.0
1777733757.6579359,0.87,-0.7,0.3,-0.133,0.071,9.809,0.0,0.0,-0.01
1777733757.6681726,0.88,-0.7,0.3,-0.138,0.081,9.809,0.0,0.0,-0.01
1777733757.6779861,0.88,-0.7,0.3,-0.126,0.066,9.809,0.0,-0.01,-0.01
1777733757.6879263,0.88,-0.7,0.3,-0.128,0.062,9.809,-0.01,0.0,-0.01
1777733757.697984,0.88,-0.7,0.29,-0.137,0.055,9.809,-0.01,-0.01,-0.01
1777733757.707962,0.88,-0.7,0.29,-0.122,0.031,9.809,-0.01,-0.01,0.0
1777733757.718334,0.86,-0.7,0.28,-0.115,0.029,9.809,-0.01,0.0,0.0
1777733757.7284458,0.85,-0.71,0.28,-0.113,0.022,9.809,0.0,0.0,0.0
1777733757.7384973,0.84,-0.7,0.28,-0.115,0.026,9.809,0.0,0.0,0.0
1777733757.7483833,0.84,-0.7,0.28,-0.123,0.036,9.809,0.0,-0.01,0.0
1777733757.7580383,0.85,-0.71,0.28,-0.135,0.049,9.809,-0.01,-0.01,-0.01
1777733757.7683654,0.86,-0.71,0.28,-0.152,0.055,9.809,-0.01,0.0,-0.01
1777733757.7784777,0.88,-0.72,0.29,-0.153,0.043,9.809,0.0,0.0,-0.02
1777733757.788025,0.88,-0.72,0.29,-0.144,0.018,9.809,0.0,0.0,-0.01
1777733757.798014,0.88,-0.72,0.28,-0.129,0.007,9.809,0.0,0.0,-0.01
1777733757.808284,0.86,-0.71,0.28,-0.113,0.025,9.809,-0.01,-0.01,0.0
1777733757.8180466,0.85,-0.7,0.28,-0.126,0.05,9.809,-0.01,-0.01,0.01
1777733757.828172,0.84,-0.7,0.29,-0.12,0.067,9.809,0.0,-0.01,0.01
1777733757.8380516,0.84,-0.7,0.3,-0.121,0.084,9.809,0.0,-0.01,0.0
1777733757.8482654,0.85,-0.7,0.3,-0.123,0.096,9.809,0.0,-0.01,-0.01
1777733757.8580532,0.86,-0.71,0.3,-0.122,0.074,9.809,-0.01,0.0,-0.01
1777733757.8682058,0.88,-0.71,0.3,-0.131,0.051,9.809,-0.01,0.0,-0.02
1777733757.8780391,0.88,-0.71,0.29,-0.115,0.022,9.809,-0.01,0.0,-0.01
1777733757.8880987,0.88,-0.71,0.28,-0.114,0.022,9.809,-0.01,0.0,-0.01
1777733757.8981712,0.86,-0.71,0.28,-0.116,0.032,9.809,-0.01,-0.01,0.0
1777733757.9081206,0.85,-0.71,0.28,-0.117,0.037,9.809,-0.01,-0.01,0.01
1777733757.9181113,0.85,-0.7,0.28,-0.131,0.053,9.809,0.0,-0.01,0.0
1777733757.9281447,0.85,-0.71,0.29,-0.131,0.054,9.809,-0.01,-0.01,0.0
1777733757.939068,0.86,-0.71,0.29,-0.123,0.061,9.809,-0.01,0.0,-0.01
1777733757.94807,0.87,-0.71,0.29,-0.119,0.05,9.809,0.0,0.0,-0.01
1777733757.958077,0.88,-0.71,0.29,-0.108,0.023,9.809,0.0,0.0,-0.01
1777733757.968225,0.88,-0.7,0.28,-0.11,0.028,9.809,0.0,0.0,-0.01
1777733757.9780865,0.88,-0.71,0.28,-0.107,0.036,9.809,-0.01,-0.01,0.0
1777733757.988185,0.87,-0.7,0.29,-0.12,0.037,9.809,0.0,0.0,0.0
1777733757.999125,0.86,-0.71,0.29,-0.131,0.069,9.809,0.0,-0.01,0.0
1777733758.0086527,0.86,-0.71,0.3,-0.126,0.072,9.809,-0.01,0.0,0.0
1777733758.0183017,0.86,-0.71,0.3,-0.14,0.081,9.809,0.0,-0.01,0.0
1777733758.028657,0.86,-0.71,0.3,-0.132,0.092,9.809,-0.01,0.0,-0.01
1777733758.0381227,0.86,-0.71,0.3,-0.132,0.08,9.809,-0.01,0.0,-0.01
1777733758.048141,0.87,-0.71,0.3,-0.141,0.065,9.809,-0.01,-0.01,-0.01
1777733758.0587912,0.87,-0.71,0.29,-0.122,0.049,9.809,-0.01,-0.01,-0.01
1777733758.0686245,0.87,-0.71,0.28,-0.121,0.028,9.809,-0.01,-0.01,-0.01
1777733758.0781324,0.87,-0.71,0.28,-0.105,0.024,9.809,-0.01,-0.01,0.0
1777733758.088321,0.87,-0.7,0.28,-0.102,0.0,9.809,0.0,0.0,0.0
1777733758.0989294,0.87,-0.7,0.28,-0.107,0.0,9.809,-0.01,-0.01,0.0
1777733758.1081316,0.86,-0.7,0.27,-0.108,0.019,9.809,0.0,0.0,0.0
1777733758.1181295,0.86,-0.7,0.28,-0.126,0.034,9.809,-0.01,-0.01,0.0
1777733758.1281457,0.86,-0.71,0.28,-0.131,0.054,9.809,0.0,-0.01,0.0
1777733758.1382382,0.86,-0.71,0.29,-0.138,0.06,9.809,0.0,0.0,0.0
1777733758.1481771,0.86,-0.71,0.3,-0.146,0.068,9.809,0.0,-0.01,0.0
1777733758.158164,0.87,-0.71,0.3,-0.139,0.069,9.809,0.0,0.0,-0.01
1777733758.1673734,0.87,-0.71,0.3,-0.145,0.084,9.809,-0.01,-0.01,-0.01
1777733758.1790066,0.88,-0.71,0.3,-0.122,0.051,9.809,-0.01,-0.01,-0.01
1777733758.1887398,0.88,-0.71,0.29,-0.117,0.056,9.809,-0.01,-0.01,-0.01
1777733758.1973336,0.88,-0.71,0.29,-0.109,0.047,9.809,-0.01,0.0,-0.01
1777733758.2082045,0.88,-0.7,0.29,-0.111,0.032,9.809,-0.01,0.0,-0.01
1777733758.2173526,0.88,-0.71,0.29,-0.105,0.03,9.809,0.0,0.0,-0.01
1777733758.229086,0.87,-0.71,0.28,-0.096,0.03,9.809,-0.01,0.0,0.0
1777733758.2379253,0.86,-0.7,0.28,-0.116,0.041,9.809,-0.01,-0.01,0.0
1777733758.2483559,0.86,-0.71,0.28,-0.12,0.053,9.809,0.0,-0.01,0.0
1777733758.2573948,0.86,-0.71,0.29,-0.138,0.056,9.809,-0.01,0.0,0.0
1777733758.267435,0.86,-0.72,0.29,-0.153,0.06,9.809,0.0,-0.01,0.0
1777733758.2777202,0.86,-0.72,0.29,-0.135,0.062,9.809,-0.01,0.0,-0.01
1777733758.2887173,0.87,-0.72,0.29,-0.147,0.042,9.809,-0.01,-0.01,-0.01
1777733758.2977297,0.88,-0.72,0.28,-0.134,0.036,9.809,0.0,-0.01,-0.01
1777733758.3079145,0.88,-0.71,0.28,-0.123,0.032,9.809,-0.01,0.0,-0.01
1777733758.3185313,0.88,-0.71,0.28,-0.115,0.025,9.809,0.0,-0.01,-0.01
1777733758.3277905,0.87,-0.71,0.28,-0.101,0.051,9.809,0.0,-0.01,0.0
1777733758.337997,0.86,-0.7,0.29,-0.108,0.053,9.809,-0.01,-0.01,0.0
1777733758.3477085,0.86,-0.7,0.29,-0.109,0.077,9.809,0.0,-0.01,0.0
1777733758.3574061,0.86,-0.7,0.29,-0.116,0.065,9.809,0.0,0.0,-0.01
1777733758.3680043,0.87,-0.71,0.29,-0.126,0.069,9.809,-0.01,-0.01,-0.01
1777733758.3777716,0.88,-0.71,0.29,-0.127,0.068,9.809,-0.01,0.0,-0.01
1777733758.3879552,0.88,-0.71,0.29,-0.143,0.049,9.809,-0.01,-0.01,-0.01
1777733758.4084487,0.88,-0.72,0.29,-0.133,0.036,9.809,0.0,0.0,-0.01
1777733758.4303079,0.88,-0.71,0.29,-0.132,0.034,9.809,0.0,0.0,0.0
1777733758.435529,0.88,-0.71,0.29,-0.128,0.022,9.809,0.0,-0.01,0.0
1777733758.441384,0.88,-0.71,0.29,-0.126,0.035,9.809,-0.01,-0.01,0.0
1777733758.4476614,0.87,-0.71,0.29,-0.117,0.035,9.809,0.0,-0.01,0.0
1777733758.4536972,0.87,-0.71,0.29,-0.115,0.057,9.809,-0.01,-0.01,0.0
1777733758.4594283,0.87,-0.7,0.29,-0.104,0.062,9.809,0.0,0.0,-0.01
1777733758.4690707,0.87,-0.7,0.29,-0.107,0.067,9.809,-0.01,-0.01,-0.01
1777733758.4787478,0.87,-0.7,0.3,-0.105,0.09,9.809,-0.01,0.0,0.0
1777733758.4886243,0.87,-0.7,0.3,-0.122,0.09,9.809,-0.01,-0.01,-0.01
1777733758.4982073,0.88,-0.71,0.3,-0.128,0.077,9.809,-0.01,0.0,-0.01
1777733758.5093281,0.88,-0.71,0.3,-0.131,0.053,9.809,0.0,0.0,-0.01
1777733758.518441,0.88,-0.71,0.29,-0.129,0.038,9.809,-0.01,0.0,-0.01
1777733758.5277374,0.88,-0.71,0.29,-0.127,0.018,9.809,-0.01,-0.01,-0.01
1777733758.53835,0.88,-0.71,0.28,-0.117,0.004,9.809,0.0,-0.01,-0.01
1777733758.5477943,0.88,-0.7,0.28,-0.115,-0.004,9.809,0.0,-0.01,0.0
1777733758.5587974,0.88,-0.7,0.28,-0.109,0.001,9.809,0.0,0.0,0.0
1777733758.5677783,0.87,-0.7,0.28,-0.109,0.029,9.809,0.0,-0.01,0.0
1777733758.577484,0.87,-0.7,0.29,-0.109,0.048,9.809,0.0,-0.01,0.0
1777733758.5878785,0.87,-0.7,0.3,-0.122,0.083,9.809,0.0,-0.01,0.0
1777733758.59891,0.87,-0.7,0.3,-0.12,0.087,9.809,0.0,0.0,-0.01
1777733758.607862,0.88,-0.7,0.3,-0.129,0.102,9.809,-0.01,0.0,-0.01
1777733758.6177883,0.88,-0.7,0.3,-0.121,0.098,9.809,-0.01,0.0,-0.01
1777733758.6275826,0.87,-0.7,0.3,-0.122,0.092,9.809,-0.01,-0.01,-0.01
1777733758.6382308,0.86,-0.7,0.3,-0.111,0.085,9.809,-0.01,0.0,0.0
1777733758.6477432,0.86,-0.7,0.3,-0.111,0.074,9.809,-0.01,0.0,0.0
1777733758.662686,0.86,-0.7,0.3,-0.127,0.066,9.809,-0.01,-0.01,0.0
1777733758.6687365,0.86,-0.71,0.29,-0.131,0.054,9.809,-0.01,0.0,-0.01
1777733758.6775694,0.88,-0.71,0.29,-0.126,0.022,9.809,-0.01,0.0,-0.01
1777733758.6883292,0.88,-0.71,0.28,-0.126,0.002,9.809,0.0,0.0,-0.01
1777733758.69839,0.88,-0.71,0.28,-0.114,-0.011,9.809,0.0,0.0,-0.01
1777733758.7084658,0.88,-0.7,0.28,-0.121,-0.012,9.809,0.0,-0.01,-0.01
1777733758.719573,0.88,-0.7,0.28,-0.12,0.0,9.809,0.0,-0.01,0.0
1777733758.7275856,0.87,-0.7,0.28,-0.125,0.022,9.809,0.0,-0.01,0.0
1777733758.7387147,0.86,-0.7,0.29,-0.125,0.048,9.809,0.0,-0.01,0.0
1777733758.7483225,0.86,-0.7,0.3,-0.125,0.077,9.809,0.0,-0.01,0.0
1777733758.757615,0.86,-0.7,0.3,-0.133,0.101,9.809,0.0,0.0,0.0
1777733758.7682493,0.86,-0.7,0.3,-0.137,0.108,9.809,0.0,-0.01,-0.01
1777733758.778804,0.87,-0.71,0.3,-0.134,0.096,9.809,-0.01,0.0,-0.01
1777733758.7885873,0.88,-0.71,0.3,-0.131,0.079,9.809,-0.01,0.0,-0.01
1777733758.7978165,0.88,-0.71,0.3,-0.121,0.05,9.809,-0.01,0.0,-0.01
1777733758.8075867,0.89,-0.71,0.3,-0.114,0.025,9.809,-0.01,0.0,-0.01
1777733758.8199067,0.88,-0.7,0.29,-0.113,0.013,9.809,-0.01,-0.01,0.0
1777733758.8277864,0.88,-0.7,0.28,-0.127,0.011,9.809,-0.01,-0.01,0.0
1777733758.8377123,0.88,-0.71,0.29,-0.128,0.011,9.809,-0.01,-0.01,0.0
1777733758.8476322,0.88,-0.71,0.28,-0.143,0.031,9.809,0.0,-0.01,0.0
1777733758.857911,0.88,-0.71,0.29,-0.125,0.013,9.809,0.0,0.0,-0.01
1777733758.8677363,0.88,-0.71,0.29,-0.131,0.041,9.809,0.0,0.0,-0.01
1777733758.8776767,0.88,-0.71,0.29,-0.122,0.044,9.809,0.0,-0.01,0.0
1777733758.8876214,0.88,-0.71,0.3,-0.121,0.053,9.809,0.0,0.0,0.0
1777733758.8976612,0.87,-0.71,0.3,-0.113,0.077,9.809,0.0,-0.01,0.0
1777733758.9076998,0.87,-0.7,0.3,-0.123,0.085,9.809,-0.01,0.0,0.0
1777733758.916848,0.87,-0.71,0.3,-0.129,0.083,9.809,-0.01,-0.01,-0.01
1777733758.927744,0.88,-0.71,0.3,-0.131,0.074,9.809,-0.01,-0.01,-0.01
1777733758.93764,0.88,-0.71,0.3,-0.12,0.053,9.809,-0.01,0.0,-0.01
1777733758.9470866,0.89,-0.71,0.29,-0.121,0.034,9.809,-0.01,0.0,-0.01
1777733758.9576683,0.89,-0.71,0.29,-0.111,0.007,9.809,-0.01,0.0,-0.01
1777733758.9668298,0.88,-0.7,0.28,-0.117,0.017,9.809,0.0,-0.01,0.0
1777733758.9776995,0.88,-0.7,0.28,-0.11,0.011,9.809,-0.01,-0.01,0.0
1777733758.9877362,0.87,-0.7,0.28,-0.119,0.025,9.809,0.0,0.0,0.0
1777733758.9976697,0.87,-0.7,0.28,-0.121,0.054,9.809,0.0,-0.01,0.0
1777733759.007691,0.86,-0.7,0.29,-0.109,0.067,9.809,0.0,0.0,0.0
1777733759.0172765,0.86,-0.7,0.3,-0.123,0.069,9.809,0.0,-0.01,0.0
1777733759.0269687,0.86,-0.7,0.3,-0.125,0.072,9.809,0.0,-0.01,0.0
1777733759.0369494,0.87,-0.7,0.3,-0.129,0.062,9.809,-0.01,0.0,-0.01
1777733759.0477104,0.88,-0.71,0.3,-0.133,0.067,9.809,-0.01,-0.01,-0.01
1777733759.056881,0.88,-0.71,0.3,-0.129,0.065,9.809,0.0,0.0,-0.01
1777733759.0709505,0.88,-0.71,0.3,-0.128,0.032,9.809,0.0,0.0,-0.01
1777733759.0817733,0.88,-0.71,0.29,-0.133,0.029,9.809,-0.01,-0.01,-0.01
1777733759.0891528,0.88,-0.7,0.29,-0.12,0.034,9.809,0.0,-0.01,0.0
1777733759.1062126,0.87,-0.7,0.29,-0.121,0.029,9.809,-0.01,-0.01,0.0
1777733759.1109853,0.87,-0.7,0.29,-0.116,0.044,9.809,0.0,-0.01,0.0
1777733759.1230373,0.86,-0.7,0.29,-0.114,0.057,9.809,0.0,0.0,0.0
1777733759.1314816,0.86,-0.7,0.29,-0.126,0.06,9.809,-0.01,-0.01,0.0
1777733759.1383436,0.87,-0.7,0.29,-0.117,0.075,9.809,0.0,0.0,-0.01
1777733759.1469576,0.87,-0.7,0.29,-0.121,0.054,9.809,-0.01,0.0,-0.01
1777733759.1569343,0.88,-0.7,0.29,-0.125,0.042,9.809,-0.01,0.0,-0.01
1777733759.1669538,0.88,-0.71,0.29,-0.119,0.034,9.809,0.0,0.0,-0.01
1777733759.1769664,0.88,-0.71,0.29,-0.121,0.024,9.809,0.0,-0.01,-0.01
1777733759.1871808,0.88,-0.7,0.29,-0.113,0.016,9.809,0.0,0.0,0.0
1777733759.196972,0.88,-0.7,0.29,-0.12,0.03,9.809,0.0,-0.01,0.0
1777733759.206991,0.88,-0.7,0.29,-0.129,0.04,9.809,0.0,-0.01,0.0
1777733759.216962,0.88,-0.7,0.29,-0.123,0.042,9.809,0.0,-0.01,-0.01
1777733759.2269754,0.88,-0.7,0.29,-0.125,0.049,9.809,0.0,0.0,-0.01
1777733759.237515,0.88,-0.7,0.3,-0.117,0.038,9.809,0.0,-0.01,-0.01
1777733759.2470176,0.88,-0.7,0.29,-0.113,0.062,9.809,0.0,0.0,-0.01
1777733759.256972,0.88,-0.7,0.3,-0.111,0.05,9.809,-0.01,-0.01,0.0
1777733759.2670052,0.88,-0.7,0.3,-0.115,0.06,9.809,-0.01,-0.01,0.0
1777733759.2770126,0.87,-0.7,0.3,-0.11,0.059,9.809,0.0,0.0,0.0
1777733759.28699,0.87,-0.7,0.3,-0.126,0.078,9.809,-0.01,-0.01,0.0
1777733759.2973607,0.87,-0.7,0.3,-0.12,0.079,9.809,-0.01,0.0,0.0
1777733759.3069818,0.88,-0.7,0.3,-0.134,0.062,9.809,-0.01,-0.01,-0.01
1777733759.3169732,0.88,-0.7,0.3,-0.129,0.043,9.809,-0.01,-0.01,-0.01
1777733759.326991,0.89,-0.7,0.29,-0.128,0.02,9.809,0.0,0.0,-0.01
1777733759.3369775,0.89,-0.7,0.28,-0.121,0.011,9.809,-0.01,-0.01,-0.01
1777733759.3469522,0.9,-0.7,0.28,-0.109,0.008,9.809,0.0,0.0,-0.01
1777733759.3570724,0.89,-0.7,0.28,-0.111,0.014,9.809,0.0,-0.01,0.0
1777733759.3670087,0.88,-0.7,0.28,-0.103,0.013,9.809,0.0,0.0,0.0
1777733759.3769915,0.88,-0.69,0.29,-0.104,0.04,9.809,0.0,0.0,0.0
1777733759.3869894,0.87,-0.69,0.29,-0.113,0.057,9.809,0.0,-0.01,0.0
1777733759.3970025,0.86,-0.7,0.29,-0.132,0.079,9.809,0.0,0.0,0.0
1777733759.4074688,0.86,-0.7,0.3,-0.144,0.089,9.809,-0.01,0.0,0.0
1777733759.4171426,0.87,-0.71,0.3,-0.145,0.085,9.809,-0.01,0.0,-0.01
1777733759.4274075,0.88,-0.71,0.3,-0.14,0.077,9.809,-0.01,0.0,-0.01
1777733759.4373813,0.88,-0.71,0.3,-0.138,0.063,9.809,-0.01,-0.01,-0.01
1777733759.447083,0.88,-0.7,0.29,-0.119,0.05,9.809,-0.01,-0.01,-0.01
1777733759.4574358,0.88,-0.7,0.29,-0.12,0.034,9.809,-0.01,-0.01,-0.01
1777733759.4670208,0.88,-0.7,0.28,-0.101,0.019,9.809,-0.01,-0.01,-0.01
1777733759.477033,0.88,-0.69,0.28,-0.092,0.014,9.809,0.0,0.0,-0.01
1777733759.4871552,0.88,-0.69,0.28,-0.086,0.01,9.809,0.0,-0.01,0.0
1777733759.4970386,0.88,-0.69,0.28,-0.086,0.006,9.809,0.0,0.0,0.0
1777733759.5070503,0.88,-0.69,0.28,-0.102,0.036,9.809,0.0,0.0,0.0
1777733759.5170445,0.88,-0.69,0.29,-0.113,0.036,9.809,0.0,0.0,0.0
1777733759.5270848,0.88,-0.69,0.29,-0.138,0.057,9.809,0.0,0.0,-0.01
1777733759.5370743,0.88,-0.7,0.3,-0.145,0.072,9.809,0.0,-0.01,-0.01
1777733759.5470805,0.89,-0.7,0.3,-0.145,0.069,9.809,0.0,0.0,-0.01
1777733759.5570755,0.88,-0.7,0.3,-0.146,0.089,9.809,-0.01,-0.01,-0.01
1777733759.5670521,0.88,-0.7,0.3,-0.131,0.077,9.809,-0.01,-0.01,0.0
1777733759.5770729,0.88,-0.69,0.3,-0.127,0.09,9.809,-0.01,-0.01,0.0
1777733759.5871108,0.88,-0.69,0.3,-0.116,0.086,9.809,-0.01,-0.01,0.0
1777733759.5970979,0.88,-0.69,0.3,-0.12,0.079,9.809,0.0,-0.01,0.0
1777733759.607113,0.88,-0.69,0.3,-0.12,0.06,9.809,-0.01,0.0,-0.01
1777733759.6170576,0.89,-0.69,0.29,-0.116,0.05,9.809,-0.01,0.0,-0.01
1777733759.6271818,0.9,-0.69,0.29,-0.121,0.034,9.809,-0.01,0.0,-0.01
1777733759.6377509,0.9,-0.7,0.29,-0.122,0.013,9.809,-0.01,0.0,-0.01
1777733759.6474416,0.9,-0.7,0.28,-0.122,-0.007,9.809,0.0,0.0,-0.01
1777733759.657597,0.89,-0.7,0.28,-0.123,-0.007,9.809,0.0,-0.01,0.0
1777733759.6671133,0.88,-0.69,0.28,-0.127,0.022,9.809,0.0,-0.01,0.0
1777733759.6775324,0.88,-0.69,0.29,-0.126,0.043,9.809,0.0,-0.01,0.0
1777733759.687376,0.87,-0.69,0.3,-0.135,0.054,9.809,0.0,-0.01,0.0
1777733759.6978571,0.88,-0.7,0.3,-0.129,0.084,9.809,0.0,-0.01,-0.01
1777733759.707399,0.88,-0.7,0.3,-0.126,0.075,9.809,-0.01,0.0,-0.01
1777733759.7175148,0.9,-0.69,0.3,-0.121,0.072,9.809,-0.01,0.0,-0.01
1777733759.7274315,0.9,-0.69,0.3,-0.104,0.065,9.809,-0.01,-0.01,-0.01
1777733759.737557,0.9,-0.69,0.3,-0.095,0.03,9.809,-0.01,0.0,-0.01
1777733759.7471461,0.89,-0.69,0.3,-0.092,0.017,9.809,-0.01,0.0,0.0
1777733759.7565982,0.88,-0.69,0.29,-0.093,0.025,9.809,0.0,0.0,0.0
1777733759.7678068,0.87,-0.69,0.29,-0.102,0.029,9.809,-0.01,0.0,0.0
1777733759.777294,0.86,-0.69,0.29,-0.125,0.05,9.809,0.0,0.0,0.0
1777733759.787612,0.86,-0.7,0.29,-0.14,0.065,9.809,-0.01,-0.01,0.0
1777733759.797408,0.88,-0.7,0.3,-0.152,0.069,9.809,0.0,0.0,-0.01
1777733759.806844,0.88,-0.7,0.3,-0.152,0.056,9.809,0.0,0.0,-0.01
1777733759.8171856,0.9,-0.7,0.3,-0.137,0.047,9.809,-0.01,-0.01,-0.01
1777733759.8267596,0.9,-0.7,0.29,-0.125,0.025,9.809,0.0,-0.01,-0.01
1777733759.8367524,0.9,-0.7,0.29,-0.111,0.025,9.809,-0.01,-0.01,-0.01
1777733759.8471842,0.89,-0.69,0.29,-0.104,0.019,9.809,0.0,-0.01,0.0
1777733759.8565707,0.88,-0.69,0.29,-0.098,0.042,9.809,-0.01,-0.01,0.0
1777733759.8672054,0.87,-0.69,0.29,-0.105,0.065,9.809,-0.01,0.0,0.0
1777733759.8763697,0.87,-0.69,0.3,-0.12,0.075,9.809,0.0,-0.01,0.0
1777733759.8863606,0.88,-0.69,0.3,-0.123,0.079,9.809,0.0,0.0,-0.01
1777733759.8963764,0.89,-0.7,0.3,-0.132,0.077,9.809,0.0,0.0,-0.01
1777733759.9063685,0.9,-0.7,0.3,-0.138,0.063,9.809,0.0,0.0,-0.01
1777733759.9163475,0.9,-0.7,0.3,-0.141,0.036,9.809,-0.01,0.0,-0.01
1777733759.9263797,0.9,-0.7,0.3,-0.133,0.042,9.809,0.0,0.0,-0.01
1777733759.9363735,0.9,-0.7,0.29,-0.128,0.029,9.809,0.0,-0.01,0.0
1777733759.9464345,0.89,-0.7,0.3,-0.123,0.031,9.809,-0.01,-0.01,0.0
1777733759.9564693,0.88,-0.69,0.3,-0.12,0.046,9.809,0.0,-0.01,0.0
1777733759.9664562,0.88,-0.69,0.3,-0.114,0.051,9.809,0.0,-0.01,0.0
1777733759.976408,0.88,-0.69,0.3,-0.123,0.072,9.809,0.0,0.0,0.0
1777733759.986351,0.88,-0.7,0.3,-0.122,0.074,9.809,-0.01,-0.01,0.0
1777733759.997028,0.89,-0.7,0.3,-0.122,0.061,9.809,0.0,0.0,-0.01
1777733760.0064404,0.9,-0.7,0.3,-0.137,0.074,9.809,0.0,-0.01,-0.01
1777733760.0164073,0.9,-0.7,0.3,-0.127,0.04,9.809,-0.01,0.0,-0.01
1777733760.0263617,0.9,-0.7,0.3,-0.132,0.038,9.809,-0.01,0.0,-0.01
1777733760.0364354,0.9,-0.7,0.3,-0.126,0.029,9.809,-0.01,-0.01,-0.01
1777733760.046624,0.89,-0.7,0.29,-0.126,0.031,9.809,-0.01,0.0,0.0
1777733760.0567703,0.88,-0.7,0.29,-0.129,0.038,9.809,0.0,0.0,0.0
1777733760.0663962,0.88,-0.7,0.29,-0.132,0.048,9.809,0.0,-0.01,0.0
1777733760.0765557,0.87,-0.7,0.3,-0.139,0.056,9.809,-0.01,-0.01,0.0
1777733760.086635,0.88,-0.7,0.3,-0.134,0.042,9.809,0.0,-0.01,-0.01
1777733760.0964782,0.88,-0.71,0.3,-0.137,0.061,9.809,0.0,-0.01,-0.01
1777733760.1067157,0.9,-0.71,0.3,-0.127,0.04,9.809,0.0,0.0,-0.01
1777733760.117085,0.9,-0.71,0.3,-0.12,0.034,9.809,0.0,0.0,-0.01
1777733760.126438,0.89,-0.7,0.3,-0.107,0.03,9.809,0.0,0.0,-0.01
1777733760.1364672,0.88,-0.7,0.29,-0.115,0.038,9.809,0.0,-0.01,0.0
1777733760.146444,0.88,-0.71,0.3,-0.125,0.047,9.809,-0.01,-0.01,0.0
1777733760.1564488,0.88,-0.71,0.3,-0.141,0.063,9.809,0.0,0.0,0.0
1777733760.1664279,0.88,-0.71,0.3,-0.144,0.063,9.809,-0.01,-0.01,-0.01
1777733760.1764498,0.89,-0.71,0.3,-0.143,0.068,9.809,0.0,0.0,-0.01
1777733760.1864157,0.9,-0.71,0.3,-0.132,0.043,9.809,0.0,-0.01,-0.01
1777733760.1966681,0.9,-0.71,0.3,-0.128,0.037,9.809,-0.01,-0.01,-0.01
1777733760.2064676,0.9,-0.71,0.3,-0.113,0.032,9.809,0.0,-0.01,-0.01
1777733760.216434,0.9,-0.7,0.3,-0.105,0.029,9.809,-0.01,0.0,0.0
1777733760.226468,0.88,-0.7,0.3,-0.102,0.034,9.809,-0.01,-0.01,0.0
1777733760.236462,0.88,-0.7,0.3,-0.102,0.072,9.809,-0.01,0.0,0.0
1777733760.2465055,0.87,-0.7,0.3,-0.115,0.075,9.809,-0.01,-0.01,0.0
1777733760.256517,0.87,-0.7,0.3,-0.129,0.086,9.809,0.0,0.0,0.0
1777733760.2664871,0.88,-0.71,0.3,-0.131,0.068,9.809,0.0,0.0,-0.01
1777733760.276506,0.9,-0.71,0.3,-0.141,0.055,9.809,-0.01,0.0,-0.01
1777733760.2865162,0.91,-0.72,0.3,-0.126,0.031,9.809,-0.01,0.0,-0.02
1777733760.2965395,0.91,-0.71,0.3,-0.127,0.002,9.809,-0.01,0.0,-0.01
1777733760.3064978,0.9,-0.71,0.29,-0.111,-0.002,9.809,0.0,-0.01,-0.01
1777733760.3165164,0.9,-0.71,0.28,-0.104,0.019,9.809,-0.01,-0.01,0.0
1777733760.3265076,0.89,-0.7,0.29,-0.114,0.011,9.809,0.0,-0.01,0.0
1777733760.3365157,0.88,-0.7,0.29,-0.117,0.046,9.809,0.0,-0.01,0.0
1777733760.3465307,0.88,-0.71,0.3,-0.123,0.053,9.809,0.0,-0.01,0.0
1777733760.3565075,0.89,-0.71,0.3,-0.128,0.055,9.809,0.0,0.0,-0.01
1777733760.3665369,0.9,-0.71,0.3,-0.126,0.063,9.809,0.0,0.0,-0.01
1777733760.3765054,0.9,-0.71,0.3,-0.122,0.047,9.809,0.0,0.0,-0.01
1777733760.3865526,0.9,-0.71,0.3,-0.12,0.046,9.809,0.0,0.0,-0.01
1777733760.3965251,0.9,-0.71,0.3,-0.125,0.037,9.809,0.0,-0.01,-0.01
1777733760.4065638,0.9,-0.71,0.29,-0.132,0.049,9.809,0.0,-0.01,0.0
1777733760.4165127,0.9,-0.71,0.3,-0.127,0.053,9.809,-0.01,-0.01,0.0
1777733760.426599,0.89,-0.71,0.29,-0.12,0.053,9.809,0.0,0.0,0.0
1777733760.4365237,0.88,-0.71,0.29,-0.111,0.054,9.809,-0.01,-0.01,0.0
1777733760.4465928,0.88,-0.71,0.29,-0.111,0.047,9.809,0.0,-0.01,0.0
1777733760.4565387,0.89,-0.71,0.29,-0.108,0.041,9.809,0.0,0.0,-0.01
1777733760.466887,0.89,-0.71,0.29,-0.111,0.037,9.809,0.0,0.0,-0.01
1777733760.4765909,0.9,-0.71,0.29,-0.12,0.035,9.809,0.0,0.0,-0.01
1777733760.4870648,0.9,-0.71,0.29,-0.122,0.032,9.809,0.0,0.0,-0.01
1777733760.4965782,0.9,-0.71,0.29,-0.122,0.032,9.809,0.0,-0.01,-0.01
1777733760.5065608,0.9,-0.71,0.29,-0.132,0.053,9.809,0.0,-0.01,-0.01
1777733760.5165894,0.9,-0.71,0.3,-0.128,0.038,9.809,0.0,-0.01,0.0
1777733760.5257597,0.9,-0.71,0.3,-0.133,0.053,9.809,0.0,0.0,0.0
1777733760.5365827,0.89,-0.71,0.3,-0.122,0.067,9.809,-0.01,-0.01,0.0
1777733760.5457625,0.88,-0.71,0.3,-0.105,0.057,9.809,-0.01,0.0,0.0
1777733760.5565825,0.87,-0.71,0.3,-0.099,0.072,9.809,0.0,0.0,0.0
1777733760.5666156,0.86,-0.71,0.3,-0.099,0.075,9.809,-0.01,0.0,0.0
1777733760.5757704,0.86,-0.71,0.3,-0.117,0.069,9.809,-0.01,0.0,0.0
1777733760.5865917,0.86,-0.72,0.3,-0.129,0.075,9.809,-0.01,0.0,-0.01
1777733760.5965762,0.88,-0.72,0.29,-0.144,0.042,9.809,-0.01,0.0,-0.01
1777733760.6057749,0.89,-0.72,0.29,-0.146,0.025,9.809,-0.01,0.0,-0.02
1777733760.6166768,0.9,-0.72,0.28,-0.132,-0.005,9.809,0.0,0.0,-0.02
1777733760.626636,0.9,-0.72,0.27,-0.122,-0.01,9.809,0.0,0.0,-0.01
1777733760.6357915,0.89,-0.72,0.28,-0.109,-0.023,9.809,0.0,-0.01,0.0
1777733760.6466355,0.88,-0.71,0.28,-0.105,0.01,9.809,0.0,-0.01,0.0
1777733760.6557906,0.87,-0.7,0.28,-0.113,0.044,9.809,0.0,-0.01,0.0
1777733760.6658354,0.86,-0.71,0.3,-0.121,0.068,9.809,0.0,-0.01,0.0
1777733760.6766143,0.86,-0.71,0.3,-0.121,0.098,9.809,0.0,0.0,0.0
1777733760.6860733,0.87,-0.71,0.3,-0.126,0.108,9.809,-0.01,0.0,-0.01
1777733760.6958616,0.88,-0.71,0.3,-0.117,0.091,9.809,0.0,0.0,-0.01
1777733760.705888,0.89,-0.71,0.3,-0.127,0.08,9.809,-0.01,0.0,-0.01
1777733760.715854,0.9,-0.72,0.3,-0.125,0.067,9.809,-0.01,0.0,-0.01
1777733760.725815,0.9,-0.72,0.3,-0.117,0.041,9.809,-0.01,0.0,-0.01
1777733760.735781,0.89,-0.71,0.3,-0.135,0.024,9.809,0.0,0.0,0.0
1777733760.746127,0.89,-0.72,0.29,-0.128,0.016,9.809,-0.01,-0.01,0.0
1777733760.7558448,0.88,-0.71,0.29,-0.133,0.012,9.809,-0.01,0.0,0.0
1777733760.76626,0.88,-0.72,0.29,-0.126,0.007,9.809,0.0,-0.01,0.0
1777733760.7758427,0.89,-0.71,0.29,-0.119,0.013,9.809,0.0,0.0,-0.01
1777733760.7859013,0.89,-0.71,0.3,-0.115,0.031,9.809,0.0,-0.01,-0.01
1777733760.7958632,0.89,-0.71,0.3,-0.111,0.051,9.809,0.0,0.0,-0.01
1777733760.8058271,0.9,-0.71,0.3,-0.117,0.051,9.809,0.0,-0.01,-0.01
1777733760.8162384,0.9,-0.71,0.3,-0.121,0.067,9.809,0.0,-0.01,-0.01
1777733760.825864,0.9,-0.71,0.3,-0.119,0.086,9.809,-0.01,0.0,-0.01
1777733760.835847,0.9,-0.71,0.3,-0.123,0.071,9.809,-0.01,0.0,-0.01
1777733760.8462348,0.9,-0.71,0.3,-0.12,0.06,9.809,-0.01,0.0,0.0
1777733760.8562744,0.89,-0.71,0.3,-0.119,0.059,9.809,-0.01,0.0,0.0
1777733760.8658946,0.89,-0.71,0.3,-0.119,0.067,9.809,-0.01,-0.01,0.0
1777733760.8758662,0.89,-0.71,0.3,-0.125,0.047,9.809,-0.01,-0.01,0.0
1777733760.8858519,0.89,-0.72,0.3,-0.137,0.037,9.809,-0.01,-0.01,-0.01
1777733760.8958895,0.9,-0.72,0.29,-0.122,0.026,9.809,0.0,0.0,-0.01
1777733760.9058745,0.9,-0.72,0.29,-0.121,0.008,9.809,-0.01,0.0,-0.01
1777733760.9158487,0.89,-0.71,0.28,-0.117,0.029,9.809,-0.01,-0.01,-0.01
1777733760.9258277,0.89,-0.71,0.28,-0.11,0.013,9.809,-0.01,-0.01,0.0
1777733760.9358754,0.89,-0.71,0.29,-0.12,0.025,9.809,0.0,-0.01,0.0
1777733760.9458964,0.88,-0.71,0.29,-0.119,0.036,9.809,0.0,0.0,0.0
1777733760.955856,0.89,-0.71,0.3,-0.123,0.043,9.809,0.0,-0.01,-0.01
1777733760.9662771,0.9,-0.71,0.29,-0.127,0.049,9.809,0.0,0.0,-0.01
1777733760.9759128,0.9,-0.71,0.3,-0.134,0.061,9.809,-0.01,-0.01,-0.01
1777733760.985879,0.9,-0.71,0.3,-0.128,0.051,9.809,0.0,0.0,-0.01
1777733760.9959612,0.9,-0.72,0.3,-0.131,0.048,9.809,-0.01,-0.01,-0.01
1777733761.0058978,0.9,-0.72,0.3,-0.12,0.047,9.809,0.0,0.0,0.0
1777733761.0159338,0.89,-0.71,0.29,-0.125,0.055,9.809,-0.01,-0.01,0.0
1777733761.0258937,0.88,-0.71,0.29,-0.121,0.055,9.809,-0.01,-0.01,0.0
1777733761.035907,0.88,-0.71,0.29,-0.125,0.062,9.809,-0.01,-0.01,0.0
1777733761.0459569,0.88,-0.71,0.3,-0.12,0.059,9.809,0.0,-0.01,0.0
1777733761.055915,0.88,-0.71,0.3,-0.116,0.047,9.809,0.0,0.0,-0.01
1777733761.0659251,0.89,-0.71,0.29,-0.113,0.038,9.809,0.0,0.0,-0.01
1777733761.075933,0.9,-0.71,0.3,-0.117,0.031,9.809,0.0,-0.01,-0.01
1777733761.0859225,0.9,-0.71,0.29,-0.121,0.028,9.809,0.0,-0.01,-0.01
1777733761.0959485,0.9,-0.71,0.3,-0.127,0.025,9.809,0.0,-0.01,-0.01
1777733761.105942,0.9,-0.71,0.3,-0.132,0.029,9.809,0.0,0.0,0.0
1777733761.115954,0.89,-0.72,0.3,-0.119,0.047,9.809,0.0,0.0,0.0
1777733761.1259432,0.88,-0.71,0.3,-0.108,0.059,9.809,0.0,0.0,0.0
1777733761.1360216,0.87,-0.71,0.3,-0.122,0.078,9.809,-0.01,-0.01,0.0
1777733761.1459668,0.87,-0.71,0.3,-0.131,0.104,9.809,-0.01,-0.01,0.0
1777733761.155939,0.88,-0.72,0.3,-0.132,0.092,9.809,-0.01,0.0,-0.01
1777733761.1659822,0.88,-0.72,0.31,-0.139,0.08,9.809,0.0,0.0,-0.01
1777733761.1759295,0.9,-0.72,0.3,-0.125,0.062,9.809,0.0,0.0,-0.01
1777733761.185988,0.9,-0.72,0.3,-0.135,0.032,9.809,-0.01,-0.01,-0.01
1777733761.1960144,0.9,-0.72,0.29,-0.126,0.022,9.809,-0.01,-0.01,-0.01
1777733761.205947,0.89,-0.71,0.29,-0.123,0.03,9.809,-0.01,-0.01,0.0
1777733761.2160003,0.88,-0.71,0.29,-0.128,0.032,9.809,0.0,-0.01,0.0
1777733761.2259402,0.88,-0.71,0.3,-0.114,0.049,9.809,0.0,0.0,0.0
1777733761.2359462,0.88,-0.71,0.3,-0.114,0.043,9.809,0.0,0.0,0.0
1777733761.2468843,0.89,-0.71,0.29,-0.119,0.056,9.809,-0.01,-0.01,-0.01
1777733761.2564378,0.9,-0.71,0.29,-0.108,0.041,9.809,-0.01,0.0,-0.01
1777733761.2659523,0.9,-0.71,0.3,-0.126,0.028,9.809,0.0,0.0,-0.01
1777733761.276,0.9,-0.71,0.29,-0.115,0.026,9.809,0.0,0.0,-0.01
1777733761.286023,0.9,-0.71,0.29,-0.132,0.024,9.809,0.0,0.0,-0.01
1777733761.2959664,0.9,-0.72,0.29,-0.127,0.042,9.809,0.0,-0.01,0.0
1777733761.3064306,0.89,-0.71,0.29,-0.135,0.048,9.809,-0.01,0.0,0.0
1777733761.3160105,0.88,-0.72,0.3,-0.151,0.061,9.809,0.0,-0.01,0.0
1777733761.3259995,0.88,-0.72,0.3,-0.137,0.081,9.809,-0.01,0.0,0.0
1777733761.3359807,0.88,-0.71,0.3,-0.138,0.071,9.809,0.0,-0.01,-0.01
1777733761.3468697,0.89,-0.71,0.3,-0.133,0.06,9.809,0.0,-0.01,-0.01
1777733761.356211,0.9,-0.71,0.3,-0.121,0.042,9.809,-0.01,-0.01,-0.01
1777733761.365996,0.9,-0.71,0.29,-0.117,0.043,9.809,0.0,-0.01,-0.01
1777733761.3751855,0.9,-0.71,0.29,-0.111,0.02,9.809,-0.01,0.0,-0.01
1777733761.3851998,0.9,-0.71,0.29,-0.107,0.022,9.809,0.0,0.0,0.0
1777733761.3960102,0.9,-0.71,0.28,-0.11,0.024,9.809,0.0,-0.01,0.0
1777733761.4053931,0.89,-0.71,0.29,-0.121,0.035,9.809,-0.01,-0.01,0.0
1777733761.4159765,0.88,-0.71,0.29,-0.137,0.044,9.809,0.0,-0.01,0.0
1777733761.4260223,0.89,-0.72,0.3,-0.146,0.051,9.809,0.0,0.0,0.0
1777733761.4353805,0.89,-0.72,0.3,-0.15,0.059,9.809,0.0,0.0,-0.01
1777733761.445477,0.9,-0.72,0.3,-0.14,0.066,9.809,0.0,-0.01,-0.01
1777733761.4558556,0.9,-0.72,0.3,-0.135,0.06,9.809,0.0,-0.01,-0.01
1777733761.4652991,0.91,-0.71,0.3,-0.132,0.05,9.809,0.0,-0.01,-0.01
1777733761.4752421,0.91,-0.71,0.3,-0.123,0.054,9.809,-0.01,-0.01,-0.01
1777733761.4852185,0.9,-0.71,0.3,-0.115,0.046,9.809,0.0,-0.01,-0.01
1777733761.4952476,0.9,-0.71,0.3,-0.104,0.035,9.809,-0.01,0.0,0.0
1777733761.505247,0.89,-0.71,0.29,-0.095,0.054,9.809,-0.01,0.0,0.0
1777733761.5152621,0.89,-0.71,0.29,-0.103,0.054,9.809,-0.01,0.0,0.0
1777733761.525241,0.88,-0.71,0.3,-0.119,0.048,9.809,-0.01,0.0,0.0
1777733761.53528,0.88,-0.72,0.3,-0.128,0.055,9.809,0.0,0.0,0.0
1777733761.545236,0.89,-0.72,0.3,-0.137,0.048,9.809,0.0,0.0,-0.01
1777733761.5552857,0.9,-0.72,0.3,-0.156,0.054,9.809,0.0,0.0,-0.01
1777733761.5652745,0.91,-0.72,0.3,-0.152,0.032,9.809,0.0,-0.01,-0.01
1777733761.575288,0.91,-0.72,0.3,-0.154,0.049,9.809,-0.01,-0.01,-0.01
1777733761.5852559,0.91,-0.72,0.3,-0.129,0.038,9.809,-0.01,-0.01,-0.01
1777733761.5952623,0.9,-0.71,0.3,-0.121,0.05,9.809,-0.01,-0.01,0.0
1777733761.6052399,0.9,-0.71,0.3,-0.099,0.051,9.809,0.0,-0.01,0.0
1777733761.6152556,0.89,-0.7,0.3,-0.093,0.072,9.809,-0.01,-0.01,0.0
1777733761.6252334,0.89,-0.7,0.3,-0.101,0.068,9.809,-0.01,-0.01,0.0
1777733761.6353261,0.9,-0.71,0.3,-0.115,0.069,9.809,-0.01,0.0,-0.01
1777733761.645285,0.91,-0.71,0.3,-0.123,0.056,9.809,0.0,0.0,-0.01
1777733761.655305,0.92,-0.72,0.3,-0.133,0.029,9.809,0.0,0.0,-0.01
1777733761.665283,0.92,-0.72,0.29,-0.12,0.024,9.809,-0.01,0.0,-0.01
1777733761.6752646,0.91,-0.71,0.29,-0.138,0.025,9.809,-0.01,-0.01,-0.01
1777733761.685292,0.9,-0.72,0.29,-0.128,0.037,9.809,-0.01,-0.01,0.0
1777733761.6952903,0.89,-0.71,0.29,-0.137,0.048,9.809,0.0,-0.01,0.0
1777733761.7052937,0.88,-0.71,0.3,-0.131,0.054,9.809,0.0,-0.01,0.0
1777733761.7152689,0.89,-0.71,0.3,-0.12,0.054,9.809,0.0,-0.01,0.0
1777733761.725339,0.9,-0.7,0.3,-0.114,0.063,9.809,0.0,-0.01,-0.01
1777733761.7355049,0.91,-0.7,0.3,-0.098,0.038,9.809,-0.01,-0.01,-0.01
1777733761.7464483,0.92,-0.7,0.29,-0.101,0.036,9.809,-0.01,-0.01,-0.01
1777733761.7564206,0.92,-0.7,0.29,-0.093,0.025,9.809,0.0,0.0,-0.01
1777733761.7663085,0.92,-0.7,0.29,-0.102,0.022,9.809,0.0,0.0,0.0
1777733761.7754881,0.91,-0.7,0.29,-0.113,0.014,9.809,0.0,0.0,0.0
1777733761.7853189,0.9,-0.7,0.29,-0.131,0.032,9.809,0.0,-0.01,0.0
1777733761.7953067,0.9,-0.71,0.29,-0.134,0.053,9.809,-0.01,0.0,0.0
1777733761.8054018,0.9,-0.71,0.29,-0.143,0.065,9.809,-0.01,-0.01,0.0
1777733761.8153925,0.9,-0.71,0.3,-0.126,0.056,9.809,0.0,0.0,0.0
1777733761.8253384,0.9,-0.7,0.3,-0.128,0.067,9.809,0.0,-0.01,-0.01
1777733761.8358896,0.9,-0.7,0.29,-0.111,0.053,9.809,-0.01,-0.01,-0.01
1777733761.8454397,0.9,-0.7,0.29,-0.117,0.054,9.809,-0.01,-0.01,-0.01
1777733761.8553998,0.9,-0.7,0.29,-0.099,0.032,9.809,-0.01,-0.01,-0.01
1777733761.8656018,0.9,-0.7,0.29,-0.096,0.028,9.809,0.0,0.0,0.0
1777733761.8753552,0.89,-0.7,0.28,-0.086,0.041,9.809,-0.01,0.0,0.0
1777733761.8859982,0.89,-0.7,0.28,-0.108,0.013,9.809,-0.01,0.0,0.0
1777733761.8958588,0.89,-0.7,0.28,-0.126,0.046,9.809,0.0,-0.01,0.0
1777733761.9053397,0.9,-0.71,0.28,-0.131,0.04,9.809,0.0,0.0,-0.01
1777733761.915361,0.9,-0.72,0.29,-0.147,0.035,9.809,0.0,0.0,-0.01
1777733761.9253724,0.91,-0.72,0.28,-0.141,0.024,9.809,0.0,0.0,-0.01
1777733761.9354022,0.91,-0.72,0.28,-0.138,0.019,9.809,0.0,-0.01,-0.01
1777733761.945612,0.91,-0.71,0.28,-0.135,0.026,9.809,0.0,-0.01,-0.01
1777733761.9553797,0.9,-0.71,0.28,-0.123,0.043,9.809,-0.01,-0.01,0.0
1777733761.9653778,0.9,-0.7,0.28,-0.116,0.06,9.809,-0.01,-0.01,0.0
1777733761.975412,0.9,-0.7,0.29,-0.098,0.071,9.809,0.0,-0.01,0.0
1777733761.9853604,0.9,-0.7,0.29,-0.101,0.062,9.809,0.0,0.0,0.0
1777733761.9953876,0.9,-0.7,0.29,-0.098,0.054,9.809,-0.01,0.0,-0.01
1777733762.0053947,0.9,-0.7,0.28,-0.102,0.037,9.809,-0.01,0.0,-0.01
1777733762.0154111,0.9,-0.7,0.28,-0.114,0.044,9.809,-0.01,0.0,-0.01
1777733762.0253608,0.9,-0.71,0.28,-0.126,0.042,9.809,0.0,0.0,0.0
1777733762.0354185,0.9,-0.71,0.28,-0.146,0.042,9.809,-0.01,-0.01,0.0
1777733762.0454667,0.9,-0.71,0.28,-0.15,0.051,9.809,0.0,0.0,0.0
1777733762.0553784,0.9,-0.71,0.29,-0.15,0.054,9.809,-0.01,0.0,0.0
1777733762.065439,0.9,-0.71,0.28,-0.137,0.043,9.809,0.0,-0.01,-0.01
1777733762.0754478,0.9,-0.71,0.28,-0.128,0.04,9.809,0.0,-0.01,-0.01
1777733762.0864298,0.91,-0.7,0.28,-0.117,0.035,9.809,0.0,-0.01,-0.01
1777733762.0957,0.91,-0.7,0.28,-0.11,0.03,9.809,0.0,-0.01,-0.01
1777733762.106245,0.91,-0.7,0.28,-0.099,0.047,9.809,0.0,-0.01,0.0
1777733762.1154163,0.9,-0.7,0.28,-0.097,0.046,9.809,0.0,0.0,0.0
1777733762.1254187,0.9,-0.7,0.29,-0.098,0.059,9.809,-0.01,-0.01,0.0
1777733762.1353986,0.9,-0.7,0.29,-0.116,0.056,9.809,0.0,0.0,-0.01
1777733762.1445906,0.91,-0.7,0.29,-0.126,0.056,9.809,-0.01,-0.01,-0.01
1777733762.1557872,0.92,-0.71,0.29,-0.129,0.053,9.809,0.0,0.0,-0.01
1777733762.1654108,0.92,-0.71,0.29,-0.135,0.042,9.809,-0.01,-0.01,-0.01
1777733762.175451,0.92,-0.71,0.29,-0.126,0.034,9.809,0.0,0.0,-0.01
1777733762.184655,0.91,-0.7,0.29,-0.119,0.04,9.809,-0.01,-0.01,0.0
1777733762.1946523,0.91,-0.7,0.28,-0.127,0.036,9.809,0.0,-0.01,0.0
1777733762.2054536,0.91,-0.7,0.29,-0.117,0.041,9.809,-0.01,-0.01,0.0
1777733762.2146804,0.9,-0.7,0.28,-0.114,0.043,9.809,0.0,0.0,0.0
1777733762.2254403,0.91,-0.7,0.29,-0.102,0.04,9.809,-0.01,0.0,-0.01
1777733762.2346258,0.91,-0.69,0.28,-0.109,0.026,9.809,0.0,0.0,-0.01
1777733762.2446482,0.92,-0.7,0.28,-0.114,0.032,9.809,-0.01,-0.01,-0.01
1777733762.2546403,0.92,-0.7,0.28,-0.121,0.028,9.809,-0.01,0.0,-0.01
1777733762.2654834,0.92,-0.7,0.28,-0.133,0.028,9.809,0.0,0.0,-0.01
1777733762.2746491,0.91,-0.71,0.28,-0.127,0.014,9.809,0.0,0.0,0.0
1777733762.284644,0.9,-0.71,0.28,-0.127,0.026,9.809,0.0,0.0,0.0
1777733762.295295,0.9,-0.71,0.28,-0.132,0.047,9.809,0.0,-0.01,0.0
1777733762.305292,0.9,-0.71,0.28,-0.135,0.056,9.809,-0.01,-0.01,0.0
1777733762.3149405,0.89,-0.71,0.28,-0.138,0.069,9.809,-0.01,-0.01,0.0
1777733762.324635,0.9,-0.71,0.29,-0.135,0.085,9.809,-0.01,0.0,0.0
1777733762.3346553,0.9,-0.71,0.29,-0.138,0.068,9.809,-0.01,-0.01,-0.01
1777733762.3450994,0.9,-0.71,0.29,-0.133,0.061,9.809,0.0,-0.01,-0.01
1777733762.3550067,0.91,-0.71,0.28,-0.125,0.041,9.809,-0.01,-0.01,-0.01
1777733762.3650205,0.92,-0.71,0.28,-0.121,0.024,9.809,-0.01,0.0,-0.01
1777733762.3746352,0.91,-0.71,0.27,-0.115,0.017,9.809,-0.01,-0.01,-0.01
1777733762.3846838,0.91,-0.71,0.27,-0.109,0.022,9.809,0.0,0.0,0.0
1777733762.3946772,0.91,-0.7,0.27,-0.113,0.02,9.809,0.0,0.0,0.0
1777733762.4046311,0.9,-0.7,0.27,-0.117,0.034,9.809,0.0,-0.01,0.0
1777733762.4147067,0.9,-0.71,0.27,-0.125,0.057,9.809,-0.01,-0.01,0.0
1777733762.4253113,0.9,-0.71,0.28,-0.128,0.053,9.809,0.0,0.0,0.0
1777733762.434754,0.9,-0.71,0.29,-0.146,0.077,9.809,0.0,0.0,0.0
1777733762.4447243,0.9,-0.71,0.29,-0.137,0.075,9.809,0.0,0.0,0.0
1777733762.4546583,0.9,-0.71,0.29,-0.146,0.081,9.809,0.0,-0.01,-0.01
1777733762.464673,0.91,-0.71,0.29,-0.134,0.061,9.809,-0.01,-0.01,-0.01
1777733762.4746234,0.91,-0.71,0.29,-0.126,0.051,9.809,-0.01,0.0,-0.01
1777733762.4846926,0.91,-0.71,0.28,-0.115,0.031,9.809,-0.01,-0.01,-0.01
1777733762.495465,0.91,-0.71,0.28,-0.103,0.032,9.809,0.0,0.0,-0.01
1777733762.504694,0.91,-0.71,0.27,-0.104,0.031,9.809,0.0,-0.01,0.0
1777733762.514679,0.91,-0.7,0.28,-0.115,0.034,9.809,-0.01,-0.01,0.0
1777733762.5247,0.9,-0.71,0.28,-0.122,0.056,9.809,0.0,-0.01,0.0
1777733762.5347145,0.91,-0.71,0.29,-0.132,0.071,9.809,0.0,0.0,-0.01
1777733762.5446708,0.91,-0.71,0.3,-0.134,0.063,9.809,0.0,-0.01,-0.01
1777733762.55469,0.92,-0.71,0.3,-0.133,0.063,9.809,0.0,0.0,-0.01
1777733762.5646706,0.92,-0.71,0.3,-0.132,0.067,9.809,-0.01,-0.01,-0.01
1777733762.5747006,0.92,-0.71,0.3,-0.123,0.063,9.809,-0.01,-0.01,-0.01
1777733762.5849786,0.91,-0.71,0.3,-0.117,0.072,9.809,-0.01,-0.01,0.0
1777733762.5947118,0.9,-0.7,0.3,-0.119,0.068,9.809,-0.01,-0.01,0.0
1777733762.6048386,0.9,-0.7,0.3,-0.127,0.072,9.809,-0.01,-0.01,0.0
1777733762.6147103,0.9,-0.7,0.3,-0.115,0.072,9.809,-0.01,-0.01,-0.01
1777733762.6247861,0.91,-0.7,0.29,-0.132,0.061,9.809,-0.01,0.0,-0.01
1777733762.634754,0.93,-0.71,0.29,-0.121,0.03,9.809,-0.01,0.0,-0.01
1777733762.6447294,0.93,-0.71,0.29,-0.123,0.025,9.809,0.0,0.0,-0.01
1777733762.65483,0.93,-0.71,0.28,-0.113,0.007,9.809,0.0,-0.01,-0.01
1777733762.6654682,0.92,-0.71,0.29,-0.11,0.002,9.809,0.0,0.0,0.0
1777733762.6747196,0.9,-0.71,0.28,-0.113,0.031,9.809,0.0,-0.01,0.0
1777733762.6847394,0.9,-0.71,0.29,-0.122,0.037,9.809,0.0,0.0,0.01
1777733762.6947417,0.88,-0.71,0.29,-0.131,0.079,9.809,-0.01,-0.01,0.0
1777733762.7047513,0.88,-0.71,0.3,-0.137,0.095,9.809,0.0,0.0,0.0
1777733762.7147474,0.89,-0.72,0.3,-0.143,0.098,9.809,-0.01,-0.01,-0.01
1777733762.7247658,0.9,-0.72,0.3,-0.143,0.09,9.809,0.0,0.0,-0.01
1777733762.734747,0.91,-0.72,0.3,-0.132,0.077,9.809,-0.01,-0.01,-0.01
1777733762.7447848,0.91,-0.72,0.3,-0.128,0.044,9.809,-0.01,0.0,-0.01
1777733762.7548158,0.91,-0.71,0.29,-0.117,0.023,9.809,0.0,-0.01,-0.01
1777733762.7647374,0.91,-0.71,0.29,-0.108,0.011,9.809,0.0,-0.01,0.0
1777733762.7748294,0.9,-0.71,0.28,-0.105,0.001,9.809,-0.01,-0.01,0.0
1777733762.7847335,0.9,-0.71,0.28,-0.102,0.02,9.809,0.0,0.0,0.0
1777733762.7947817,0.89,-0.71,0.29,-0.11,0.046,9.809,0.0,0.0,0.0
1777733762.804784,0.9,-0.71,0.3,-0.123,0.04,9.809,0.0,-0.01,0.0
1777733762.8147485,0.9,-0.71,0.3,-0.125,0.069,9.809,0.0,0.0,-0.01
1777733762.8247886,0.9,-0.71,0.3,-0.129,0.059,9.809,-0.01,0.0,-0.01
1777733762.8347964,0.91,-0.71,0.3,-0.126,0.059,9.809,-0.01,0.0,-0.01
1777733762.8447962,0.91,-0.71,0.3,-0.117,0.072,9.809,0.0,0.0,-0.01
1777733762.8547654,0.91,-0.71,0.3,-0.116,0.068,9.809,0.0,-0.01,-0.01
1777733762.865228,0.91,-0.7,0.3,-0.115,0.043,9.809,-0.01,-0.01,0.0
1777733762.874797,0.91,-0.7,0.3,-0.119,0.061,9.809,-0.01,-0.01,-0.01
1777733762.884872,0.91,-0.7,0.3,-0.12,0.05,9.809,-0.01,-0.01,-0.01
1777733762.8939686,0.92,-0.7,0.3,-0.122,0.032,9.809,0.0,0.0,-0.01
1777733762.9055908,0.92,-0.71,0.3,-0.108,0.011,9.809,0.0,0.0,-0.01
1777733762.9141917,0.92,-0.7,0.29,-0.108,0.02,9.809,-0.01,0.0,-0.01
1777733762.9248495,0.91,-0.7,0.28,-0.113,0.011,9.809,-0.01,-0.01,0.0
1777733762.9340148,0.9,-0.7,0.29,-0.12,0.035,9.809,-0.01,-0.01,0.0
1777733762.9448833,0.9,-0.7,0.29,-0.134,0.051,9.809,0.0,-0.01,0.0
1777733762.9549012,0.9,-0.71,0.3,-0.132,0.055,9.809,0.0,0.0,0.0
1777733762.964211,0.9,-0.7,0.3,-0.133,0.068,9.809,0.0,0.0,-0.01
1777733762.9740014,0.91,-0.71,0.3,-0.143,0.061,9.809,0.0,-0.01,-0.01
1777733762.9848661,0.93,-0.7,0.3,-0.14,0.062,9.809,-0.01,-0.01,-0.01
1777733762.994102,0.93,-0.7,0.3,-0.134,0.047,9.809,-0.01,-0.01,-0.01
1777733763.0047598,0.93,-0.7,0.3,-0.125,0.031,9.809,0.0,0.0,-0.01
1777733763.013994,0.93,-0.7,0.29,-0.114,0.031,9.809,0.0,0.0,0.0
1777733763.0240057,0.91,-0.7,0.29,-0.109,0.02,9.809,-0.01,-0.01,0.0
1777733763.0340805,0.9,-0.7,0.29,-0.119,0.04,9.809,-0.01,-0.01,0.0
1777733763.0442684,0.9,-0.7,0.29,-0.123,0.049,9.809,-0.01,-0.01,0.0
1777733763.0540278,0.89,-0.7,0.29,-0.137,0.061,9.809,-0.01,0.0,0.0
1777733763.0640395,0.9,-0.71,0.3,-0.147,0.062,9.809,0.0,0.0,0.0
1777733763.07411,0.9,-0.71,0.3,-0.15,0.057,9.809,0.0,0.0,-0.01
1777733763.0840087,0.92,-0.71,0.29,-0.144,0.068,9.809,-0.01,0.0,-0.01
1777733763.0940607,0.93,-0.71,0.29,-0.137,0.041,9.809,-0.01,-0.01,-0.01
1777733763.1040306,0.93,-0.71,0.29,-0.125,0.046,9.809,-0.01,-0.01,-0.01
1777733763.1140604,0.93,-0.71,0.29,-0.108,0.028,9.809,0.0,-0.01,-0.01
1777733763.1240528,0.92,-0.7,0.29,-0.087,0.037,9.809,0.0,0.0,0.0
1777733763.1340036,0.9,-0.69,0.29,-0.087,0.044,9.809,0.0,0.0,0.0
1777733763.144543,0.9,-0.7,0.29,-0.109,0.051,9.809,-0.01,-0.01,0.0
1777733763.1546166,0.9,-0.7,0.3,-0.119,0.071,9.809,-0.01,0.0,0.0
1777733763.1644857,0.91,-0.71,0.3,-0.138,0.053,9.809,0.0,0.0,-0.01
1777733763.1740184,0.92,-0.72,0.3,-0.141,0.051,9.809,0.0,0.0,-0.01
1777733763.1840286,0.93,-0.72,0.29,-0.144,0.041,9.809,0.0,0.0,-0.01
1777733763.1940603,0.93,-0.72,0.29,-0.15,0.02,9.809,0.0,-0.01,-0.01
1777733763.204131,0.93,-0.72,0.29,-0.138,0.025,9.809,-0.01,-0.01,0.0
1777733763.214164,0.91,-0.71,0.29,-0.133,0.03,9.809,-0.01,-0.01,0.0
1777733763.224131,0.9,-0.71,0.29,-0.127,0.046,9.809,0.0,-0.01,0.0
1777733763.234034,0.89,-0.71,0.3,-0.115,0.062,9.809,0.0,0.0,0.0
1777733763.2440422,0.89,-0.7,0.3,-0.109,0.063,9.809,0.0,-0.01,0.0
1777733763.2541368,0.9,-0.7,0.3,-0.107,0.068,9.809,-0.01,-0.01,-0.01
1777733763.2640045,0.9,-0.7,0.3,-0.111,0.054,9.809,-0.01,0.0,-0.01
1777733763.2742486,0.92,-0.71,0.3,-0.11,0.044,9.809,0.0,0.0,-0.01
1777733763.2842143,0.93,-0.71,0.3,-0.109,0.05,9.809,0.0,0.0,-0.01
1777733763.2948203,0.93,-0.71,0.3,-0.108,0.024,9.809,0.0,0.0,-0.01
1777733763.3040938,0.93,-0.7,0.3,-0.129,0.029,9.809,0.0,-0.01,-0.01
1777733763.314548,0.92,-0.71,0.29,-0.127,0.036,9.809,0.0,-0.01,0.0
1777733763.3241966,0.91,-0.7,0.3,-0.131,0.048,9.809,-0.01,-0.01,0.0
1777733763.3340573,0.9,-0.7,0.3,-0.126,0.063,9.809,0.0,-0.01,0.0
1777733763.344103,0.9,-0.7,0.3,-0.119,0.085,9.809,0.0,-0.01,0.0
1777733763.3540654,0.9,-0.7,0.3,-0.115,0.078,9.809,-0.01,-0.01,0.0
1777733763.364095,0.91,-0.7,0.3,-0.116,0.08,9.809,-0.01,-0.01,-0.01
1777733763.3741288,0.92,-0.7,0.3,-0.107,0.063,9.809,-0.01,0.0,-0.01
1777733763.3840892,0.92,-0.7,0.3,-0.109,0.037,9.809,-0.01,0.0,-0.01
1777733763.394153,0.92,-0.7,0.29,-0.102,0.016,9.809,0.0,0.0,-0.01
1777733763.4041786,0.92,-0.7,0.28,-0.12,-0.001,9.809,-0.01,0.0,-0.01
1777733763.4141383,0.91,-0.7,0.28,-0.127,0.013,9.809,0.0,-0.01,0.0
1777733763.4244623,0.9,-0.7,0.28,-0.131,0.032,9.809,-0.01,0.0,0.0
1777733763.4342608,0.9,-0.71,0.29,-0.14,0.032,9.809,0.0,0.0,0.0
1777733763.4450357,0.9,-0.71,0.29,-0.143,0.072,9.809,0.0,-0.01,0.0
1777733763.4541564,0.9,-0.7,0.3,-0.148,0.069,9.809,0.0,-0.01,-0.01
1777733763.4641552,0.91,-0.71,0.3,-0.141,0.069,9.809,-0.01,-0.01,-0.01
1777733763.4746857,0.91,-0.71,0.3,-0.131,0.072,9.809,0.0,0.0,-0.01
1777733763.4844103,0.92,-0.71,0.29,-0.125,0.046,9.809,-0.01,-0.01,-0.01
1777733763.4945273,0.92,-0.7,0.29,-0.114,0.034,9.809,-0.01,0.0,-0.01
1777733763.5042048,0.91,-0.7,0.29,-0.109,0.028,9.809,0.0,-0.01,0.0
1777733763.5141547,0.9,-0.7,0.28,-0.105,0.035,9.809,-0.01,0.0,0.0
1777733763.5241694,0.9,-0.7,0.29,-0.119,0.029,9.809,-0.01,0.0,0.0
1777733763.5341663,0.9,-0.71,0.29,-0.127,0.035,9.809,0.0,0.0,0.0
1777733763.5442612,0.9,-0.71,0.29,-0.139,0.044,9.809,0.0,0.0,-0.01
1777733763.554169,0.91,-0.72,0.28,-0.15,0.025,9.809,0.0,0.0,-0.01
1777733763.564466,0.91,-0.72,0.28,-0.139,0.024,9.809,-0.01,0.0,-0.01
1777733763.5748231,0.91,-0.72,0.28,-0.14,0.036,9.809,0.0,0.0,-0.01
1777733763.5841863,0.9,-0.72,0.28,-0.133,0.062,9.809,0.0,-0.01,0.0
1777733763.5941823,0.9,-0.72,0.29,-0.132,0.072,9.809,0.0,0.0,0.0
1777733763.6041584,0.9,-0.71,0.3,-0.133,0.068,9.809,0.0,-0.01,0.0
1777733763.6141758,0.9,-0.71,0.29,-0.122,0.083,9.809,-0.01,-0.01,-0.01
1777733763.6241558,0.91,-0.71,0.29,-0.116,0.066,9.809,-0.01,-0.01,-0.01
1777733763.6341283,0.92,-0.71,0.29,-0.117,0.043,9.809,-0.01,0.0,-0.01
1777733763.6444213,0.92,-0.71,0.29,-0.11,0.023,9.809,-0.01,0.0,-0.01
1777733763.6549249,0.92,-0.71,0.28,-0.114,0.013,9.809,0.0,0.0,-0.01
1777733763.6647656,0.91,-0.71,0.28,-0.117,0.006,9.809,0.0,0.0,0.0
1777733763.6736448,0.91,-0.71,0.28,-0.137,0.025,9.809,0.0,-0.01,0.0
1777733763.6849484,0.9,-0.72,0.29,-0.144,0.041,9.809,0.0,-0.01,0.0
1777733763.6948295,0.9,-0.72,0.29,-0.152,0.06,9.809,0.0,0.0,0.0
1777733763.7046216,0.91,-0.72,0.29,-0.152,0.074,9.809,0.0,-0.01,-0.01
1777733763.7141829,0.91,-0.72,0.29,-0.141,0.084,9.809,-0.01,-0.01,-0.01
1777733763.7233715,0.9,-0.72,0.29,-0.131,0.086,9.809,-0.01,-0.01,0.0
1777733763.7342558,0.9,-0.71,0.29,-0.116,0.086,9.809,-0.01,-0.01,0.0
1777733763.7440102,0.9,-0.71,0.29,-0.109,0.075,9.809,-0.01,-0.01,0.0
1777733763.754728,0.9,-0.71,0.29,-0.111,0.06,9.809,-0.01,0.0,0.0
1777733763.7634232,0.9,-0.71,0.29,-0.113,0.034,9.809,-0.01,0.0,-0.01
1777733763.7733896,0.91,-0.71,0.28,-0.125,0.036,9.809,-0.01,0.0,-0.01
1777733763.7842045,0.92,-0.72,0.27,-0.12,0.02,9.809,-0.01,0.0,-0.01
1777733763.793384,0.93,-0.72,0.28,-0.133,0.01,9.809,0.0,0.0,-0.01
1777733763.8034122,0.93,-0.72,0.27,-0.139,0.017,9.809,0.0,0.0,-0.01
1777733763.8133981,0.93,-0.72,0.27,-0.139,0.012,9.809,-0.01,-0.01,-0.01
1777733763.823393,0.92,-0.72,0.27,-0.135,0.03,9.809,0.0,-0.01,0.0
1777733763.8334608,0.91,-0.72,0.28,-0.137,0.024,9.809,0.0,-0.01,0.0
1777733763.8434093,0.9,-0.72,0.28,-0.129,0.041,9.809,0.0,0.0,0.0
1777733763.8533823,0.9,-0.72,0.28,-0.125,0.065,9.809,0.0,-0.01,0.0
1777733763.8634293,0.89,-0.72,0.28,-0.105,0.081,9.809,-0.01,0.0,0.0
1777733763.8735104,0.88,-0.71,0.29,-0.114,0.08,9.809,-0.01,-0.01,0.0
1777733763.8834825,0.88,-0.72,0.29,-0.12,0.084,9.809,-0.01,-0.01,0.0
1777733763.8934398,0.89,-0.72,0.29,-0.127,0.084,9.809,-0.01,0.0,-0.01
1777733763.904034,0.9,-0.72,0.28,-0.134,0.062,9.809,-0.01,0.0,-0.01
1777733763.914117,0.9,-0.72,0.28,-0.127,0.034,9.809,-0.01,0.0,-0.01
1777733763.9236984,0.92,-0.72,0.27,-0.128,0.022,9.809,-0.01,-0.01,-0.01
1777733763.9846897,0.92,-0.72,0.27,-0.12,-0.004,9.809,-0.01,-0.01,-0.01
1777733763.98633,0.92,-0.72,0.27,-0.119,-0.019,9.809,-0.01,0.0,-0.01
1777733763.9877284,0.9,-0.72,0.26,-0.12,0.0,9.809,0.0,-0.01,0.0
1777733763.989103,0.9,-0.72,0.27,-0.103,0.019,9.809,0.0,-0.01,0.0
1777733763.9904704,0.89,-0.72,0.27,-0.11,0.051,9.809,0.0,-0.01,0.0
1777733763.9918823,0.89,-0.72,0.27,-0.12,0.081,9.809,0.0,-0.01,0.0
1777733763.9934938,0.89,-0.72,0.28,-0.131,0.081,9.809,0.0,-0.01,-0.01
1777733764.0034993,0.9,-0.72,0.28,-0.134,0.103,9.809,-0.01,0.0,-0.01
1777733764.0507445,0.91,-0.72,0.29,-0.133,0.081,9.809,-0.01,0.0,-0.01
1777733764.0719306,0.92,-0.72,0.28,-0.134,0.061,9.809,0.0,0.0,-0.01
1777733764.0737503,0.91,-0.72,0.28,-0.122,0.04,9.809,-0.01,0.0,-0.01
1777733764.0771341,0.9,-0.72,0.27,-0.123,0.044,9.809,-0.01,-0.01,0.0
1777733764.0785394,0.89,-0.72,0.27,-0.126,0.046,9.809,-0.01,-0.01,0.0
1777733764.0812936,0.89,-0.72,0.28,-0.126,0.054,9.809,0.0,-0.01,0.0
1777733764.0839188,0.89,-0.72,0.28,-0.122,0.049,9.809,0.0,0.0,0.0
1777733764.086587,0.9,-0.72,0.27,-0.121,0.051,9.809,-0.01,0.0,-0.01
1777733764.093618,0.91,-0.72,0.27,-0.114,0.044,9.809,-0.01,0.0,-0.01
1777733764.1038065,0.92,-0.72,0.27,-0.109,0.018,9.809,-0.01,-0.01,-0.01
1777733764.1136365,0.92,-0.72,0.27,-0.105,0.011,9.809,0.0,0.0,-0.01
1777733764.1239524,0.91,-0.72,0.27,-0.099,0.016,9.809,0.0,-0.01,0.0
1777733764.1334555,0.9,-0.72,0.27,-0.107,0.04,9.809,0.0,0.0,0.0
1777733764.1434388,0.9,-0.72,0.28,-0.113,0.074,9.809,-0.01,-0.01,0.0
1777733764.1534672,0.9,-0.72,0.28,-0.137,0.079,9.809,0.0,-0.01,0.0
1777733764.163477,0.9,-0.72,0.29,-0.133,0.078,9.809,-0.01,-0.01,-0.01
1777733764.1734884,0.91,-0.72,0.29,-0.132,0.066,9.809,0.0,0.0,-0.01
1777733764.1834624,0.92,-0.72,0.28,-0.122,0.049,9.809,-0.01,0.0,-0.01
1777733764.1934664,0.92,-0.72,0.28,-0.107,0.024,9.809,-0.01,0.0,-0.01
1777733764.2034721,0.9,-0.72,0.27,-0.095,0.023,9.809,0.0,-0.01,0.0
1777733764.2135792,0.89,-0.72,0.27,-0.09,0.024,9.809,-0.01,0.0,0.0
1777733764.2237039,0.88,-0.72,0.27,-0.091,0.048,9.809,-0.01,-0.01,0.01
1777733764.2334697,0.86,-0.72,0.27,-0.103,0.081,9.809,0.0,0.0,0.01
1777733764.2434866,0.86,-0.72,0.28,-0.123,0.093,9.809,0.0,-0.01,0.0
1777733764.2534556,0.88,-0.72,0.29,-0.139,0.077,9.809,0.0,0.0,-0.01
1777733764.263503,0.89,-0.72,0.28,-0.139,0.093,9.809,-0.01,0.0,-0.01
1777733764.273478,0.9,-0.72,0.28,-0.143,0.049,9.809,-0.01,0.0,-0.02
1777733764.283548,0.92,-0.72,0.28,-0.138,0.026,9.809,-0.01,-0.01,-0.01
1777733764.2935007,0.91,-0.72,0.27,-0.117,0.022,9.809,0.0,-0.01,-0.01
1777733764.304,0.9,-0.72,0.27,-0.114,0.004,9.809,0.0,-0.01,0.0
1777733764.3138113,0.89,-0.72,0.27,-0.102,0.022,9.809,0.0,-0.01,0.0
1777733764.3234925,0.88,-0.71,0.27,-0.102,0.051,9.809,0.0,-0.01,0.0
1777733764.3337765,0.88,-0.71,0.28,-0.116,0.059,9.809,0.0,-0.01,0.0
1777733764.3437762,0.88,-0.71,0.29,-0.119,0.066,9.809,0.0,0.0,-0.01
1777733764.3535833,0.9,-0.72,0.29,-0.123,0.085,9.809,0.0,0.0,-0.01
1777733764.3635044,0.9,-0.72,0.29,-0.129,0.072,9.809,-0.01,0.0,-0.01
1777733764.3734915,0.9,-0.72,0.29,-0.126,0.071,9.809,-0.01,0.0,-0.01
1777733764.383569,0.9,-0.72,0.29,-0.131,0.042,9.809,0.0,-0.01,-0.01
1777733764.3937998,0.89,-0.72,0.29,-0.132,0.05,9.809,-0.01,-0.01,0.0
1777733764.4038768,0.88,-0.72,0.28,-0.129,0.06,9.809,-0.01,-0.01,0.0
1777733764.4135282,0.88,-0.72,0.28,-0.125,0.049,9.809,-0.01,-0.01,0.0
1777733764.423503,0.89,-0.72,0.28,-0.12,0.05,9.809,0.0,-0.01,0.0
1777733764.4337182,0.9,-0.71,0.28,-0.115,0.05,9.809,-0.01,-0.01,-0.01
1777733764.443551,0.9,-0.71,0.28,-0.119,0.026,9.809,-0.01,-0.01,-0.01
1777733764.4536073,0.91,-0.71,0.28,-0.105,0.016,9.809,0.0,-0.01,-0.01
1777733764.4635365,0.91,-0.71,0.27,-0.103,0.023,9.809,0.0,0.0,-0.01
1777733764.4735153,0.9,-0.71,0.27,-0.114,0.024,9.809,-0.01,-0.01,0.0
1777733764.4835477,0.89,-0.71,0.27,-0.109,0.04,9.809,-0.01,0.0,0.0
1777733764.493884,0.88,-0.71,0.28,-0.128,0.067,9.809,-0.01,-0.01,0.0
1777733764.5040307,0.88,-0.72,0.29,-0.132,0.069,9.809,0.0,-0.01,0.0
1777733764.5127115,0.88,-0.72,0.29,-0.141,0.097,9.809,0.0,0.0,0.0
1777733764.5235636,0.89,-0.72,0.29,-0.144,0.071,9.809,-0.01,-0.01,-0.01
1777733764.5335886,0.9,-0.72,0.29,-0.139,0.072,9.809,-0.01,0.0,-0.01
1777733764.542706,0.91,-0.72,0.29,-0.126,0.043,9.809,-0.01,-0.01,-0.01
1777733764.5537617,0.92,-0.72,0.28,-0.116,0.025,9.809,0.0,0.0,-0.01
1777733764.5636396,0.91,-0.71,0.28,-0.109,0.024,9.809,-0.01,-0.01,-0.01
1777733764.573108,0.9,-0.71,0.28,-0.11,0.016,9.809,0.0,-0.01,0.0
1777733764.5827367,0.89,-0.71,0.27,-0.115,0.048,9.809,0.0,-0.01,0.0
1777733764.592721,0.89,-0.71,0.28,-0.125,0.044,9.809,-0.01,-0.01,0.0
1777733764.6036024,0.89,-0.71,0.28,-0.126,0.051,9.809,-0.01,-0.01,0.0
1777733764.6127334,0.89,-0.72,0.28,-0.134,0.062,9.809,0.0,0.0,-0.01
1777733764.6227462,0.9,-0.72,0.29,-0.123,0.046,9.809,0.0,0.0,-0.01
1777733764.632813,0.9,-0.72,0.28,-0.131,0.043,9.809,0.0,0.0,-0.01
1777733764.642764,0.91,-0.72,0.28,-0.125,0.04,9.809,-0.01,-0.01,-0.01
1777733764.6531658,0.91,-0.72,0.28,-0.121,0.031,9.809,-0.01,0.0,-0.01
1777733764.662753,0.9,-0.72,0.28,-0.121,0.032,9.809,0.0,-0.01,0.0
1777733764.6727865,0.9,-0.71,0.28,-0.107,0.031,9.809,0.0,0.0,0.0
1777733764.6830482,0.89,-0.71,0.28,-0.119,0.054,9.809,0.0,-0.01,0.0
1777733764.6928573,0.89,-0.71,0.28,-0.115,0.05,9.809,0.0,-0.01,0.0
1777733764.7027452,0.9,-0.71,0.29,-0.123,0.054,9.809,-0.01,-0.01,0.0
1777733764.7134333,0.9,-0.71,0.28,-0.123,0.068,9.809,0.0,0.0,-0.01
1777733764.7229302,0.9,-0.72,0.29,-0.125,0.056,9.809,-0.01,0.0,-0.01
1777733764.7327764,0.9,-0.71,0.29,-0.128,0.048,9.809,0.0,0.0,-0.01
1777733764.7431314,0.9,-0.72,0.28,-0.131,0.053,9.809,0.0,-0.01,-0.01
1777733764.7531037,0.89,-0.72,0.28,-0.119,0.051,9.809,-0.01,0.0,0.0
1777733764.7631714,0.89,-0.72,0.28,-0.12,0.028,9.809,-0.01,0.0,0.0
1777733764.7728064,0.88,-0.72,0.28,-0.131,0.03,9.809,0.0,-0.01,0.0
1777733764.7830195,0.88,-0.72,0.27,-0.123,0.032,9.809,0.0,0.0,0.0
1777733764.7927423,0.88,-0.72,0.27,-0.133,0.035,9.809,-0.01,0.0,-0.01
1777733764.803062,0.89,-0.72,0.27,-0.132,0.018,9.809,-0.01,-0.01,-0.01
1777733764.8128526,0.89,-0.72,0.27,-0.131,0.047,9.809,0.0,0.0,-0.01
1777733764.8228574,0.89,-0.72,0.28,-0.129,0.035,9.809,0.0,-0.01,-0.01
1777733764.832871,0.89,-0.72,0.27,-0.134,0.055,9.809,0.0,0.0,0.0
1777733764.8431563,0.88,-0.72,0.28,-0.138,0.059,9.809,0.0,-0.01,0.0
1777733764.8528075,0.88,-0.72,0.28,-0.129,0.069,9.809,0.0,-0.01,0.0
1777733764.8628876,0.88,-0.72,0.28,-0.122,0.06,9.809,0.0,-0.01,0.0
1777733764.873041,0.89,-0.72,0.28,-0.113,0.056,9.809,-0.01,-0.01,-0.01
1777733764.8830798,0.89,-0.72,0.28,-0.117,0.057,9.809,-0.01,0.0,-0.01
1777733764.8927934,0.9,-0.72,0.28,-0.113,0.049,9.809,-0.01,-0.01,-0.01
1777733764.9028263,0.9,-0.72,0.28,-0.12,0.035,9.809,0.0,0.0,-0.01
1777733764.9128165,0.9,-0.72,0.27,-0.122,0.034,9.809,0.0,0.0,-0.01
1777733764.923606,0.9,-0.72,0.27,-0.121,0.03,9.809,-0.01,0.0,0.0
1777733764.9332862,0.89,-0.72,0.27,-0.125,0.037,9.809,-0.01,0.0,0.0
1777733764.9427996,0.88,-0.72,0.27,-0.121,0.059,9.809,0.0,0.0,0.0
1777733764.9528208,0.88,-0.72,0.28,-0.122,0.051,9.809,0.0,-0.01,0.0
1777733764.9629061,0.88,-0.72,0.28,-0.123,0.078,9.809,0.0,-0.01,0.0
1777733764.9728775,0.88,-0.72,0.29,-0.128,0.074,9.809,0.0,0.0,-0.01
1777733764.9828506,0.89,-0.72,0.28,-0.134,0.067,9.809,0.0,-0.01,-0.01
1777733764.9928074,0.9,-0.72,0.28,-0.116,0.05,9.809,-0.01,0.0,-0.01
1777733765.0028431,0.9,-0.72,0.28,-0.108,0.034,9.809,-0.01,0.0,-0.01
1777733765.012839,0.9,-0.72,0.27,-0.105,0.018,9.809,0.0,-0.01,-0.01
1777733765.022826,0.9,-0.71,0.27,-0.101,0.014,9.809,0.0,0.0,0.0
1777733765.0328398,0.89,-0.71,0.27,-0.115,0.03,9.809,0.0,-0.01,0.0
1777733765.042849,0.89,-0.71,0.28,-0.129,0.037,9.809,0.0,-0.01,0.0
1777733765.0528245,0.89,-0.72,0.28,-0.132,0.063,9.809,0.0,-0.01,0.0
1777733765.0629046,0.9,-0.72,0.28,-0.143,0.067,9.809,0.0,0.0,-0.01
1777733765.0728374,0.9,-0.72,0.29,-0.14,0.067,9.809,0.0,-0.01,-0.01
1777733765.0828192,0.9,-0.72,0.28,-0.12,0.055,9.809,-0.01,0.0,-0.01
1777733765.092864,0.9,-0.72,0.28,-0.117,0.067,9.809,-0.01,-0.01,-0.01
1777733765.1028316,0.89,-0.72,0.28,-0.109,0.061,9.809,-0.01,0.0,0.0
1777733765.1131077,0.88,-0.71,0.28,-0.122,0.056,9.809,-0.01,-0.01,0.0
1777733765.1228755,0.88,-0.72,0.28,-0.125,0.05,9.809,0.0,-0.01,0.0
1777733765.132812,0.88,-0.72,0.28,-0.128,0.053,9.809,-0.01,0.0,0.0
1777733765.1428518,0.89,-0.72,0.27,-0.135,0.057,9.809,-0.01,0.0,-0.01
1777733765.1530411,0.9,-0.72,0.28,-0.131,0.036,9.809,-0.01,0.0,-0.01
1777733765.1631985,0.9,-0.72,0.27,-0.137,0.012,9.809,0.0,0.0,-0.01
1777733765.1728978,0.9,-0.72,0.27,-0.134,0.025,9.809,0.0,-0.01,-0.01
1777733765.182899,0.9,-0.72,0.27,-0.119,0.025,9.809,0.0,0.0,-0.01
1777733765.1928782,0.9,-0.72,0.27,-0.122,0.031,9.809,0.0,-0.01,0.0
1777733765.2029119,0.88,-0.72,0.28,-0.105,0.056,9.809,-0.01,-0.01,0.0
1777733765.212877,0.88,-0.71,0.28,-0.119,0.084,9.809,0.0,-0.01,0.0
1777733765.2229311,0.87,-0.72,0.29,-0.126,0.098,9.809,0.0,-0.01,0.0
1777733765.2328672,0.88,-0.72,0.29,-0.126,0.107,9.809,0.0,0.0,0.0
1777733765.2420485,0.88,-0.72,0.29,-0.132,0.091,9.809,-0.01,0.0,-0.01
1777733765.2531495,0.9,-0.72,0.29,-0.135,0.068,9.809,-0.01,0.0,-0.01
1777733765.2631629,0.9,-0.72,0.28,-0.129,0.034,9.809,-0.01,0.0,-0.01
1777733765.2720702,0.9,-0.72,0.27,-0.132,0.024,9.809,-0.01,-0.01,-0.01
1777733765.28291,0.9,-0.72,0.27,-0.126,-0.005,9.809,0.0,-0.01,0.0
1777733765.2920475,0.89,-0.72,0.27,-0.132,0.019,9.809,0.0,-0.01,0.0
1777733765.3029377,0.88,-0.72,0.27,-0.126,0.032,9.809,0.0,-0.01,0.0
1777733765.3123467,0.88,-0.72,0.28,-0.128,0.053,9.809,0.0,-0.01,0.0
1777733765.3220627,0.88,-0.72,0.29,-0.135,0.075,9.809,0.0,-0.01,0.0
1777733765.3320603,0.88,-0.72,0.29,-0.129,0.09,9.809,0.0,-0.01,-0.01
1777733765.342933,0.89,-0.72,0.3,-0.129,0.091,9.809,-0.01,-0.01,-0.01
1777733765.3524456,0.9,-0.72,0.3,-0.122,0.083,9.809,-0.01,0.0,-0.01
1777733765.3620803,0.9,-0.72,0.29,-0.115,0.063,9.809,-0.01,0.0,-0.01
1777733765.372195,0.89,-0.72,0.29,-0.113,0.053,9.809,-0.01,0.0,0.0
1777733765.3822796,0.88,-0.72,0.28,-0.116,0.036,9.809,-0.01,0.0,0.0
1777733765.3920746,0.88,-0.72,0.28,-0.126,0.047,9.809,-0.01,-0.01,0.0
1777733765.402072,0.88,-0.72,0.28,-0.129,0.04,9.809,0.0,-0.01,0.0
1777733765.4124157,0.88,-0.72,0.28,-0.129,0.029,9.809,-0.01,0.0,-0.01
1777733765.4221184,0.89,-0.72,0.28,-0.126,0.026,9.809,0.0,0.0,-0.01
1777733765.4320734,0.9,-0.72,0.27,-0.116,0.017,9.809,0.0,-0.01,-0.01
1777733765.442126,0.9,-0.72,0.27,-0.115,0.022,9.809,0.0,0.0,-0.01
1777733765.4520693,0.9,-0.72,0.28,-0.114,0.016,9.809,0.0,-0.01,-0.01
1777733765.4623647,0.89,-0.72,0.28,-0.119,0.037,9.809,0.0,-0.01,0.0
1777733765.4720898,0.89,-0.72,0.29,-0.109,0.054,9.809,0.0,-0.01,0.0
1777733765.482112,0.88,-0.72,0.29,-0.117,0.083,9.809,0.0,0.0,0.0
1777733765.4923012,0.88,-0.72,0.29,-0.12,0.079,9.809,0.0,-0.01,0.0
1777733765.5021007,0.88,-0.72,0.29,-0.127,0.091,9.809,-0.01,-0.01,0.0
1777733765.5120702,0.88,-0.72,0.29,-0.122,0.084,9.809,-0.01,0.0,-0.01
1777733765.5221305,0.88,-0.72,0.29,-0.127,0.079,9.809,-0.01,0.0,-0.01
1777733765.5320818,0.88,-0.72,0.29,-0.123,0.054,9.809,0.0,0.0,-0.01
1777733765.5420682,0.89,-0.72,0.28,-0.127,0.048,9.809,-0.01,-0.01,-0.01
1777733765.552429,0.89,-0.72,0.27,-0.122,0.014,9.809,-0.01,-0.01,-0.01
1777733765.5621233,0.9,-0.72,0.27,-0.126,0.008,9.809,-0.01,-0.01,-0.01
1777733765.5724208,0.9,-0.72,0.27,-0.113,-0.014,9.809,0.0,0.0,-0.01
1777733765.5823393,0.89,-0.72,0.27,-0.104,-0.006,9.809,0.0,0.0,0.0
1777733765.592746,0.88,-0.72,0.27,-0.104,0.0,9.809,0.0,0.0,0.0
1777733765.602498,0.88,-0.72,0.27,-0.121,0.028,9.809,0.0,-0.01,0.0
1777733765.6121814,0.88,-0.72,0.28,-0.127,0.059,9.809,0.0,0.0,0.0
1777733765.6221995,0.88,-0.72,0.29,-0.146,0.08,9.809,0.0,-0.01,0.0
1777733765.6321096,0.88,-0.72,0.29,-0.138,0.09,9.809,0.0,0.0,-0.01
1777733765.6421332,0.89,-0.72,0.3,-0.147,0.097,9.809,0.0,0.0,-0.01
1777733765.6524024,0.9,-0.72,0.29,-0.139,0.073,9.809,-0.01,-0.01,-0.01
1777733765.662104,0.9,-0.72,0.29,-0.129,0.053,9.809,-0.01,0.0,-0.01
1777733765.6721528,0.9,-0.72,0.28,-0.12,0.037,9.809,-0.01,-0.01,-0.01
1777733765.6821215,0.9,-0.72,0.28,-0.115,0.035,9.809,-0.01,-0.01,0.0
1777733765.6921127,0.89,-0.72,0.27,-0.117,0.019,9.809,-0.01,-0.01,0.0
1777733765.702166,0.88,-0.72,0.27,-0.115,0.026,9.809,-0.01,-0.01,0.0
1777733765.71245,0.88,-0.72,0.27,-0.125,0.031,9.809,0.0,-0.01,0.0
1777733765.7223065,0.89,-0.72,0.27,-0.129,0.026,9.809,0.0,0.0,-0.01
1777733765.7322114,0.89,-0.72,0.27,-0.129,0.02,9.809,0.0,0.0,-0.01
1777733765.7421353,0.89,-0.72,0.27,-0.135,0.029,9.809,0.0,0.0,-0.01
1777733765.7521317,0.89,-0.72,0.27,-0.125,0.036,9.809,0.0,0.0,-0.01
1777733765.7622554,0.89,-0.72,0.28,-0.129,0.046,9.809,-0.01,-0.01,0.0
1777733765.772153,0.88,-0.72,0.28,-0.131,0.073,9.809,0.0,-0.01,0.0
1777733765.782156,0.88,-0.72,0.29,-0.127,0.073,9.809,0.0,-0.01,0.0
1777733765.7925074,0.88,-0.72,0.29,-0.135,0.093,9.809,0.0,-0.01,0.0
1777733765.8021617,0.89,-0.72,0.29,-0.122,0.062,9.809,-0.01,-0.01,-0.01
1777733765.8124225,0.9,-0.72,0.29,-0.135,0.063,9.809,-0.01,0.0,-0.01
1777733765.8221934,0.9,-0.72,0.28,-0.122,0.054,9.809,-0.01,-0.01,-0.01
1777733765.832228,0.9,-0.72,0.28,-0.122,0.028,9.809,-0.01,0.0,-0.01
1777733765.842148,0.9,-0.72,0.27,-0.108,0.013,9.809,0.0,0.0,0.0
1777733765.8521805,0.88,-0.72,0.27,-0.097,0.01,9.809,-0.01,0.0,0.0
1777733765.8621483,0.86,-0.72,0.27,-0.11,0.048,9.809,-0.01,0.0,0.01
1777733765.872398,0.85,-0.72,0.27,-0.131,0.053,9.809,-0.01,-0.01,0.01
1777733765.8821716,0.85,-0.72,0.28,-0.148,0.071,9.809,0.0,0.0,0.0
1777733765.8921971,0.86,-0.73,0.29,-0.145,0.092,9.809,0.0,0.0,-0.01
1777733765.9021502,0.88,-0.73,0.29,-0.14,0.069,9.809,0.0,0.0,-0.02
1777733765.9122586,0.9,-0.73,0.29,-0.143,0.053,9.809,-0.01,-0.01,-0.02
1777733765.9225855,0.9,-0.73,0.28,-0.126,0.046,9.809,-0.01,-0.01,-0.02
1777733765.9323075,0.9,-0.72,0.28,-0.111,0.022,9.809,-0.01,-0.01,-0.01
1777733765.942165,0.89,-0.72,0.28,-0.111,0.029,9.809,0.0,-0.01,0.0
1777733765.9521801,0.88,-0.72,0.28,-0.097,0.04,9.809,0.0,-0.01,0.0
1777733765.962253,0.88,-0.72,0.28,-0.102,0.05,9.809,-0.01,-0.01,0.0
1777733765.972196,0.87,-0.72,0.28,-0.115,0.051,9.809,0.0,-0.01,0.0
1777733765.9822268,0.88,-0.72,0.28,-0.122,0.061,9.809,-0.01,0.0,-0.01
1777733765.9923093,0.88,-0.72,0.29,-0.126,0.062,9.809,-0.01,0.0,-0.01
1777733766.0023153,0.88,-0.72,0.28,-0.125,0.053,9.809,0.0,0.0,-0.01
1777733766.012199,0.88,-0.72,0.28,-0.12,0.042,9.809,0.0,0.0,-0.01
1777733766.0214062,0.88,-0.72,0.28,-0.122,0.042,9.809,0.0,-0.01,0.0
1777733766.0322433,0.88,-0.72,0.28,-0.119,0.041,9.809,0.0,-0.01,0.0
1777733766.0422108,0.88,-0.72,0.28,-0.128,0.044,9.809,0.0,-0.01,0.0
1777733766.0514245,0.88,-0.72,0.28,-0.116,0.042,9.809,0.0,-0.01,0.0
1777733766.062223,0.88,-0.72,0.29,-0.117,0.034,9.809,0.0,0.0,-0.01
1777733766.0713937,0.89,-0.72,0.29,-0.108,0.035,9.809,0.0,-0.01,-0.01
1777733766.0822105,0.89,-0.72,0.28,-0.116,0.044,9.809,0.0,0.0,-0.01
1777733766.0914,0.89,-0.72,0.28,-0.117,0.031,9.809,-0.01,-0.01,-0.01
1777733766.1013944,0.89,-0.72,0.28,-0.116,0.032,9.809,-0.01,0.0,-0.01
1777733766.1114273,0.88,-0.72,0.28,-0.116,0.044,9.809,-0.01,0.0,0.0
1777733766.1222086,0.88,-0.72,0.28,-0.117,0.054,9.809,0.0,0.0,0.0
1777733766.1314006,0.87,-0.72,0.28,-0.125,0.073,9.809,-0.01,-0.01,0.0
1777733766.1414003,0.86,-0.72,0.28,-0.137,0.065,9.809,-0.01,-0.01,0.0
1777733766.1514385,0.87,-0.72,0.28,-0.134,0.073,9.809,-0.01,-0.01,-0.01
1777733766.1613953,0.88,-0.72,0.28,-0.132,0.072,9.809,0.0,0.0,-0.01
1777733766.1722891,0.89,-0.73,0.28,-0.129,0.042,9.809,-0.01,-0.01,-0.01
1777733766.1814167,0.9,-0.72,0.28,-0.123,0.038,9.809,0.0,0.0,-0.01
1777733766.191403,0.9,-0.72,0.28,-0.116,0.02,9.809,0.0,-0.01,-0.01
1777733766.2014117,0.9,-0.72,0.27,-0.115,0.037,9.809,0.0,-0.01,-0.01
1777733766.2114327,0.89,-0.72,0.28,-0.108,0.022,9.809,-0.01,-0.01,0.0
1777733766.2214067,0.88,-0.72,0.28,-0.114,0.038,9.809,0.0,-0.01,0.0
1777733766.2313921,0.88,-0.72,0.28,-0.11,0.036,9.809,0.0,-0.01,0.0
1777733766.2414138,0.88,-0.72,0.28,-0.114,0.055,9.809,0.0,0.0,0.0
1777733766.2514508,0.88,-0.72,0.28,-0.115,0.054,9.809,-0.01,0.0,-0.01
1777733766.261485,0.89,-0.72,0.29,-0.129,0.083,9.809,-0.01,-0.01,-0.01
1777733766.2714083,0.9,-0.72,0.28,-0.134,0.073,9.809,0.0,-0.01,-0.01
1777733766.281417,0.9,-0.72,0.29,-0.134,0.069,9.809,-0.01,-0.01,-0.01
1777733766.2914639,0.9,-0.72,0.28,-0.127,0.059,9.809,0.0,0.0,-0.01
1777733766.3014305,0.89,-0.72,0.28,-0.117,0.051,9.809,-0.01,-0.01,0.0
1777733766.3114743,0.88,-0.72,0.28,-0.103,0.042,9.809,-0.01,0.0,0.0
1777733766.3214202,0.87,-0.72,0.27,-0.099,0.053,9.809,-0.01,-0.01,0.0
1777733766.3318157,0.86,-0.72,0.28,-0.114,0.05,9.809,0.0,-0.01,0.0
1777733766.3418813,0.86,-0.72,0.28,-0.127,0.072,9.809,0.0,0.0,0.0
1777733766.3514638,0.88,-0.72,0.28,-0.127,0.051,9.809,0.0,0.0,-0.01
1777733766.3619044,0.88,-0.72,0.28,-0.146,0.047,9.809,0.0,0.0,-0.01
1777733766.3714387,0.9,-0.72,0.28,-0.127,0.03,9.809,-0.01,0.0,-0.01
1777733766.3814425,0.9,-0.72,0.27,-0.126,0.014,9.809,0.0,0.0,-0.01
1777733766.3916283,0.9,-0.72,0.27,-0.117,0.01,9.809,0.0,-0.01,-0.01
1777733766.40145,0.88,-0.72,0.27,-0.116,0.028,9.809,0.0,-0.01,0.0
1777733766.4114645,0.88,-0.72,0.27,-0.121,0.055,9.809,0.0,-0.01,0.0
1777733766.4216723,0.87,-0.72,0.28,-0.116,0.063,9.809,-0.01,-0.01,0.0
1777733766.4314704,0.87,-0.72,0.28,-0.125,0.092,9.809,0.0,-0.01,0.0
1777733766.4414346,0.88,-0.72,0.29,-0.122,0.096,9.809,-0.01,-0.01,-0.01
1777733766.4514718,0.88,-0.72,0.29,-0.122,0.072,9.809,0.0,0.0,-0.01
1777733766.4614298,0.89,-0.72,0.29,-0.116,0.056,9.809,-0.01,0.0,-0.01
1777733766.4715753,0.9,-0.72,0.28,-0.116,0.041,9.809,-0.01,0.0,-0.01
1777733766.4814954,0.9,-0.72,0.27,-0.122,0.017,9.809,-0.01,-0.01,-0.01
1777733766.491446,0.89,-0.72,0.27,-0.132,0.013,9.809,-0.01,-0.01,0.0
1777733766.5014822,0.88,-0.72,0.27,-0.129,0.022,9.809,0.0,0.0,0.0
1777733766.511455,0.88,-0.72,0.27,-0.135,0.036,9.809,0.0,-0.01,0.0
1777733766.5214515,0.88,-0.72,0.27,-0.126,0.046,9.809,0.0,-0.01,0.0
1777733766.5314965,0.88,-0.72,0.28,-0.139,0.063,9.809,0.0,-0.01,0.0
1777733766.541478,0.88,-0.72,0.28,-0.133,0.072,9.809,0.0,-0.01,-0.01
1777733766.55149,0.88,-0.72,0.29,-0.125,0.071,9.809,0.0,0.0,-0.01
1777733766.561705,0.89,-0.72,0.29,-0.12,0.066,9.809,0.0,0.0,-0.01
1777733766.5715528,0.89,-0.72,0.29,-0.113,0.063,9.809,-0.01,0.0,-0.01
1777733766.58146,0.88,-0.72,0.28,-0.11,0.048,9.809,0.0,0.0,-0.01
1777733766.5914772,0.88,-0.72,0.28,-0.113,0.044,9.809,-0.01,-0.01,0.0
1777733766.6014693,0.88,-0.72,0.28,-0.12,0.059,9.809,-0.01,0.0,0.0
1777733766.6114938,0.88,-0.72,0.28,-0.129,0.046,9.809,-0.01,0.0,0.0
1777733766.6214628,0.88,-0.72,0.28,-0.128,0.05,9.809,0.0,0.0,-0.01
1777733766.631504,0.89,-0.72,0.28,-0.128,0.051,9.809,-0.01,-0.01,-0.01
1777733766.6414886,0.89,-0.72,0.28,-0.134,0.051,9.809,0.0,-0.01,-0.01
1777733766.6517732,0.89,-0.72,0.28,-0.117,0.055,9.809,-0.01,-0.01,-0.01
1777733766.6617582,0.89,-0.72,0.28,-0.113,0.044,9.809,0.0,0.0,-0.01
1777733766.671833,0.89,-0.72,0.28,-0.101,0.036,9.809,-0.01,-0.01,0.0
1777733766.681826,0.88,-0.72,0.28,-0.087,0.048,9.809,0.0,0.0,0.0
1777733766.6914632,0.88,-0.72,0.28,-0.097,0.06,9.809,-0.01,-0.01,0.0
1777733766.7014577,0.88,-0.72,0.28,-0.108,0.057,9.809,0.0,0.0,0.0
1777733766.7114654,0.88,-0.72,0.29,-0.127,0.059,9.809,0.0,-0.01,0.0
1777733766.721663,0.88,-0.72,0.28,-0.135,0.066,9.809,0.0,0.0,-0.01
1777733766.7315388,0.89,-0.72,0.28,-0.15,0.048,9.809,-0.01,0.0,-0.01
1777733766.7418988,0.89,-0.72,0.28,-0.141,0.047,9.809,-0.01,0.0,-0.01
1777733766.7515028,0.88,-0.72,0.27,-0.141,0.046,9.809,-0.01,-0.01,-0.01
1777733766.7620397,0.88,-0.72,0.27,-0.131,0.03,9.809,-0.01,-0.01,0.0
1777733766.7715313,0.87,-0.72,0.27,-0.125,0.065,9.809,-0.01,-0.01,0.0
1777733766.7816856,0.87,-0.72,0.27,-0.115,0.054,9.809,-0.01,-0.01,0.0
1777733766.7915485,0.87,-0.72,0.27,-0.113,0.049,9.809,0.0,0.0,0.0
1777733766.8015158,0.88,-0.72,0.27,-0.104,0.037,9.809,0.0,0.0,-0.01
1777733766.811706,0.88,-0.72,0.27,-0.103,0.034,9.809,-0.01,0.0,-0.01
1777733766.8215053,0.88,-0.72,0.27,-0.107,0.046,9.809,-0.01,0.0,-0.01
1777733766.8319213,0.89,-0.72,0.27,-0.114,0.024,9.809,0.0,0.0,-0.01
1777733766.842227,0.89,-0.72,0.27,-0.128,0.042,9.809,0.0,-0.01,-0.01
1777733766.851579,0.88,-0.72,0.28,-0.133,0.054,9.809,0.0,0.0,0.0
1777733766.8607306,0.88,-0.72,0.28,-0.15,0.063,9.809,0.0,-0.01,0.0
1777733766.8719018,0.88,-0.72,0.29,-0.143,0.071,9.809,0.0,-0.01,0.0
1777733766.8810387,0.88,-0.72,0.29,-0.145,0.075,9.809,0.0,-0.01,-0.01
1777733766.8910143,0.88,-0.72,0.29,-0.125,0.069,9.809,-0.01,-0.01,-0.01
1777733766.9019032,0.88,-0.72,0.29,-0.119,0.071,9.809,-0.01,0.0,0.0
1777733766.9107156,0.88,-0.72,0.29,-0.115,0.067,9.809,-0.01,-0.01,0.0
1777733766.9215548,0.87,-0.72,0.29,-0.117,0.053,9.809,-0.01,0.0,0.0
1777733766.930699,0.87,-0.72,0.28,-0.128,0.065,9.809,-0.01,0.0,0.0
1777733766.9407365,0.87,-0.72,0.28,-0.133,0.063,9.809,-0.01,0.0,0.0
1777733766.9507456,0.88,-0.72,0.28,-0.138,0.042,9.809,-0.01,0.0,-0.01
1777733766.9606965,0.88,-0.72,0.28,-0.144,0.031,9.809,0.0,-0.01,-0.01
1777733766.9707375,0.89,-0.72,0.27,-0.132,0.014,9.809,-0.01,0.0,-0.01
1777733766.9807186,0.89,-0.72,0.27,-0.131,0.007,9.809,0.0,-0.01,-0.01
1777733766.9912412,0.89,-0.72,0.27,-0.116,0.004,9.809,0.0,-0.01,-0.01
1777733767.000958,0.88,-0.72,0.27,-0.115,0.013,9.809,0.0,-0.01,0.0
1777733767.0107682,0.88,-0.72,0.27,-0.114,0.036,9.809,0.0,-0.01,0.0
1777733767.0207088,0.88,-0.72,0.28,-0.11,0.044,9.809,0.0,-0.01,0.0
1777733767.0307367,0.88,-0.72,0.28,-0.127,0.077,9.809,0.0,-0.01,0.0
1777733767.040693,0.88,-0.72,0.29,-0.108,0.084,9.809,0.0,-0.01,-0.01
1777733767.0507448,0.88,-0.72,0.29,-0.116,0.073,9.809,0.0,0.0,-0.01
1777733767.0607166,0.88,-0.72,0.29,-0.12,0.075,9.809,-0.01,-0.01,-0.01
1777733767.0707304,0.88,-0.72,0.28,-0.123,0.063,9.809,-0.01,0.0,-0.01
1777733767.0807662,0.88,-0.72,0.29,-0.128,0.06,9.809,-0.01,-0.01,0.0
1777733767.091062,0.88,-0.72,0.28,-0.134,0.065,9.809,0.0,0.0,0.0
1777733767.1010232,0.88,-0.72,0.28,-0.144,0.046,9.809,-0.01,-0.01,0.0
1777733767.1107576,0.88,-0.72,0.28,-0.135,0.044,9.809,-0.01,-0.01,0.0
1777733767.120732,0.88,-0.72,0.27,-0.127,0.035,9.809,-0.01,-0.01,-0.01
1777733767.1307468,0.88,-0.72,0.27,-0.123,0.03,9.809,-0.01,-0.01,-0.01
1777733767.1407037,0.88,-0.72,0.27,-0.111,0.023,9.809,0.0,-0.01,-0.01
1777733767.150736,0.88,-0.72,0.27,-0.108,0.032,9.809,0.0,0.0,0.0
1777733767.1607385,0.88,-0.72,0.27,-0.107,0.028,9.809,0.0,-0.01,0.0
1777733767.1707277,0.88,-0.72,0.27,-0.111,0.041,9.809,-0.01,0.0,0.0
1777733767.180747,0.87,-0.72,0.27,-0.123,0.051,9.809,0.0,0.0,0.0
1777733767.1907516,0.87,-0.72,0.28,-0.121,0.054,9.809,0.0,0.0,0.0
1777733767.2007535,0.87,-0.72,0.29,-0.134,0.063,9.809,0.0,0.0,0.0
1777733767.2107277,0.87,-0.73,0.29,-0.14,0.071,9.809,0.0,0.0,-0.01
1777733767.2207468,0.87,-0.73,0.29,-0.153,0.084,9.809,-0.01,0.0,-0.01
1777733767.2307658,0.87,-0.73,0.29,-0.151,0.093,9.809,-0.01,-0.01,-0.01
1777733767.2407522,0.87,-0.72,0.29,-0.148,0.095,9.809,-0.01,-0.01,-0.01
1777733767.250732,0.87,-0.72,0.29,-0.135,0.081,9.809,-0.01,-0.01,0.0
1777733767.260763,0.87,-0.72,0.29,-0.107,0.068,9.809,-0.01,0.0,-0.01
1777733767.2707834,0.88,-0.72,0.29,-0.093,0.043,9.809,-0.01,-0.01,-0.01
1777733767.2810044,0.88,-0.72,0.28,-0.083,0.02,9.809,-0.01,-0.01,-0.01
1777733767.2907586,0.88,-0.72,0.27,-0.086,0.007,9.809,-0.01,0.0,-0.01
1777733767.3007524,0.88,-0.72,0.27,-0.093,0.006,9.809,0.0,0.0,-0.01
1777733767.310769,0.87,-0.72,0.27,-0.099,0.005,9.809,0.0,0.0,0.0
1777733767.3208084,0.87,-0.72,0.28,-0.12,0.019,9.809,0.0,0.0,0.0
1777733767.3307881,0.87,-0.72,0.28,-0.131,0.034,9.809,0.0,-0.01,0.0
1777733767.3408015,0.87,-0.72,0.29,-0.143,0.083,9.809,0.0,-0.01,-0.01
1777733767.3507817,0.87,-0.72,0.29,-0.144,0.079,9.809,0.0,-0.01,-0.01
1777733767.3608563,0.87,-0.72,0.3,-0.14,0.108,9.809,-0.01,-0.01,-0.01
1777733767.3707948,0.87,-0.72,0.3,-0.131,0.116,9.809,-0.01,-0.01,-0.01
1777733767.3808942,0.87,-0.72,0.3,-0.123,0.089,9.809,-0.01,-0.01,0.0
1777733767.3913941,0.87,-0.72,0.29,-0.111,0.066,9.809,-0.01,-0.01,0.0
1777733767.4008112,0.87,-0.72,0.28,-0.105,0.051,9.809,-0.01,-0.01,-0.01
1777733767.4108167,0.88,-0.72,0.28,-0.107,0.034,9.809,-0.01,0.0,-0.01
1777733767.4215186,0.88,-0.72,0.27,-0.113,0.006,9.809,-0.01,0.0,-0.01
1777733767.4307961,0.88,-0.72,0.27,-0.119,0.001,9.809,-0.01,0.0,-0.01
1777733767.4408302,0.88,-0.72,0.27,-0.121,-0.005,9.809,-0.01,0.0,-0.01
1777733767.4507892,0.87,-0.72,0.27,-0.132,0.01,9.809,0.0,0.0,0.0
1777733767.4607923,0.86,-0.72,0.27,-0.121,0.014,9.809,0.0,0.0,0.0
1777733767.4708288,0.86,-0.72,0.27,-0.139,0.047,9.809,0.0,0.0,0.0
1777733767.481122,0.85,-0.72,0.28,-0.132,0.065,9.809,0.0,-0.01,0.0
1777733767.490795,0.85,-0.72,0.28,-0.137,0.081,9.809,0.0,0.0,0.0
1777733767.5008578,0.86,-0.72,0.29,-0.138,0.084,9.809,0.0,-0.01,-0.01
1777733767.510817,0.87,-0.72,0.29,-0.127,0.097,9.809,0.0,0.0,-0.01
1777733767.520791,0.88,-0.72,0.3,-0.121,0.072,9.809,-0.01,-0.01,-0.01
1777733767.5308235,0.88,-0.72,0.29,-0.108,0.066,9.809,0.0,0.0,-0.01
1777733767.54086,0.88,-0.72,0.29,-0.109,0.043,9.809,0.0,0.0,-0.01
1777733767.5507965,0.87,-0.72,0.29,-0.111,0.044,9.809,0.0,-0.01,0.0
1777733767.5608406,0.87,-0.72,0.28,-0.104,0.046,9.809,-0.01,0.0,0.0
1777733767.570849,0.87,-0.72,0.29,-0.128,0.038,9.809,-0.01,-0.01,0.0
1777733767.580827,0.87,-0.72,0.29,-0.12,0.043,9.809,0.0,0.0,0.0
1777733767.5900545,0.87,-0.72,0.28,-0.132,0.049,9.809,0.0,0.0,-0.01
1777733767.6010034,0.88,-0.72,0.28,-0.125,0.036,9.809,-0.01,-0.01,-0.01
1777733767.6112092,0.88,-0.72,0.28,-0.126,0.051,9.809,-0.01,0.0,-0.01
1777733767.6258495,0.87,-0.72,0.29,-0.122,0.034,9.809,0.0,-0.01,0.0
1777733767.6384308,0.87,-0.72,0.29,-0.109,0.047,9.809,0.0,0.0,0.0
1777733767.6408136,0.86,-0.72,0.29,-0.117,0.067,9.809,0.0,0.0,0.0
1777733767.6499975,0.87,-0.72,0.29,-0.121,0.063,9.809,-0.01,-0.01,0.0
1777733767.6600556,0.87,-0.72,0.3,-0.126,0.061,9.809,0.0,0.0,-0.01
1777733767.6700222,0.88,-0.72,0.29,-0.133,0.063,9.809,0.0,-0.01,-0.01
1777733767.680842,0.88,-0.72,0.29,-0.125,0.05,9.809,-0.01,0.0,-0.01
1777733767.6902688,0.88,-0.72,0.29,-0.135,0.04,9.809,-0.01,0.0,-0.01
1777733767.7008336,0.87,-0.72,0.29,-0.123,0.04,9.809,0.0,-0.01,0.0
1777733767.710025,0.87,-0.72,0.29,-0.123,0.037,9.809,0.0,0.0,0.0
1777733767.7200446,0.87,-0.72,0.29,-0.126,0.049,9.809,0.0,-0.01,0.0
1777733767.7303352,0.87,-0.72,0.29,-0.127,0.044,9.809,-0.01,-0.01,0.0
1777733767.7400172,0.87,-0.72,0.28,-0.127,0.066,9.809,-0.01,-0.01,-0.01
1777733767.750378,0.87,-0.72,0.29,-0.125,0.06,9.809,-0.01,0.0,-0.01
1777733767.7601287,0.87,-0.72,0.29,-0.119,0.062,9.809,0.0,0.0,-0.01
1777733767.7700186,0.87,-0.72,0.29,-0.115,0.055,9.809,0.0,0.0,-0.01
1777733767.780037,0.87,-0.72,0.29,-0.121,0.041,9.809,0.0,-0.01,0.0
1777733767.7902126,0.87,-0.72,0.29,-0.123,0.053,9.809,-0.01,-0.01,-0.01
1777733767.800028,0.87,-0.72,0.29,-0.123,0.042,9.809,-0.01,-0.01,0.0
1777733767.8100946,0.86,-0.72,0.29,-0.115,0.044,9.809,0.0,0.0,0.0
1777733767.8200886,0.86,-0.72,0.29,-0.109,0.057,9.809,0.0,0.0,0.0
1777733767.8302305,0.86,-0.72,0.29,-0.116,0.044,9.809,0.0,-0.01,0.0
1777733767.8400414,0.85,-0.72,0.29,-0.131,0.084,9.809,-0.01,0.0,0.0
1777733767.8501084,0.86,-0.72,0.29,-0.146,0.074,9.809,-0.01,-0.01,0.0
1777733767.8602326,0.86,-0.73,0.3,-0.139,0.071,9.809,-0.01,0.0,-0.01
1777733767.8703346,0.87,-0.73,0.3,-0.133,0.051,9.809,0.0,0.0,-0.01
1777733767.880024,0.87,-0.73,0.29,-0.117,0.022,9.809,0.0,0.0,-0.01
1777733767.890083,0.87,-0.72,0.29,-0.115,0.019,9.809,0.0,0.0,-0.01
1777733767.9000108,0.87,-0.72,0.28,-0.11,0.014,9.809,0.0,-0.01,0.0
1777733767.9103882,0.86,-0.72,0.28,-0.115,0.032,9.809,0.0,-0.01,0.0
1777733767.9200852,0.86,-0.72,0.29,-0.115,0.041,9.809,0.0,-0.01,0.0
1777733767.9303653,0.86,-0.72,0.3,-0.117,0.047,9.809,0.0,0.0,0.0
1777733767.9403756,0.87,-0.72,0.3,-0.129,0.059,9.809,0.0,-0.01,-0.01
1777733767.9500678,0.88,-0.72,0.3,-0.125,0.057,9.809,0.0,0.0,-0.01
1777733767.9601188,0.88,-0.72,0.3,-0.126,0.06,9.809,-0.01,0.0,-0.01
1777733767.9700742,0.87,-0.72,0.3,-0.123,0.047,9.809,-0.01,-0.01,-0.01
1777733767.980083,0.86,-0.72,0.3,-0.122,0.054,9.809,0.0,0.0,0.0
1777733767.9900982,0.86,-0.72,0.3,-0.125,0.062,9.809,0.0,-0.01,0.0
1777733768.0015414,0.86,-0.72,0.3,-0.117,0.066,9.809,-0.01,0.0,0.0
1777733768.0100884,0.86,-0.72,0.3,-0.129,0.068,9.809,-0.01,-0.01,0.0
1777733768.0212793,0.87,-0.72,0.3,-0.129,0.053,9.809,0.0,-0.01,-0.01
1777733768.0300891,0.88,-0.72,0.3,-0.127,0.031,9.809,-0.01,0.0,-0.01
1777733768.0404048,0.89,-0.72,0.29,-0.114,0.022,9.809,0.0,0.0,-0.01
1777733768.0501564,0.88,-0.72,0.29,-0.101,0.013,9.809,0.0,0.0,-0.01
1777733768.0601134,0.88,-0.72,0.29,-0.102,0.014,9.809,0.0,0.0,0.0
1777733768.0701728,0.87,-0.72,0.29,-0.104,0.026,9.809,0.0,-0.01,0.0
1777733768.0800831,0.86,-0.72,0.3,-0.105,0.049,9.809,0.0,-0.01,0.0
1777733768.090071,0.86,-0.72,0.3,-0.12,0.073,9.809,0.0,-0.01,0.0
1777733768.1000779,0.87,-0.72,0.3,-0.126,0.075,9.809,0.0,0.0,0.0
1777733768.110103,0.88,-0.72,0.3,-0.134,0.079,9.809,0.0,0.0,-0.01
1777733768.120092,0.88,-0.72,0.3,-0.135,0.096,9.809,-0.01,-0.01,-0.01
1777733768.130083,0.88,-0.72,0.3,-0.123,0.057,9.809,-0.01,0.0,-0.01
1777733768.1401007,0.88,-0.72,0.3,-0.114,0.051,9.809,-0.01,-0.01,-0.01
1777733768.1500843,0.88,-0.72,0.3,-0.097,0.028,9.809,0.0,0.0,0.0
1777733768.1601114,0.86,-0.72,0.29,-0.095,0.016,9.809,-0.01,0.0,0.0
1777733768.170092,0.85,-0.72,0.29,-0.097,0.029,9.809,-0.01,0.0,0.0
1777733768.1800692,0.84,-0.72,0.29,-0.108,0.032,9.809,-0.01,-0.01,0.0
1777733768.1900983,0.83,-0.72,0.29,-0.126,0.065,9.809,-0.01,0.0,0.0
1777733768.2000728,0.84,-0.72,0.3,-0.135,0.06,9.809,-0.01,0.0,-0.01
1777733768.21014,0.86,-0.73,0.3,-0.144,0.059,9.809,0.0,0.0,-0.01
1777733768.2201324,0.86,-0.73,0.3,-0.144,0.055,9.809,0.0,-0.01,-0.01
1777733768.2301233,0.87,-0.73,0.29,-0.125,0.034,9.809,0.0,0.0,-0.01
1777733768.2402875,0.87,-0.72,0.29,-0.129,0.026,9.809,-0.01,-0.01,-0.01
1777733768.2501361,0.86,-0.72,0.29,-0.11,0.034,9.809,0.0,-0.01,0.0
1777733768.2605236,0.86,-0.72,0.29,-0.101,0.035,9.809,0.0,-0.01,0.0
1777733768.2701442,0.85,-0.72,0.3,-0.105,0.042,9.809,0.0,-0.01,0.0
1777733768.2800884,0.85,-0.72,0.3,-0.103,0.069,9.809,0.0,0.0,0.0
1777733768.2901437,0.86,-0.72,0.3,-0.117,0.066,9.809,-0.01,-0.01,-0.01
1777733768.3001094,0.86,-0.72,0.3,-0.122,0.073,9.809,0.0,0.0,-0.01
1777733768.3102245,0.88,-0.72,0.3,-0.128,0.065,9.809,0.0,0.0,-0.01
1777733768.3201046,0.88,-0.72,0.3,-0.133,0.049,9.809,-0.01,0.0,-0.01
1777733768.3301632,0.88,-0.72,0.3,-0.132,0.046,9.809,0.0,0.0,-0.01
1777733768.3401375,0.88,-0.72,0.3,-0.131,0.038,9.809,-0.01,-0.01,0.0
1777733768.3501072,0.87,-0.72,0.3,-0.131,0.04,9.809,0.0,-0.01,0.0
1777733768.3600879,0.86,-0.72,0.3,-0.132,0.047,9.809,-0.01,-0.01,0.0
1777733768.3701286,0.86,-0.72,0.3,-0.119,0.05,9.809,-0.01,-0.01,0.0
1777733768.3795078,0.86,-0.72,0.3,-0.115,0.048,9.809,-0.01,0.0,0.0
1777733768.3902972,0.86,-0.72,0.29,-0.104,0.049,9.809,-0.01,-0.01,0.0
1777733768.40054,0.86,-0.72,0.3,-0.11,0.057,9.809,-0.01,0.0,0.0
1777733768.4101589,0.86,-0.72,0.29,-0.115,0.057,9.809,0.0,0.0,-0.01
1777733768.419273,0.86,-0.72,0.3,-0.117,0.042,9.809,0.0,0.0,-0.01
1777733768.4301355,0.87,-0.72,0.29,-0.128,0.05,9.809,0.0,0.0,-0.01
1777733768.4393096,0.88,-0.72,0.29,-0.126,0.034,9.809,-0.01,-0.01,-0.01
1777733768.4501603,0.88,-0.72,0.29,-0.127,0.028,9.809,0.0,0.0,-0.01
1777733768.4592998,0.88,-0.72,0.29,-0.125,0.029,9.809,0.0,-0.01,0.0
1777733768.469308,0.87,-0.72,0.29,-0.119,0.023,9.809,0.0,0.0,0.0
1777733768.4801812,0.86,-0.72,0.29,-0.113,0.031,9.809,0.0,-0.01,0.0
1777733768.4893138,0.86,-0.72,0.29,-0.109,0.047,9.809,0.0,-0.01,0.0
1777733768.5001488,0.86,-0.72,0.3,-0.11,0.069,9.809,0.0,-0.01,0.0
1777733768.5098968,0.86,-0.72,0.3,-0.109,0.077,9.809,0.0,0.0,-0.01
1777733768.5222495,0.87,-0.72,0.3,-0.119,0.071,9.809,0.0,0.0,-0.01
1777733768.5293474,0.87,-0.72,0.3,-0.121,0.08,9.809,-0.01,0.0,-0.01
1777733768.539908,0.87,-0.72,0.3,-0.121,0.067,9.809,-0.01,-0.01,-0.01
1777733768.549402,0.86,-0.72,0.3,-0.12,0.072,9.809,-0.01,-0.01,0.0
1777733768.5594075,0.86,-0.72,0.3,-0.125,0.059,9.809,-0.01,0.0,0.0
1777733768.5693388,0.85,-0.72,0.3,-0.122,0.048,9.809,-0.01,-0.01,0.0
1777733768.579378,0.85,-0.72,0.29,-0.131,0.054,9.809,-0.01,0.0,0.0
1777733768.5900621,0.85,-0.72,0.29,-0.126,0.04,9.809,-0.01,-0.01,0.0
1777733768.599524,0.86,-0.72,0.29,-0.132,0.034,9.809,-0.01,0.0,-0.01
1777733768.6093693,0.87,-0.72,0.29,-0.123,0.017,9.809,0.0,0.0,-0.01
1777733768.6194887,0.88,-0.72,0.29,-0.122,0.013,9.809,0.0,0.0,-0.01
1777733768.6293793,0.88,-0.72,0.28,-0.114,0.013,9.809,0.0,0.0,-0.01
1777733768.6393163,0.87,-0.72,0.29,-0.12,0.013,9.809,0.0,-0.01,0.0
1777733768.649694,0.86,-0.72,0.29,-0.123,0.034,9.809,0.0,-0.01,0.0
1777733768.6595733,0.86,-0.72,0.3,-0.125,0.056,9.809,0.0,-0.01,0.0
1777733768.6693501,0.86,-0.72,0.3,-0.125,0.062,9.809,0.0,0.0,0.0
1777733768.6793478,0.86,-0.72,0.3,-0.129,0.09,9.809,0.0,0.0,0.0
1777733768.6893783,0.85,-0.72,0.3,-0.125,0.101,9.809,-0.01,0.0,0.0
1777733768.699424,0.85,-0.72,0.3,-0.134,0.098,9.809,-0.01,-0.01,-0.01
1777733768.7094436,0.86,-0.73,0.3,-0.125,0.087,9.809,-0.01,0.0,-0.01
1777733768.7194602,0.86,-0.73,0.3,-0.138,0.063,9.809,-0.01,0.0,-0.01
1777733768.7301385,0.86,-0.73,0.3,-0.123,0.032,9.809,-0.01,0.0,-0.01
1777733768.7394059,0.86,-0.73,0.29,-0.128,0.036,9.809,-0.01,-0.01,-0.01
1777733768.7493706,0.86,-0.73,0.29,-0.121,0.005,9.809,-0.01,-0.01,-0.01
1777733768.759715,0.86,-0.72,0.28,-0.128,0.01,9.809,0.0,-0.01,-0.01
1777733768.7696133,0.86,-0.73,0.28,-0.111,-0.004,9.809,0.0,-0.01,0.0
1777733768.7794168,0.86,-0.72,0.28,-0.114,0.023,9.809,0.0,0.0,-0.01
1777733768.7895796,0.86,-0.72,0.29,-0.103,0.032,9.809,0.0,-0.01,0.0
1777733768.7995212,0.86,-0.72,0.29,-0.117,0.04,9.809,0.0,0.0,0.0
1777733768.809621,0.86,-0.72,0.3,-0.125,0.055,9.809,0.0,-0.01,-0.01
1777733768.8193727,0.86,-0.72,0.3,-0.105,0.065,9.809,0.0,0.0,-0.01
1777733768.8293347,0.87,-0.72,0.28,-0.079,-0.032,9.809,0.0,0.0,-0.01
1777733768.839401,0.88,-0.7,0.2,0.067,-0.162,9.764,-0.02,-0.01,-0.01
1777733768.8493834,0.88,-0.6,0.07,0.164,-0.289,9.756,-0.05,-0.01,-0.01
1777733768.8594043,0.85,-0.96,0.1,-1.668,1.23,9.773,-0.07,-0.04,-0.01
1777733768.8693836,0.91,-1.32,1.1,-1.186,1.648,9.785,0.05,0.09,0.02
1777733768.8793957,0.98,-1.44,1.76,-1.045,1.042,9.796,0.38,0.14,-0.05
1777733768.8893986,1.09,-1.52,2.19,-0.951,0.859,9.804,0.37,0.06,-0.04
1777733768.899386,1.21,-1.85,2.86,-1.181,0.899,9.792,0.24,0.05,-0.05
1777733768.9093635,1.32,-1.89,3.03,0.104,0.334,6.226,0.31,0.16,-0.07
1777733768.9194846,1.5,-1.77,3.03,0.365,-0.447,3.521,0.11,0.05,-0.07
1777733768.929382,1.64,-1.7,2.82,-0.703,-0.99,4.05,-0.05,-0.08,-0.1
1777733768.9393783,1.66,-1.75,2.38,-0.202,-0.781,5.578,-0.09,-0.05,-0.06
1777733768.949376,1.63,-1.74,2.06,-0.126,-0.942,6.701,-0.18,-0.03,-0.01
1777733768.959387,1.57,-1.6,1.72,0.109,-0.829,7.524,-0.16,0.02,0.02
1777733768.969382,1.52,-1.49,1.43,0.359,-0.618,8.132,-0.14,-0.07,0.02
1777733768.979392,1.44,-1.34,1.45,0.334,-0.291,8.578,-0.11,-0.05,0.03
1777733768.9894326,1.28,-1.3,1.52,0.433,-0.386,7.81,0.01,-0.03,0.05
1777733768.9994087,1.17,-1.26,1.55,0.529,-0.787,6.508,0.05,0.02,0.09
1777733769.0094197,1.12,-1.22,1.39,0.433,-0.818,6.476,0.02,0.0,0.04
1777733769.0193958,1.06,-1.26,1.27,0.162,-1.369,7.361,-0.05,0.0,0.02
1777733769.0293875,0.98,-1.28,0.97,0.005,-1.261,8.011,-0.02,0.02,0.03
1777733769.0399687,0.88,-1.36,0.83,0.364,-1.089,8.489,-0.11,0.02,0.05
1777733769.0500362,0.78,-1.29,0.73,0.748,-0.754,8.84,-0.06,0.05,0.05
1777733769.0595753,0.71,-1.21,0.73,0.511,-0.765,9.096,-0.04,0.0,0.05
1777733769.0700202,0.71,-1.28,0.72,0.25,-0.716,8.686,0.02,-0.02,0.02
1777733769.0799742,0.79,-1.36,0.72,0.164,-0.54,8.51,0.02,0.03,-0.01
1777733769.0900688,0.89,-1.38,0.75,0.176,-0.502,8.674,0.01,0.04,-0.05
1777733769.0993943,0.95,-1.36,0.84,-0.196,-0.472,8.977,0.03,0.02,-0.06
1777733769.1095061,0.99,-1.42,1.02,-0.526,-0.833,9.198,0.08,-0.03,-0.02
1777733769.1195097,1.01,-1.46,1.04,-0.436,-0.984,9.361,0.12,0.01,-0.02
1777733769.129399,1.07,-1.42,0.96,-0.247,-0.869,9.481,0.03,0.0,-0.02
1777733769.1394615,1.12,-1.37,0.87,-0.303,-0.558,9.538,-0.03,-0.02,-0.04
1777733769.1494455,1.15,-1.32,0.89,-0.183,-0.147,9.502,-0.04,-0.04,-0.03
1777733769.1594028,1.17,-1.23,1.01,-0.119,0.119,9.585,0.01,-0.03,-0.02
1777733769.169384,1.19,-1.23,1.16,-0.332,0.072,9.645,0.05,-0.05,-0.02
1777733769.1794295,1.2,-1.24,1.27,-0.111,0.0,9.69,0.08,-0.01,-0.01
1777733769.1885881,1.25,-1.18,1.32,0.099,-0.213,9.724,0.06,0.0,-0.02
1777733769.1985672,1.31,-1.1,1.25,0.151,-0.298,9.747,0.03,-0.02,-0.04
1777733769.208565,1.37,-1.04,1.18,0.189,-0.26,9.763,-0.02,-0.03,-0.04
1777733769.2185674,1.38,-0.99,1.11,0.25,-0.129,9.776,-0.04,-0.02,-0.03
1777733769.2285604,1.35,-0.98,1.09,0.269,0.022,9.786,-0.03,-0.01,-0.01
1777733769.2385795,1.3,-0.98,1.13,0.374,0.055,9.793,-0.02,0.01,0.02
1777733769.2489996,1.23,-0.94,1.15,0.418,-0.028,9.798,0.02,0.02,0.03
1777733769.2594702,1.19,-0.93,1.12,0.251,-0.193,9.802,0.02,0.0,0.03
1777733769.2694328,1.16,-0.98,1.05,0.188,-0.256,9.805,-0.01,0.0,0.02
1777733769.2794855,1.14,-1.0,0.98,0.153,-0.242,9.806,-0.03,0.02,0.01
1777733769.288644,1.14,-1.02,0.9,0.087,-0.213,9.808,-0.03,0.02,0.0
1777733769.298626,1.15,-1.04,0.84,-0.03,-0.201,9.808,-0.04,0.01,-0.01
1777733769.3085988,1.16,-1.06,0.81,-0.108,-0.218,9.809,-0.02,0.01,-0.01
1777733769.318755,1.18,-1.09,0.79,-0.121,0.0,9.81,-0.02,0.01,-0.01
1777733769.3285916,1.34,-1.08,0.88,-0.21,0.174,9.811,0.0,0.01,-0.02
1777733769.339129,1.57,-1.15,0.84,-0.335,-0.31,9.81,0.02,-0.01,-0.11
1777733769.3489585,1.71,-1.17,0.75,-0.231,-0.875,9.81,0.01,0.02,-0.12
1777733769.3586597,1.71,-1.1,0.65,-0.166,-1.259,9.811,0.0,-0.01,-0.06
1777733769.369558,1.58,-1.03,0.55,-0.451,-1.35,9.811,0.0,-0.04,0.01
1777733769.3794503,1.35,-1.05,0.48,-0.242,-1.255,9.81,-0.01,-0.04,0.08
1777733769.3886282,1.08,-1.01,0.48,0.055,-1.002,9.811,0.0,0.0,0.14
1777733769.3986425,0.84,-0.92,0.47,0.086,-0.629,9.811,0.0,-0.01,0.14
1777733769.4086163,0.64,-0.88,0.46,0.053,-0.287,9.81,-0.02,-0.04,0.12
1777733769.4190755,0.51,-0.88,0.5,0.066,0.087,9.81,-0.02,-0.02,0.1
1777733769.4286315,0.47,-0.88,0.55,0.132,0.404,9.81,0.0,0.0,0.06
1777733769.4386327,0.53,-0.87,0.6,0.172,0.665,9.81,-0.01,0.0,0.0
1777733769.4486463,0.67,-0.86,0.67,0.028,0.678,9.811,0.0,0.0,-0.05
1777733769.4586198,0.87,-0.91,0.71,0.005,0.539,9.811,0.02,0.0,-0.09
1777733769.4686162,1.09,-0.94,0.72,0.016,0.435,9.811,0.01,0.02,-0.11
1777733769.4786441,1.31,-0.95,0.68,-0.008,0.06,9.81,0.0,0.02,-0.13
1777733769.488677,1.49,-0.99,0.64,-0.079,-0.125,9.811,-0.01,0.0,-0.12
1777733769.4990416,1.61,-0.99,0.58,-0.034,-0.49,9.811,0.0,0.01,-0.09
1777733769.5086436,1.65,-0.97,0.5,-0.063,-0.684,9.811,-0.01,0.0,-0.06
1777733769.518622,1.61,-0.96,0.43,-0.048,-0.905,9.811,-0.01,-0.02,-0.02
1777733769.5285969,1.51,-0.94,0.37,0.004,-0.895,9.811,0.0,-0.01,0.02
1777733769.5386052,1.37,-0.9,0.33,0.019,-0.862,9.81,-0.01,-0.02,0.06
1777733769.5488768,1.22,-0.87,0.28,0.013,-0.721,9.81,-0.01,-0.02,0.08
1777733769.5586004,1.09,-0.86,0.25,0.073,-0.485,9.81,-0.02,-0.01,0.08
1777733769.5687306,1.0,-0.83,0.25,0.122,-0.278,9.81,-0.02,-0.01,0.06
1777733769.578644,0.94,-0.81,0.27,0.123,-0.102,9.81,-0.01,-0.01,0.04
1777733769.5886304,0.93,-0.81,0.31,0.114,-0.01,9.81,0.0,0.0,0.02
1777733769.5985956,0.95,-0.81,0.34,0.102,0.028,9.81,0.02,0.0,0.0
1777733769.6086779,1.02,-0.82,0.37,0.049,0.01,9.81,0.02,0.0,-0.02
1777733769.6186182,1.1,-0.84,0.37,0.01,-0.02,9.81,0.01,0.0,-0.04
1777733769.6286523,1.19,-0.84,0.36,-0.04,-0.065,9.81,0.0,0.0,-0.05
1777733769.6386156,1.27,-0.86,0.35,-0.08,-0.129,9.81,0.0,0.0,-0.05
1777733769.648739,1.32,-0.87,0.35,-0.083,-0.217,9.81,0.0,0.0,-0.05
1777733769.6587179,1.34,-0.87,0.33,-0.06,-0.322,9.81,0.01,0.0,-0.03
1777733769.6686153,1.32,-0.85,0.31,-0.041,-0.401,9.81,0.01,0.0,-0.01
1777733769.6786337,1.28,-0.84,0.28,-0.056,-0.413,9.81,0.0,-0.01,0.01
1777733769.6886456,1.21,-0.82,0.25,-0.046,-0.37,9.81,-0.01,-0.02,0.02
1777733769.6986392,1.16,-0.81,0.22,-0.008,-0.272,9.81,-0.02,-0.01,0.03
1777733769.7088258,1.11,-0.79,0.22,0.012,-0.16,9.81,-0.02,-0.01,0.03
1777733769.7191691,1.09,-0.77,0.22,0.032,-0.084,9.81,-0.01,-0.01,0.02
1777733769.7288208,1.09,-0.76,0.23,0.024,-0.06,9.81,0.0,-0.01,0.01
1777733769.738785,1.11,-0.76,0.22,0.019,-0.071,9.81,0.0,-0.01,-0.01
1777733769.7486527,1.14,-0.76,0.22,0.031,-0.102,9.81,0.0,0.0,-0.02
1777733769.7587497,1.18,-0.75,0.2,0.025,-0.141,9.81,-0.01,0.0,-0.02
1777733769.768672,1.21,-0.75,0.18,0.002,-0.186,9.81,-0.01,0.0,-0.02
1777733769.7786677,1.23,-0.76,0.17,-0.013,-0.249,9.81,-0.01,0.0,-0.02
1777733769.7886744,1.24,-0.76,0.15,-0.002,-0.303,9.81,0.0,0.0,-0.02
1777733769.7987192,1.22,-0.75,0.12,-0.01,-0.346,9.81,0.0,0.0,0.0
1777733769.808691,1.19,-0.74,0.1,-0.019,-0.358,9.81,0.0,-0.01,0.01
1777733769.8186817,1.15,-0.74,0.08,-0.043,-0.334,9.81,-0.01,-0.01,0.02
1777733769.8286872,1.12,-0.75,0.07,-0.002,-0.24,9.81,-0.01,0.0,0.02
1777733769.8386548,1.11,-0.74,0.07,-0.01,-0.148,9.81,-0.01,0.0,0.01
1777733769.8486984,1.11,-0.74,0.07,-0.037,-0.119,9.81,0.0,0.0,0.0
1777733769.8586578,1.12,-0.73,0.08,0.004,-0.098,9.81,0.0,0.0,-0.01
1777733769.8686535,1.15,-0.72,0.09,-0.025,-0.119,9.81,0.01,0.0,-0.02
1777733769.8786542,1.18,-0.71,0.06,-0.05,-0.177,9.81,0.0,-0.01,-0.02
1777733769.8886602,1.19,-0.7,0.06,-0.116,-0.171,9.81,-0.01,-0.01,-0.02
1777733769.8991225,1.19,-0.71,0.06,-0.132,-0.198,9.81,0.0,-0.01,-0.01
1777733769.9090178,1.19,-0.71,0.05,0.024,-0.213,9.81,0.0,0.0,-0.01
1777733769.9186573,1.19,-0.68,0.03,0.055,-0.202,9.81,-0.01,0.0,0.0
1777733769.9286635,1.19,-0.66,0.02,-0.005,-0.274,9.81,-0.01,-0.02,-0.01
1777733769.9389691,1.17,-0.69,-0.03,-0.014,-0.292,9.81,-0.01,0.0,0.0
1777733769.9487908,1.14,-0.65,-0.04,0.093,-0.114,9.81,-0.02,0.01,0.01
1777733769.958691,1.13,-0.66,-0.03,0.067,-0.077,9.81,-0.01,-0.02,0.01
1777733769.9686913,1.12,-0.64,-0.01,-0.158,-0.228,9.81,0.0,-0.01,0.01
1777733769.978687,1.12,-0.69,-0.08,-0.177,-0.201,9.81,0.0,0.0,0.0
1777733769.9887984,1.13,-0.69,-0.13,-0.072,-0.123,9.81,-0.04,-0.01,-0.01
1777733769.9986868,1.13,-0.67,-0.15,-0.159,-0.126,9.81,-0.02,-0.01,-0.01
1777733770.008189,1.11,-0.67,-0.16,-0.163,-0.096,9.81,-0.02,-0.02,0.0
1777733770.0179348,1.09,-0.67,-0.16,-0.036,-0.065,9.81,-0.01,-0.01,0.01
1777733770.028702,1.08,-0.64,-0.18,0.035,-0.078,9.81,-0.01,0.0,0.01
1777733770.0390851,1.07,-0.63,-0.2,0.084,-0.104,9.809,-0.02,-0.01,0.0
1777733770.0481684,1.05,-0.63,-0.22,0.095,-0.117,9.809,-0.02,0.0,0.0
1777733770.057862,1.04,-0.63,-0.24,0.084,-0.182,9.809,-0.01,0.0,0.01
1777733770.067861,1.03,-0.64,-0.26,0.038,-0.159,9.809,-0.01,0.0,0.0
1777733770.0778618,1.04,-0.65,-0.27,-0.008,-0.151,9.809,-0.02,0.0,0.0
1777733770.0882285,1.04,-0.66,-0.26,-0.062,-0.205,9.809,-0.01,0.0,-0.01
1777733770.0978613,1.04,-0.66,-0.28,-0.098,-0.25,9.81,0.0,0.0,-0.01
1777733770.1078804,1.04,-0.66,-0.29,-0.126,-0.232,9.81,0.0,-0.01,0.0
1777733770.1178827,1.03,-0.66,-0.29,-0.125,-0.184,9.809,-0.01,-0.01,0.0
1777733770.1278892,1.03,-0.65,-0.29,-0.087,-0.148,9.809,0.0,-0.01,0.0
1777733770.1379035,1.03,-0.63,-0.28,-0.051,-0.12,9.809,0.0,-0.01,0.0
1777733770.1480272,1.03,-0.63,-0.29,-0.006,-0.08,9.809,0.0,-0.01,-0.01
1777733770.1578987,1.03,-0.62,-0.28,0.024,-0.063,9.809,-0.01,-0.01,-0.01
1777733770.1680322,1.03,-0.61,-0.28,0.047,-0.047,9.809,-0.01,0.0,0.0
1777733770.1778271,1.03,-0.61,-0.28,0.032,-0.056,9.809,0.0,0.0,0.0
1777733770.1878612,1.03,-0.61,-0.29,0.006,-0.063,9.809,-0.01,0.0,0.0
1777733770.1978517,1.02,-0.61,-0.29,-0.019,-0.089,9.809,-0.01,0.0,0.0
1777733770.207889,1.02,-0.61,-0.29,-0.054,-0.105,9.809,0.0,0.0,0.0
1777733770.21788,1.01,-0.62,-0.3,-0.075,-0.117,9.809,-0.01,0.0,0.0
1777733770.228017,1.02,-0.62,-0.31,-0.093,-0.12,9.809,0.0,0.0,0.0
1777733770.2378628,1.02,-0.61,-0.31,-0.085,-0.143,9.809,0.0,-0.01,-0.01
1777733770.2479944,1.02,-0.61,-0.31,-0.067,-0.138,9.809,0.0,-0.01,-0.01
1777733770.2578595,1.02,-0.6,-0.31,-0.05,-0.12,9.809,0.0,-0.01,-0.01
1777733770.2679193,1.02,-0.59,-0.31,-0.014,-0.108,9.809,0.0,-0.01,0.0
1777733770.2778633,1.02,-0.58,-0.31,-0.008,-0.083,9.809,0.0,-0.01,0.0
1777733770.2879682,1.02,-0.58,-0.3,0.019,-0.053,9.809,0.0,-0.01,0.0
1777733770.2982366,1.02,-0.56,-0.3,0.017,-0.053,9.809,0.0,0.0,0.0
1777733770.3078835,1.02,-0.57,-0.3,-0.008,-0.067,9.809,0.0,0.0,-0.01
1777733770.3178952,0.98,-0.58,-0.33,0.023,-0.333,9.809,-0.01,0.0,-0.01
1777733770.327874,0.79,-0.58,-0.37,0.138,-0.977,9.809,0.0,-0.01,0.03
1777733770.3378592,0.44,-0.52,-0.52,0.184,-1.097,9.81,0.0,0.02,0.12
1777733770.3478665,-0.09,-0.55,-0.69,0.174,-0.901,9.772,-0.03,-0.02,0.21
1777733770.3580015,-0.7,-0.53,-0.71,0.244,-0.448,9.781,-0.06,0.02,0.31
1777733770.367879,-1.23,-0.43,-0.66,-0.172,0.335,9.79,-0.03,-0.02,0.33
1777733770.3778994,-1.6,-0.53,-0.59,-0.278,1.027,9.793,-0.03,-0.06,0.27
1777733770.3879123,-1.77,-0.55,-0.5,0.337,1.289,9.799,-0.04,0.03,0.17
1777733770.3978977,-1.88,-0.29,-0.49,0.108,1.284,9.8,-0.02,0.0,0.07
1777733770.407907,-2.04,-0.39,-0.56,-0.293,1.164,9.803,-0.04,-0.09,0.06
1777733770.4179106,-2.19,-0.44,-0.57,0.019,1.758,9.435,-0.09,0.03,0.08
1777733770.42791,-2.29,-0.36,-0.52,-0.176,1.436,9.533,-0.06,0.03,0.06
1777733770.4382718,-2.37,-0.43,-0.6,-0.433,0.713,9.606,-0.02,-0.03,0.05
1777733770.4481676,-2.51,-0.42,-0.77,-0.153,-0.029,9.662,-0.04,0.0,0.05
1777733770.4582188,-2.7,-0.35,-0.94,-0.162,-0.445,9.702,-0.06,-0.02,0.08
1777733770.468168,-2.91,-0.34,-1.07,-0.195,-0.517,9.731,-0.05,-0.04,0.11
1777733770.4782803,-3.08,-0.32,-1.1,-0.049,-0.326,9.749,-0.04,-0.02,0.11
1777733770.4879434,-3.14,-0.27,-1.04,-0.222,-0.162,9.766,-0.02,-0.02,0.08
1777733770.497962,-3.13,-0.27,-0.98,-0.205,-0.174,9.778,0.02,-0.02,0.02
1777733770.5079594,-3.03,-0.26,-0.97,-0.119,-0.174,9.786,0.02,-0.02,-0.02
1777733770.5179682,-2.93,-0.26,-0.97,-0.038,-0.213,9.792,0.01,-0.01,-0.06
1777733770.5279748,-2.85,-0.25,-0.94,0.117,-0.182,9.797,0.0,0.0,-0.06
1777733770.5379276,-2.83,-0.23,-0.9,0.14,-0.138,9.8,0.02,0.0,-0.04
1777733770.5479069,-2.87,-0.24,-0.85,0.144,0.11,9.803,0.01,0.0,0.0
1777733770.557923,-2.91,-0.24,-0.78,0.125,0.468,9.805,0.0,0.01,0.02
1777733770.568058,-2.94,-0.26,-0.71,-0.019,0.656,9.805,0.0,0.0,0.02
1777733770.5782557,-2.94,-0.3,-0.67,-0.199,0.747,9.806,0.0,0.0,0.01
1777733770.588187,-2.93,-0.32,-0.66,-0.281,0.661,9.806,-0.02,0.0,-0.01
1777733770.5979807,-2.94,-0.35,-0.66,-0.37,0.389,9.808,-0.02,-0.01,-0.01
1777733770.6082563,-2.96,-0.34,-0.7,-0.339,0.104,9.808,-0.02,-0.01,0.0
1777733770.6181214,-2.99,-0.32,-0.74,-0.315,-0.133,9.808,-0.01,-0.02,0.01
1777733770.6280546,-3.02,-0.31,-0.78,-0.216,-0.211,9.81,-0.02,-0.02,0.02
1777733770.6381397,-3.03,-0.28,-0.78,-0.09,-0.201,9.81,-0.02,-0.02,0.01
1777733770.647906,-3.02,-0.25,-0.77,0.006,-0.16,9.81,0.0,-0.02,0.0
1777733770.6579745,-2.99,-0.24,-0.74,0.109,-0.091,9.809,0.01,-0.01,-0.02
1777733770.6682427,-2.95,-0.23,-0.71,0.138,-0.036,9.809,0.01,0.0,-0.02
1777733770.6781754,-2.93,-0.23,-0.69,0.16,0.081,9.809,0.01,0.01,-0.02
1777733770.688426,-2.93,-0.25,-0.65,0.091,0.213,9.809,0.0,0.01,-0.02
1777733770.6983852,-2.94,-0.27,-0.61,-0.032,0.319,9.809,0.0,0.0,0.0
1777733770.7080033,-2.95,-0.3,-0.58,-0.137,0.393,9.809,0.0,0.01,0.0
1777733770.7179103,-2.95,-0.33,-0.57,-0.255,0.381,9.809,-0.01,0.0,0.0
1777733770.72801,-2.95,-0.35,-0.56,-0.31,0.309,9.809,-0.02,0.0,0.0
1777733770.7373152,-2.96,-0.35,-0.56,-0.305,0.168,9.809,-0.01,-0.01,0.0
1777733770.7479763,-2.97,-0.34,-0.58,-0.263,0.031,9.809,-0.01,-0.02,0.0
1777733770.7580254,-3.0,-0.32,-0.6,-0.168,-0.038,9.809,-0.01,-0.02,0.01
1777733770.767949,-3.01,-0.3,-0.6,-0.084,-0.047,9.809,-0.01,-0.02,0.01
1777733770.7770934,-3.01,-0.28,-0.59,0.0,-0.04,9.809,0.0,-0.01,0.0
1777733770.787984,-3.0,-0.27,-0.58,0.072,0.0,9.809,0.0,-0.01,-0.01
