timestamp,yaw,pitch,roll,accel_x,accel_y,accel_z,gyro_x,gyro_y,gyro_z
1777319071.6573973,-26.71,0.02,0.96,0.012,0.141,9.792,0.0,0.0,0.0
1777319071.667356,-26.71,0.02,0.96,0.012,0.154,9.794,0.0,0.0,0.0
1777319071.6774285,-26.71,0.02,0.96,0.013,0.156,9.798,0.0,0.0,0.0
1777319071.6873803,-26.71,0.02,0.96,0.001,0.154,9.802,0.0,0.0,0.0
1777319071.6973941,-26.71,0.01,0.96,0.0,0.158,9.802,0.0,-0.01,-0.01
1777319071.7073562,-26.71,0.01,0.96,-0.002,0.169,9.792,-0.01,0.0,-0.01
1777319071.7174335,-26.71,0.01,0.97,-0.012,0.163,9.797,-0.01,0.0,-0.01
1777319071.7273579,-26.71,0.01,0.97,-0.011,0.158,9.799,0.0,0.0,-0.01
1777319071.737496,-26.71,0.01,0.96,-0.012,0.174,9.8,-0.01,-0.01,0.0
1777319071.7473629,-26.71,0.01,0.97,-0.007,0.158,9.803,-0.01,-0.01,0.0
1777319071.7573514,-26.71,0.01,0.97,-0.001,0.162,9.804,0.0,-0.01,-0.01
1777319071.767366,-26.71,0.02,0.96,0.002,0.156,9.804,-0.01,-0.01,-0.01
1777319071.7773445,-26.71,0.02,0.96,0.002,0.147,9.804,-0.01,-0.01,0.0
1777319071.7873328,-26.71,0.02,0.96,0.011,0.143,9.799,0.0,0.0,0.0
1777319071.7973194,-26.72,0.02,0.96,0.004,0.148,9.803,0.0,0.0,0.0
1777319071.807414,-26.72,0.01,0.96,0.005,0.152,9.803,-0.01,0.0,0.0
1777319071.8173213,-26.72,0.01,0.97,0.001,0.158,9.804,0.0,0.0,0.0
1777319071.8273346,-26.72,0.01,0.97,-0.005,0.162,9.806,0.0,0.0,0.0
1777319071.8373375,-26.72,0.01,0.97,-0.01,0.168,9.808,0.0,0.0,-0.01
1777319071.8473516,-26.72,0.01,0.97,-0.014,0.168,9.809,0.0,-0.01,0.0
1777319071.8573115,-26.72,0.01,0.97,-0.014,0.163,9.809,-0.01,0.0,0.0
1777319071.8673563,-26.72,0.01,0.97,-0.006,0.164,9.81,-0.01,-0.01,0.0
1777319071.8773336,-26.72,0.01,0.97,0.0,0.159,9.805,0.0,-0.01,-0.01
1777319071.8873134,-26.72,0.01,0.97,0.004,0.158,9.806,-0.01,-0.01,-0.01
1777319071.897326,-26.72,0.01,0.97,0.008,0.154,9.808,-0.01,-0.01,-0.01
1777319071.9074833,-26.72,0.01,0.97,-0.001,0.159,9.809,0.0,-0.01,-0.01
1777319071.917293,-26.71,0.01,0.97,0.001,0.164,9.799,0.0,0.0,-0.01
1777319071.9274588,-26.71,0.01,0.97,-0.013,0.158,9.802,0.0,0.0,-0.01
1777319071.9373283,-26.71,0.01,0.97,-0.017,0.172,9.802,-0.01,-0.01,-0.01
1777319071.9473526,-26.71,0.01,0.97,-0.005,0.146,9.794,-0.01,0.0,-0.01
1777319071.9577081,-26.71,0.01,0.96,-0.017,0.153,9.799,0.0,-0.01,-0.01
1777319071.9672968,-26.71,0.01,0.96,-0.002,0.153,9.798,-0.01,0.0,0.0
1777319071.9773297,-26.71,0.01,0.96,-0.005,0.14,9.799,0.0,-0.01,0.0
1777319071.987321,-26.71,0.01,0.96,0.006,0.146,9.802,-0.01,-0.01,0.0
1777319071.9973059,-26.71,0.01,0.96,0.002,0.147,9.804,-0.01,0.0,0.0
1777319072.0073152,-26.71,0.01,0.96,0.011,0.146,9.803,0.0,-0.01,-0.01
1777319072.0172796,-26.71,0.01,0.96,0.004,0.156,9.805,-0.01,0.0,-0.01
1777319072.0272903,-26.71,0.01,0.96,0.004,0.153,9.806,-0.01,0.0,-0.01
1777319072.0373042,-26.71,0.01,0.96,0.002,0.157,9.802,0.0,0.0,0.0
1777319072.04729,-26.71,0.01,0.96,0.0,0.152,9.803,0.0,0.0,0.0
1777319072.0573027,-26.72,0.01,0.96,-0.002,0.16,9.804,-0.01,0.0,0.0
1777319072.0672884,-26.72,0.01,0.96,-0.007,0.16,9.799,-0.01,-0.01,0.0
1777319072.0772958,-26.72,0.01,0.96,-0.005,0.154,9.794,0.0,0.0,0.0
1777319072.0873327,-26.72,0.01,0.96,-0.004,0.163,9.799,-0.01,-0.01,-0.01
1777319072.0972743,-26.72,0.01,0.96,-0.007,0.157,9.799,-0.01,-0.01,-0.01
1777319072.10727,-26.71,0.01,0.96,0.002,0.153,9.787,0.0,-0.01,-0.01
1777319072.1172907,-26.71,0.01,0.96,0.005,0.15,9.792,-0.01,0.0,-0.01
1777319072.127276,-26.72,0.01,0.96,0.0,0.156,9.798,0.0,-0.01,0.0
1777319072.1372752,-26.72,0.01,0.96,0.011,0.163,9.793,0.0,0.0,0.0
1777319072.1472673,-26.72,0.01,0.96,0.004,0.162,9.798,-0.01,-0.01,-0.01
1777319072.1572974,-26.71,0.01,0.96,0.002,0.166,9.793,-0.01,0.0,-0.01
1777319072.1672904,-26.71,0.01,0.96,-0.005,0.165,9.796,0.0,0.0,-0.01
1777319072.1772861,-26.71,0.01,0.96,-0.005,0.154,9.797,-0.01,-0.01,-0.01
1777319072.1872892,-26.71,0.01,0.96,-0.002,0.154,9.797,-0.01,0.0,0.0
1777319072.1972804,-26.71,0.01,0.96,-0.006,0.15,9.8,0.0,-0.01,0.0
1777319072.2072992,-26.71,0.01,0.95,-0.001,0.154,9.802,-0.01,-0.01,0.0
1777319072.2172954,-26.71,0.01,0.96,-0.004,0.145,9.804,-0.01,-0.01,0.0
1777319072.2273,-26.71,0.01,0.95,-0.002,0.159,9.805,0.0,-0.01,-0.01
1777319072.2372966,-26.71,0.01,0.96,-0.005,0.156,9.804,-0.01,0.0,-0.01
1777319072.2472854,-26.71,0.01,0.96,-0.011,0.154,9.805,0.0,0.0,-0.01
1777319072.2572796,-26.71,0.01,0.95,0.001,0.153,9.8,-0.01,-0.01,-0.01
1777319072.2673163,-26.71,0.01,0.95,-0.004,0.152,9.799,-0.01,0.0,0.0
1777319072.277308,-26.71,0.01,0.95,0.001,0.156,9.799,0.0,0.0,0.0
1777319072.2872677,-26.71,0.01,0.95,-0.001,0.151,9.803,0.0,0.0,0.0
1777319072.2973082,-26.71,0.01,0.95,-0.006,0.147,9.804,0.0,-0.01,0.0
1777319072.307305,-26.71,0.01,0.95,-0.01,0.15,9.804,0.0,0.0,-0.01
1777319072.3172915,-26.71,0.0,0.96,-0.008,0.143,9.797,0.0,0.0,-0.01
1777319072.3272777,-26.71,0.01,0.95,-0.011,0.14,9.797,0.0,-0.01,-0.01
1777319072.3373165,-26.72,0.01,0.95,-0.013,0.143,9.802,0.0,-0.01,0.0
1777319072.347327,-26.72,0.01,0.95,-0.011,0.152,9.798,0.0,-0.01,0.0
1777319072.3573208,-26.72,0.01,0.95,0.0,0.165,9.799,-0.01,-0.01,0.0
1777319072.3672817,-26.72,0.01,0.95,0.006,0.164,9.797,0.0,-0.01,0.0
1777319072.3772557,-26.72,0.01,0.95,0.008,0.168,9.799,0.0,0.0,-0.01
1777319072.387249,-26.72,0.01,0.95,0.002,0.152,9.803,-0.01,-0.01,-0.01
1777319072.397313,-26.71,0.01,0.95,0.002,0.165,9.802,-0.01,0.0,-0.01
1777319072.4072902,-26.72,0.01,0.95,0.005,0.15,9.803,0.0,0.0,-0.01
1777319072.4172723,-26.72,0.01,0.95,0.007,0.153,9.798,-0.01,-0.01,0.0
1777319072.4273055,-26.72,0.01,0.95,-0.002,0.15,9.791,-0.01,0.0,0.0
1777319072.4372997,-26.72,0.01,0.95,-0.005,0.157,9.792,-0.01,0.0,0.0
1777319072.4472866,-26.72,0.01,0.95,-0.019,0.15,9.797,-0.01,0.0,-0.01
1777319072.4572687,-26.71,0.01,0.95,-0.016,0.152,9.792,0.0,-0.01,-0.01
1777319072.4672866,-26.71,0.01,0.95,-0.014,0.153,9.794,-0.01,0.0,-0.01
1777319072.4772713,-26.72,0.01,0.95,-0.01,0.15,9.793,0.0,-0.01,-0.01
1777319072.4872875,-26.72,0.01,0.95,-0.006,0.16,9.791,0.0,0.0,0.0
1777319072.4972491,-26.72,0.01,0.95,-0.007,0.158,9.797,0.0,-0.01,0.0
1777319072.5073006,-26.72,0.01,0.95,-0.002,0.169,9.799,-0.01,0.0,0.0
1777319072.5172591,-26.72,0.01,0.95,0.008,0.17,9.799,0.0,0.0,-0.01
1777319072.527274,-26.71,0.01,0.95,0.002,0.162,9.797,0.0,-0.01,-0.01
1777319072.537268,-26.71,0.01,0.95,0.012,0.171,9.798,-0.01,-0.01,-0.01
1777319072.5464447,-26.71,0.01,0.95,0.005,0.157,9.799,0.0,0.0,-0.01
1777319072.5564303,-26.71,0.01,0.95,0.007,0.151,9.798,-0.01,-0.01,0.0
1777319072.5672734,-26.72,0.01,0.95,0.0,0.152,9.802,-0.01,0.0,0.0
1777319072.5772707,-26.72,0.01,0.95,-0.002,0.154,9.797,-0.01,-0.01,0.0
1777319072.5864277,-26.72,0.01,0.95,-0.016,0.154,9.797,0.0,0.0,0.0
1777319072.5964324,-26.72,0.0,0.96,-0.01,0.16,9.799,0.0,-0.01,-0.01
1777319072.6072736,-26.72,0.0,0.96,-0.008,0.152,9.798,0.0,0.0,-0.01
1777319072.6172538,-26.72,0.0,0.96,-0.007,0.158,9.8,0.0,-0.01,-0.01
1777319072.626428,-26.72,0.01,0.95,-0.004,0.164,9.791,0.0,0.0,-0.01
1777319072.6371043,-26.72,0.0,0.96,0.001,0.168,9.792,0.0,-0.01,0.0
1777319072.647368,-26.72,0.01,0.96,0.01,0.168,9.793,-0.01,-0.01,0.0
1777319072.656433,-26.72,0.01,0.96,0.004,0.166,9.798,0.0,-0.01,0.0
1777319072.66634,-26.72,0.01,0.96,0.012,0.168,9.799,-0.01,0.0,0.0
1777319072.6764379,-26.72,0.01,0.96,0.011,0.156,9.802,0.0,-0.01,-0.01
1777319072.6864197,-26.72,0.01,0.95,0.014,0.156,9.796,0.0,0.0,-0.01
1777319072.6964984,-26.72,0.01,0.96,0.007,0.152,9.788,-0.01,0.0,-0.01
1777319072.7063925,-26.72,0.01,0.95,0.002,0.145,9.794,0.0,-0.01,-0.01
1777319072.71728,-26.72,0.01,0.95,-0.004,0.147,9.799,0.0,0.0,0.0
1777319072.7263987,-26.72,0.01,0.95,-0.014,0.15,9.802,0.0,-0.01,0.0
1777319072.7363796,-26.72,0.01,0.95,-0.011,0.157,9.794,-0.01,-0.01,0.0
1777319072.7463918,-26.72,0.01,0.95,-0.013,0.157,9.798,0.0,0.0,0.0
1777319072.7563925,-26.72,0.0,0.96,-0.011,0.162,9.802,0.0,-0.01,-0.01
1777319072.7663906,-26.72,0.01,0.95,0.0,0.158,9.803,-0.01,0.0,-0.01
1777319072.7763731,-26.72,0.01,0.95,-0.001,0.148,9.805,0.0,-0.01,-0.01
1777319072.7864041,-26.72,0.01,0.95,0.0,0.157,9.799,0.0,-0.01,0.0
1777319072.7968588,-26.73,0.01,0.95,0.002,0.153,9.793,-0.01,-0.01,0.0
1777319072.8063655,-26.73,0.01,0.95,0.002,0.154,9.794,-0.01,-0.01,0.0
1777319072.8163495,-26.73,0.01,0.95,0.004,0.151,9.792,-0.01,0.0,-0.01
1777319072.8263512,-26.72,0.01,0.95,0.006,0.15,9.796,0.0,0.0,-0.01
1777319072.836369,-26.72,0.01,0.95,0.004,0.148,9.781,0.0,0.0,-0.01
1777319072.84636,-26.72,0.01,0.95,0.0,0.148,9.784,0.0,0.0,-0.01
1777319072.856371,-26.72,0.01,0.95,-0.004,0.151,9.79,0.0,0.0,0.0
1777319072.8663583,-26.73,0.01,0.95,0.001,0.153,9.786,-0.01,0.0,0.0
1777319072.8763797,-26.73,0.01,0.95,0.001,0.153,9.791,-0.01,0.0,0.0
1777319072.88637,-26.72,0.01,0.95,0.005,0.169,9.784,-0.01,0.0,-0.01
1777319072.896343,-26.72,0.01,0.95,0.006,0.159,9.774,0.0,0.0,-0.01
1777319072.9063454,-26.72,0.01,0.95,-0.002,0.152,9.785,0.0,-0.01,-0.01
1777319072.9163468,-26.72,0.0,0.96,0.011,0.151,9.779,-0.01,-0.01,-0.01
1777319072.926373,-26.72,0.01,0.95,0.005,0.127,9.781,0.0,0.0,-0.01
1777319072.9363708,-26.72,0.01,0.95,0.006,0.148,9.786,-0.01,-0.01,0.0
1777319072.946333,-26.72,0.01,0.95,0.007,0.135,9.78,-0.01,0.0,0.0
1777319072.9563365,-26.72,0.01,0.95,0.005,0.153,9.788,0.0,-0.01,0.0
1777319072.966355,-26.72,0.01,0.95,0.01,0.148,9.79,-0.01,0.0,-0.01
1777319072.9763415,-26.72,0.01,0.95,0.002,0.144,9.79,0.0,-0.01,-0.01
1777319072.9863331,-26.72,0.01,0.95,0.002,0.159,9.786,0.0,0.0,-0.01
1777319072.996341,-26.72,0.01,0.95,-0.005,0.158,9.792,-0.01,-0.01,0.0
1777319073.006317,-26.72,0.01,0.95,0.005,0.176,9.788,-0.01,0.0,0.0
1777319073.016356,-26.72,0.01,0.95,-0.005,0.174,9.794,0.0,0.0,0.0
1777319073.0263433,-26.72,0.01,0.95,-0.002,0.168,9.786,0.0,-0.01,-0.01
1777319073.0363424,-26.72,0.01,0.95,-0.004,0.158,9.785,-0.01,0.0,-0.01
1777319073.0463414,-26.72,0.01,0.95,-0.001,0.151,9.791,0.0,-0.01,-0.01
1777319073.0563693,-26.72,0.01,0.95,0.001,0.148,9.79,0.0,0.0,0.0
1777319073.066364,-26.73,0.01,0.95,-0.002,0.152,9.794,0.0,-0.01,0.0
1777319073.0763707,-26.73,0.01,0.95,0.004,0.158,9.797,0.0,0.0,0.0
1777319073.0863278,-26.72,0.01,0.95,0.0,0.172,9.797,-0.01,0.0,0.0
1777319073.096355,-26.72,0.01,0.95,0.0,0.175,9.8,0.0,0.0,-0.01
1777319073.1063588,-26.72,0.01,0.95,0.002,0.169,9.797,-0.01,0.0,-0.01
1777319073.116382,-26.72,0.01,0.95,-0.002,0.166,9.8,0.0,0.0,-0.01
1777319073.1263633,-26.73,0.01,0.95,-0.002,0.166,9.802,-0.01,0.0,0.0
1777319073.136353,-26.73,0.01,0.95,-0.008,0.158,9.799,0.0,0.0,0.0
1777319073.1463175,-26.73,0.0,0.96,-0.013,0.157,9.799,0.0,0.0,0.0
1777319073.1563828,-26.73,0.0,0.96,-0.011,0.152,9.802,-0.01,0.0,-0.01
1777319073.166367,-26.73,0.0,0.96,-0.01,0.139,9.804,0.0,0.0,-0.01
1777319073.176334,-26.73,0.0,0.96,-0.01,0.143,9.804,0.0,-0.01,0.0
1777319073.186334,-26.73,0.0,0.96,-0.012,0.144,9.805,0.0,0.0,0.0
1777319073.196342,-26.73,0.0,0.96,-0.008,0.143,9.805,0.0,-0.01,0.0
1777319073.2063556,-26.73,0.01,0.95,-0.004,0.159,9.804,0.0,-0.01,0.0
1777319073.2163415,-26.73,0.01,0.96,0.002,0.165,9.804,0.0,-0.01,-0.01
1777319073.2263181,-26.73,0.01,0.95,0.002,0.174,9.799,0.0,0.0,-0.01
1777319073.2363133,-26.73,0.01,0.96,0.0,0.165,9.798,-0.01,-0.01,-0.01
1777319073.2463343,-26.73,0.01,0.95,0.001,0.159,9.799,0.0,0.0,-0.01
1777319073.256329,-26.73,0.01,0.95,-0.001,0.158,9.8,-0.01,-0.01,0.0
1777319073.2663333,-26.73,0.0,0.96,0.0,0.162,9.798,-0.01,-0.01,0.0
1777319073.2763722,-26.73,0.01,0.95,-0.004,0.156,9.793,-0.01,0.0,0.0
1777319073.2863576,-26.73,0.0,0.96,-0.008,0.153,9.796,0.0,-0.01,-0.01
1777319073.2963352,-26.73,0.0,0.96,0.0,0.151,9.79,-0.01,0.0,-0.01
1777319073.3063354,-26.73,0.0,0.96,-0.012,0.137,9.796,0.0,-0.01,-0.01
1777319073.3163316,-26.73,0.0,0.96,-0.007,0.146,9.793,-0.01,-0.01,0.0
1777319073.3263478,-26.73,0.01,0.95,-0.007,0.15,9.79,0.0,0.0,0.0
1777319073.336347,-26.74,0.0,0.96,-0.004,0.16,9.794,0.0,-0.01,0.0
1777319073.346286,-26.74,0.0,0.96,0.005,0.168,9.793,0.0,0.0,0.0
1777319073.356332,-26.74,0.01,0.95,0.0,0.166,9.792,-0.01,0.0,-0.01
1777319073.3663402,-26.73,0.01,0.96,0.001,0.164,9.797,-0.01,-0.01,-0.01
1777319073.3763337,-26.73,0.01,0.95,-0.002,0.154,9.8,0.0,0.0,-0.01
1777319073.3863337,-26.73,0.01,0.95,-0.006,0.146,9.803,-0.01,-0.01,-0.01
1777319073.3963034,-26.74,0.0,0.96,-0.013,0.141,9.805,0.0,0.0,0.0
1777319073.4063265,-26.74,0.0,0.96,-0.01,0.141,9.793,0.0,0.0,0.0
1777319073.416289,-26.74,0.0,0.95,-0.019,0.151,9.797,-0.01,0.0,0.0
1777319073.426273,-26.73,0.0,0.96,-0.02,0.159,9.786,0.0,0.0,-0.01
1777319073.4363046,-26.73,0.0,0.96,-0.013,0.147,9.785,0.0,0.0,-0.01
1777319073.4463043,-26.73,0.0,0.96,-0.018,0.16,9.788,0.0,-0.01,-0.01
1777319073.4563026,-26.72,0.0,0.96,-0.011,0.148,9.794,-0.01,-0.01,-0.01
1777319073.4663072,-26.73,0.0,0.95,-0.018,0.159,9.798,0.0,-0.01,-0.01
1777319073.4762886,-26.73,0.0,0.96,-0.008,0.148,9.799,-0.01,-0.01,0.0
1777319073.4862933,-26.73,0.0,0.96,-0.007,0.157,9.799,-0.01,-0.01,0.0
1777319073.49631,-26.73,0.0,0.96,0.005,0.154,9.802,0.0,-0.01,0.0
1777319073.5062902,-26.73,0.0,0.96,0.005,0.146,9.804,0.0,0.0,-0.01
1777319073.5163376,-26.73,0.0,0.96,0.012,0.145,9.803,-0.01,0.0,-0.01
1777319073.5263183,-26.73,0.0,0.96,0.004,0.145,9.802,0.0,0.0,-0.01
1777319073.5363626,-26.73,0.0,0.95,0.004,0.15,9.793,0.0,0.0,0.0
1777319073.5463586,-26.73,0.0,0.96,0.0,0.154,9.797,-0.01,0.0,0.0
1777319073.5562856,-26.74,0.0,0.96,-0.016,0.156,9.8,0.0,0.0,0.0
1777319073.5663044,-26.74,-0.0,0.96,-0.013,0.163,9.803,0.0,0.0,0.0
1777319073.5754392,-26.74,-0.0,0.96,-0.008,0.168,9.8,0.0,0.0,-0.01
1777319073.5863044,-26.73,-0.0,0.96,-0.011,0.172,9.803,-0.01,0.0,-0.01
1777319073.5954406,-26.73,0.0,0.96,-0.007,0.156,9.805,-0.01,-0.01,-0.01
1777319073.605451,-26.73,0.0,0.96,-0.005,0.164,9.806,-0.01,-0.01,-0.01
1777319073.61545,-26.73,0.0,0.96,0.004,0.158,9.808,0.0,-0.01,-0.01
1777319073.625435,-26.73,0.0,0.95,0.012,0.16,9.808,-0.01,-0.01,-0.01
1777319073.6367652,-26.73,0.0,0.96,0.013,0.163,9.802,-0.01,0.0,0.0
1777319073.6454449,-26.74,0.0,0.96,0.005,0.158,9.804,0.0,0.0,0.0
1777319073.6564162,-26.74,0.0,0.96,0.01,0.157,9.805,0.0,-0.01,0.0
1777319073.6653433,-26.74,0.0,0.96,0.008,0.164,9.805,0.0,0.0,0.0
1777319073.6753545,-26.74,0.0,0.96,-0.001,0.156,9.803,-0.01,0.0,-0.01
1777319073.686258,-26.73,0.0,0.96,-0.011,0.157,9.805,0.0,0.0,-0.01
1777319073.696257,-26.73,-0.0,0.96,-0.012,0.166,9.788,-0.01,0.0,-0.01
1777319073.7053792,-26.73,-0.0,0.96,-0.024,0.162,9.794,0.0,0.0,-0.01
1777319073.7156763,-26.74,-0.0,0.96,-0.017,0.156,9.791,-0.01,-0.01,0.0
1777319073.7253957,-26.74,-0.0,0.96,-0.008,0.164,9.793,-0.01,0.0,0.0
1777319073.7353704,-26.74,-0.0,0.96,-0.005,0.162,9.791,-0.01,-0.01,0.0
1777319073.7453818,-26.74,0.0,0.96,0.0,0.148,9.792,-0.01,0.0,-0.01
1777319073.7553773,-26.73,0.0,0.95,0.005,0.145,9.797,0.0,-0.01,-0.01
1777319073.7653704,-26.73,0.0,0.96,0.018,0.148,9.799,-0.01,-0.01,-0.01
1777319073.7753756,-26.74,0.0,0.96,0.013,0.148,9.802,0.0,0.0,0.0
1777319073.786248,-26.74,0.0,0.96,0.018,0.154,9.794,0.0,0.0,0.0
1777319073.7953508,-26.74,0.0,0.96,0.007,0.162,9.796,-0.01,0.0,-0.01
1777319073.8053722,-26.74,0.0,0.96,0.007,0.158,9.798,0.0,0.0,0.0
1777319073.8153596,-26.74,0.0,0.96,0.001,0.158,9.798,0.0,0.0,0.0
1777319073.825355,-26.74,0.0,0.96,-0.008,0.165,9.802,-0.01,-0.01,0.0
1777319073.8353534,-26.74,-0.0,0.96,-0.004,0.162,9.79,-0.01,0.0,-0.01
1777319073.8453581,-26.73,0.0,0.96,-0.016,0.162,9.793,0.0,-0.01,-0.01
1777319073.855374,-26.73,-0.0,0.96,-0.004,0.162,9.798,-0.01,-0.01,-0.01
1777319073.8653498,-26.73,0.0,0.96,0.0,0.143,9.799,0.0,0.0,-0.01
1777319073.875364,-26.74,0.0,0.95,0.008,0.158,9.8,-0.01,-0.01,0.0
1777319073.885349,-26.74,0.0,0.96,0.012,0.16,9.794,-0.01,0.0,0.0
1777319073.895364,-26.74,0.0,0.96,0.016,0.159,9.787,0.0,-0.01,-0.01
1777319073.905341,-26.74,0.01,0.95,0.019,0.163,9.792,-0.01,0.0,0.0
1777319073.91536,-26.74,0.01,0.95,0.02,0.162,9.794,0.0,0.0,-0.01
1777319073.925344,-26.74,0.01,0.95,0.008,0.159,9.794,0.0,0.0,0.0
1777319073.9353473,-26.74,0.0,0.96,0.006,0.169,9.794,0.0,-0.01,0.0
1777319073.9453197,-26.74,0.0,0.96,0.002,0.175,9.792,-0.01,0.0,-0.01
1777319073.9553268,-26.74,0.01,0.96,-0.01,0.169,9.797,-0.01,-0.01,-0.01
1777319073.9653547,-26.73,0.0,0.96,-0.011,0.165,9.799,0.0,0.0,-0.01
1777319073.9753664,-26.73,0.0,0.96,-0.007,0.154,9.799,-0.01,-0.01,-0.01
1777319073.9853537,-26.74,0.0,0.96,-0.007,0.162,9.802,-0.01,-0.01,0.0
1777319073.9953399,-26.73,0.0,0.96,0.002,0.156,9.802,-0.01,-0.01,0.0
1777319074.005322,-26.73,0.01,0.95,0.001,0.152,9.804,0.0,-0.01,-0.01
1777319074.0153475,-26.73,0.01,0.95,0.006,0.159,9.803,-0.01,-0.01,-0.01
1777319074.02531,-26.73,0.01,0.95,0.011,0.14,9.804,0.0,0.0,-0.01
1777319074.0353203,-26.73,0.01,0.95,0.017,0.153,9.796,-0.01,-0.01,-0.01
1777319074.0453315,-26.73,0.01,0.95,0.025,0.141,9.792,-0.01,0.0,0.0
1777319074.05532,-26.74,0.01,0.95,0.012,0.157,9.797,0.0,0.0,0.0
1777319074.0653358,-26.74,0.01,0.95,0.01,0.169,9.799,-0.01,0.0,0.0
1777319074.075317,-26.74,0.01,0.96,0.0,0.159,9.802,0.0,0.0,-0.01
1777319074.085309,-26.73,0.01,0.95,-0.001,0.163,9.794,0.0,0.0,-0.01
1777319074.0953515,-26.73,0.01,0.95,-0.017,0.152,9.792,0.0,0.0,-0.01
1777319074.1053483,-26.73,0.0,0.96,-0.017,0.152,9.78,-0.01,-0.01,-0.01
1777319074.115343,-26.74,0.01,0.95,-0.017,0.153,9.786,0.0,-0.01,0.0
1777319074.1253476,-26.74,0.0,0.96,-0.016,0.147,9.793,0.0,-0.01,0.0
1777319074.135349,-26.74,0.01,0.95,-0.006,0.16,9.793,-0.01,-0.01,0.0
1777319074.1452885,-26.74,0.01,0.95,0.001,0.16,9.797,0.0,-0.01,-0.01
1777319074.155304,-26.74,0.01,0.96,0.007,0.15,9.794,-0.01,-0.01,-0.01
1777319074.1653287,-26.74,0.01,0.95,0.006,0.157,9.797,0.0,-0.01,-0.01
1777319074.1753333,-26.74,0.01,0.95,0.01,0.15,9.8,0.0,0.0,-0.01
1777319074.185301,-26.74,0.01,0.95,0.013,0.156,9.787,0.0,0.0,0.0
1777319074.1953323,-26.74,0.01,0.95,0.007,0.162,9.78,0.0,0.0,0.0
1777319074.205537,-26.74,0.01,0.96,0.0,0.164,9.788,-0.01,0.0,0.0
1777319074.2153416,-26.74,0.01,0.96,-0.001,0.162,9.79,0.0,0.0,-0.01
1777319074.2253165,-26.74,0.01,0.96,-0.017,0.159,9.794,0.0,0.0,-0.01
1777319074.23531,-26.74,0.0,0.96,-0.011,0.156,9.798,0.0,0.0,-0.01
1777319074.2453017,-26.74,0.0,0.96,-0.007,0.151,9.784,-0.01,0.0,-0.01
1777319074.2553117,-26.74,0.0,0.96,-0.018,0.144,9.779,0.0,-0.01,-0.01
1777319074.2653418,-26.74,0.0,0.96,-0.01,0.147,9.784,0.0,-0.01,0.0
1777319074.275329,-26.74,0.0,0.96,-0.005,0.147,9.791,0.0,-0.01,0.0
1777319074.2853117,-26.74,0.01,0.95,0.0,0.151,9.796,0.0,-0.01,0.0
1777319074.2953217,-26.74,0.01,0.95,0.0,0.159,9.797,-0.01,0.0,0.0
1777319074.3053122,-26.74,0.01,0.95,0.006,0.16,9.794,0.0,0.0,-0.01
1777319074.3153274,-26.74,0.01,0.96,0.006,0.162,9.797,-0.01,0.0,-0.01
1777319074.325308,-26.74,0.01,0.95,0.008,0.153,9.8,0.0,0.0,-0.01
1777319074.3353262,-26.74,0.0,0.96,0.0,0.159,9.798,-0.01,0.0,0.0
1777319074.3453383,-26.74,0.01,0.96,0.0,0.148,9.786,-0.01,0.0,0.0
1777319074.3553276,-26.74,0.0,0.96,-0.013,0.152,9.791,0.0,0.0,0.0
1777319074.3653164,-26.74,0.0,0.96,-0.013,0.158,9.793,-0.01,0.0,0.0
1777319074.3753264,-26.74,0.0,0.96,-0.016,0.146,9.792,0.0,-0.01,-0.01
1777319074.3853226,-26.74,0.0,0.96,-0.016,0.154,9.796,0.0,-0.01,-0.01
1777319074.3953283,-26.74,0.0,0.96,-0.011,0.148,9.788,-0.01,-0.01,-0.01
1777319074.4053104,-26.74,0.0,0.96,0.0,0.147,9.792,0.0,0.0,-0.01
1777319074.415352,-26.74,0.0,0.96,-0.005,0.151,9.797,-0.01,-0.01,0.0
1777319074.4253485,-26.74,0.0,0.96,0.008,0.152,9.787,0.0,0.0,0.0
1777319074.4353514,-26.74,0.0,0.96,0.0,0.169,9.793,0.0,-0.01,0.0
1777319074.4453895,-26.74,0.01,0.96,0.012,0.16,9.79,-0.01,0.0,0.0
1777319074.4553041,-26.74,0.0,0.96,0.0,0.166,9.79,0.0,0.0,-0.01
1777319074.4654071,-26.74,0.01,0.96,0.0,0.169,9.788,-0.01,-0.01,-0.01
1777319074.4753227,-26.74,0.01,0.96,0.0,0.154,9.791,0.0,0.0,-0.01
1777319074.4853125,-26.74,0.0,0.96,-0.007,0.158,9.794,-0.01,-0.01,0.0
1777319074.495289,-26.74,0.0,0.96,0.0,0.157,9.794,-0.01,0.0,0.0
1777319074.5052838,-26.74,0.0,0.96,-0.008,0.148,9.799,0.0,-0.01,0.0
1777319074.5152874,-26.74,0.0,0.96,0.0,0.152,9.798,-0.01,0.0,0.0
1777319074.5252829,-26.74,0.0,0.96,-0.007,0.145,9.8,0.0,-0.01,-0.01
1777319074.5352676,-26.74,0.0,0.96,0.004,0.146,9.803,0.0,0.0,-0.01
1777319074.5453055,-26.74,0.0,0.96,0.007,0.152,9.798,-0.01,0.0,0.0
1777319074.5552645,-26.74,0.01,0.95,0.013,0.15,9.788,0.0,0.0,0.0
1777319074.5653203,-26.74,0.01,0.95,0.012,0.153,9.794,0.0,-0.01,0.0
1777319074.575279,-26.74,0.01,0.95,0.018,0.156,9.798,0.0,0.0,0.0
1777319074.585259,-26.74,0.01,0.95,0.01,0.159,9.802,-0.01,0.0,-0.01
1777319074.5952811,-26.74,0.01,0.95,0.008,0.157,9.804,0.0,0.0,-0.01
1777319074.6052651,-26.74,0.01,0.95,0.004,0.156,9.796,-0.01,-0.01,-0.01
1777319074.6152732,-26.74,0.01,0.95,0.002,0.153,9.798,0.0,0.0,-0.01
1777319074.6252694,-26.74,0.01,0.95,0.0,0.156,9.797,-0.01,-0.01,-0.01
1777319074.634399,-26.74,0.01,0.95,0.008,0.143,9.798,0.0,0.0,0.0
1777319074.645277,-26.74,0.01,0.95,0.004,0.146,9.799,0.0,-0.01,0.0
1777319074.654427,-26.74,0.01,0.95,0.008,0.15,9.792,0.0,0.0,0.0
1777319074.6652768,-26.74,0.01,0.95,0.0,0.153,9.796,0.0,-0.01,-0.01
1777319074.6752687,-26.74,0.01,0.95,0.005,0.156,9.799,0.0,-0.01,-0.01
1777319074.6852543,-26.74,0.01,0.95,-0.004,0.168,9.8,0.0,0.0,-0.01
1777319074.694378,-26.74,0.01,0.95,-0.006,0.16,9.798,-0.01,0.0,-0.01
1777319074.7052817,-26.74,0.01,0.95,-0.001,0.165,9.79,0.0,0.0,-0.01
1777319074.7152665,-26.74,0.01,0.95,0.0,0.157,9.793,-0.01,0.0,-0.01
1777319074.7252448,-26.74,0.01,0.95,-0.002,0.157,9.794,-0.01,-0.01,0.0
1777319074.7344067,-26.74,0.01,0.95,0.011,0.153,9.79,0.0,-0.01,0.0
1777319074.7444124,-26.74,0.01,0.95,0.005,0.156,9.796,0.0,0.0,0.0
1777319074.755255,-26.74,0.01,0.95,0.006,0.156,9.792,-0.01,-0.01,-0.01
1777319074.764389,-26.74,0.01,0.95,0.001,0.152,9.79,-0.01,0.0,-0.01
1777319074.7743864,-26.74,0.01,0.95,0.005,0.16,9.791,0.0,-0.01,-0.01
1777319074.785248,-26.74,0.02,0.95,0.004,0.158,9.796,0.0,-0.01,-0.01
1777319074.7943997,-26.74,0.01,0.95,0.002,0.166,9.784,-0.01,-0.01,0.0
1777319074.8043919,-26.74,0.02,0.95,0.006,0.16,9.785,0.0,0.0,-0.01
1777319074.8144095,-26.74,0.02,0.95,0.0,0.168,9.791,-0.01,-0.01,-0.01
1777319074.8243883,-26.74,0.02,0.96,0.007,0.151,9.796,-0.01,0.0,0.0
1777319074.8344066,-26.74,0.02,0.95,0.012,0.156,9.8,0.0,-0.01,0.0
1777319074.8444006,-26.74,0.02,0.95,0.011,0.154,9.796,-0.01,0.0,0.0
1777319074.85453,-26.74,0.02,0.95,0.005,0.157,9.791,0.0,0.0,-0.01
1777319074.864367,-26.74,0.02,0.95,0.01,0.153,9.796,-0.01,0.0,0.0
1777319074.874538,-26.74,0.02,0.95,0.004,0.145,9.799,0.0,-0.01,0.0
1777319074.8843908,-26.74,0.02,0.95,0.006,0.16,9.8,-0.01,0.0,-0.01
1777319074.8945565,-26.74,0.02,0.96,-0.005,0.154,9.803,0.0,0.0,0.0
1777319074.904397,-26.74,0.02,0.95,0.0,0.166,9.799,0.0,0.0,-0.01
1777319074.9145398,-26.74,0.01,0.96,-0.01,0.166,9.802,-0.01,0.0,0.0
1777319074.9243896,-26.74,0.01,0.96,-0.004,0.159,9.804,0.0,0.0,-0.01
1777319074.934612,-26.74,0.01,0.96,0.0,0.164,9.791,-0.01,0.0,0.0
1777319074.944572,-26.74,0.02,0.96,0.002,0.158,9.786,-0.01,0.0,-0.01
1777319074.9543808,-26.74,0.01,0.96,0.0,0.157,9.788,0.0,0.0,0.0
1777319074.9643726,-26.74,0.01,0.96,0.005,0.146,9.791,0.0,0.0,-0.01
1777319074.9743636,-26.74,0.02,0.95,-0.006,0.153,9.794,0.0,-0.01,0.0
1777319074.9843473,-26.74,0.01,0.96,-0.007,0.154,9.796,0.0,-0.01,0.0
1777319074.9943798,-26.74,0.01,0.95,0.001,0.166,9.776,0.0,0.0,0.0
1777319075.0043497,-26.74,0.02,0.96,-0.001,0.168,9.78,-0.01,-0.01,-0.01
1777319075.01435,-26.74,0.02,0.96,-0.01,0.174,9.782,0.0,-0.01,-0.01
1777319075.024338,-26.74,0.01,0.97,-0.002,0.166,9.774,-0.01,-0.01,0.0
1777319075.0343745,-26.74,0.02,0.96,-0.006,0.163,9.784,0.0,0.0,-0.01
1777319075.0443504,-26.74,0.01,0.96,0.002,0.176,9.773,-0.01,-0.01,0.0
1777319075.0543756,-26.74,0.01,0.97,0.001,0.157,9.775,0.0,0.0,0.0
1777319075.0643623,-26.74,0.02,0.96,0.0,0.162,9.785,0.0,-0.01,-0.01
1777319075.0744536,-26.74,0.02,0.96,0.006,0.148,9.791,-0.01,0.0,-0.01
1777319075.0845034,-26.74,0.02,0.96,0.007,0.143,9.796,0.0,0.0,-0.01
1777319075.0943615,-26.74,0.02,0.96,0.0,0.148,9.798,-0.01,-0.01,0.0
1777319075.1044557,-26.74,0.01,0.96,-0.005,0.154,9.794,0.0,-0.01,0.0
1777319075.1143904,-26.74,0.01,0.96,-0.004,0.158,9.797,0.0,0.0,0.0
1777319075.1245189,-26.74,0.01,0.96,-0.016,0.156,9.8,0.0,-0.01,0.0
1777319075.1343575,-26.74,0.01,0.96,-0.01,0.163,9.8,-0.01,-0.01,-0.01
1777319075.144516,-26.74,0.01,0.96,-0.01,0.171,9.799,-0.01,0.0,-0.01
1777319075.1543496,-26.74,0.01,0.96,0.002,0.159,9.796,0.0,-0.01,-0.01
1777319075.1644914,-26.74,0.02,0.96,0.0,0.158,9.793,-0.01,0.0,-0.01
1777319075.1743722,-26.74,0.02,0.96,0.006,0.148,9.797,0.0,-0.01,-0.01
1777319075.1846967,-26.74,0.02,0.96,0.008,0.15,9.798,-0.01,-0.01,-0.01
1777319075.1943781,-26.74,0.02,0.95,0.004,0.148,9.8,-0.01,0.0,-0.01
1777319075.2043526,-26.74,0.02,0.96,0.006,0.158,9.802,-0.01,0.0,0.0
1777319075.2143312,-26.74,0.02,0.96,0.0,0.147,9.794,0.0,0.0,-0.01
1777319075.2243712,-26.74,0.02,0.95,-0.012,0.146,9.799,0.0,0.0,-0.01
1777319075.2343261,-26.74,0.01,0.96,-0.008,0.154,9.796,-0.01,-0.01,0.0
1777319075.2443578,-26.74,0.01,0.95,-0.011,0.141,9.799,0.0,0.0,0.0
1777319075.2544065,-26.74,0.01,0.95,-0.014,0.16,9.796,-0.01,-0.01,0.0
1777319075.2642992,-26.74,0.01,0.95,-0.007,0.151,9.786,-0.01,0.0,0.0
1777319075.2743297,-26.74,0.01,0.95,-0.016,0.158,9.792,0.0,-0.01,0.0
1777319075.2843256,-26.74,0.01,0.96,-0.006,0.16,9.794,0.0,-0.01,0.0
1777319075.294314,-26.74,0.01,0.96,-0.002,0.156,9.796,0.0,-0.01,-0.01
1777319075.3043008,-26.74,0.01,0.96,0.005,0.159,9.793,0.0,-0.01,0.0
1777319075.3143263,-26.74,0.01,0.95,0.01,0.152,9.79,0.0,0.0,0.0
1777319075.3243117,-26.74,0.01,0.95,0.012,0.154,9.796,-0.01,0.0,0.0
1777319075.3344443,-26.75,0.01,0.95,0.012,0.157,9.798,-0.01,0.0,0.0
1777319075.3443184,-26.75,0.01,0.95,0.005,0.154,9.802,0.0,0.0,0.0
1777319075.354288,-26.75,0.01,0.95,0.005,0.159,9.804,-0.01,-0.01,0.0
1777319075.3643062,-26.75,0.01,0.95,0.004,0.156,9.793,-0.01,-0.01,0.0
1777319075.3743157,-26.75,0.01,0.95,0.008,0.151,9.793,0.0,-0.01,-0.01
1777319075.3843107,-26.75,0.01,0.95,0.006,0.156,9.798,-0.01,-0.01,0.0
1777319075.394321,-26.74,0.02,0.95,0.012,0.172,9.79,0.0,-0.01,-0.01
1777319075.4043076,-26.74,0.02,0.96,0.007,0.159,9.79,-0.01,-0.01,-0.01
1777319075.4143112,-26.74,0.02,0.95,0.0,0.166,9.794,0.0,-0.01,-0.01
1777319075.4243104,-26.74,0.01,0.96,0.01,0.164,9.791,-0.01,-0.01,-0.01
1777319075.434301,-26.74,0.02,0.95,0.001,0.148,9.796,0.0,0.0,-0.01
1777319075.4443204,-26.74,0.02,0.95,0.006,0.162,9.788,-0.01,-0.01,0.0
1777319075.4543128,-26.74,0.02,0.95,0.005,0.147,9.769,-0.01,0.0,0.0
1777319075.4642892,-26.74,0.02,0.95,0.004,0.144,9.779,0.0,-0.01,0.0
1777319075.4743207,-26.74,0.02,0.95,0.007,0.164,9.784,-0.01,0.0,0.0
1777319075.484315,-26.74,0.02,0.95,0.002,0.15,9.791,0.0,0.0,-0.01
1777319075.4943247,-26.74,0.02,0.95,0.002,0.163,9.786,0.0,0.0,-0.01
1777319075.5043182,-26.74,0.02,0.95,0.001,0.16,9.781,-0.01,0.0,-0.01
1777319075.5143247,-26.74,0.01,0.95,-0.002,0.164,9.785,-0.01,0.0,0.0
1777319075.5243204,-26.74,0.01,0.95,0.0,0.16,9.787,0.0,0.0,0.0
1777319075.5342958,-26.75,0.01,0.95,-0.008,0.156,9.793,0.0,-0.01,0.0
1777319075.5443063,-26.75,0.01,0.95,-0.01,0.157,9.797,-0.01,-0.01,0.0
1777319075.5543332,-26.75,0.01,0.95,-0.013,0.152,9.792,0.0,0.0,0.0
1777319075.564303,-26.75,0.01,0.95,0.0,0.156,9.787,0.0,0.0,-0.01
1777319075.5743356,-26.75,0.01,0.95,-0.005,0.159,9.793,-0.01,-0.01,-0.01
1777319075.5843136,-26.75,0.01,0.95,0.002,0.156,9.796,0.0,-0.01,-0.01
1777319075.5942817,-26.75,0.01,0.95,0.0,0.16,9.794,-0.01,0.0,0.0
1777319075.604334,-26.75,0.01,0.95,0.0,0.166,9.799,-0.01,-0.01,0.0
1777319075.6142993,-26.75,0.01,0.95,0.002,0.164,9.797,0.0,0.0,0.0
1777319075.6243289,-26.75,0.01,0.95,-0.001,0.159,9.799,0.0,0.0,0.0
1777319075.6343045,-26.75,0.01,0.95,-0.005,0.17,9.799,0.0,-0.01,0.0
1777319075.6442952,-26.75,0.01,0.95,-0.006,0.168,9.793,-0.01,0.0,-0.01
1777319075.6542723,-26.75,0.01,0.95,-0.008,0.163,9.798,0.0,0.0,-0.01
1777319075.6642692,-26.75,0.01,0.95,-0.004,0.165,9.797,-0.01,-0.01,-0.01
1777319075.6742666,-26.75,0.01,0.95,0.0,0.158,9.8,-0.01,-0.01,-0.01
1777319075.6843412,-26.75,0.01,0.95,-0.008,0.146,9.803,0.0,-0.01,0.0
1777319075.6942909,-26.75,0.01,0.95,-0.01,0.141,9.804,0.0,0.0,0.0
1777319075.7042744,-26.75,0.01,0.95,-0.001,0.145,9.797,0.0,0.0,0.0
1777319075.714308,-26.75,0.01,0.95,-0.001,0.15,9.798,0.0,0.0,0.0
1777319075.724353,-26.75,0.01,0.95,-0.007,0.15,9.796,0.0,-0.01,-0.01
1777319075.7342691,-26.75,0.01,0.95,-0.002,0.15,9.798,0.0,0.0,-0.01
1777319075.7443192,-26.75,0.01,0.95,-0.001,0.154,9.793,-0.01,-0.01,-0.01
1777319075.754298,-26.75,0.01,0.95,-0.001,0.165,9.786,-0.01,0.0,0.0
1777319075.7634208,-26.75,0.0,0.96,0.0,0.163,9.785,-0.01,0.0,0.0
1777319075.7742722,-26.75,0.01,0.95,0.0,0.16,9.791,-0.01,0.0,0.0
1777319075.7842743,-26.75,0.01,0.95,-0.001,0.162,9.794,-0.01,-0.01,-0.01
1777319075.7942612,-26.75,0.0,0.95,0.0,0.17,9.787,-0.01,0.0,-0.01
1777319075.8042555,-26.75,0.0,0.95,-0.013,0.157,9.786,-0.01,0.0,-0.01
1777319075.814259,-26.75,0.0,0.95,-0.006,0.158,9.779,0.0,-0.01,-0.01
1777319075.8234131,-26.75,0.0,0.95,-0.01,0.153,9.785,-0.01,0.0,0.0
1777319075.8342893,-26.75,0.0,0.95,-0.019,0.154,9.792,0.0,-0.01,0.0
1777319075.8442714,-26.76,0.0,0.95,-0.005,0.16,9.788,-0.01,0.0,0.0
1777319075.8534362,-26.75,0.0,0.95,-0.008,0.157,9.79,0.0,-0.01,0.0
1777319075.8634167,-26.75,0.0,0.95,-0.005,0.165,9.778,0.0,-0.01,-0.01
1777319075.873437,-26.75,0.0,0.95,0.0,0.16,9.782,0.0,-0.01,-0.01
1777319075.884276,-26.75,0.0,0.95,0.0,0.162,9.787,0.0,-0.01,-0.01
1777319075.893604,-26.75,0.0,0.95,0.0,0.158,9.792,-0.01,0.0,-0.01
1777319075.903461,-26.75,0.0,0.95,0.007,0.17,9.788,-0.01,0.0,0.0
1777319075.913441,-26.75,0.01,0.95,0.005,0.165,9.79,-0.01,-0.01,-0.01
1777319075.9233594,-26.75,0.0,0.95,0.007,0.156,9.792,-0.01,-0.01,-0.01
1777319075.9333344,-26.75,0.01,0.95,0.002,0.156,9.794,-0.01,0.0,-0.01
1777319075.9433508,-26.75,0.01,0.94,-0.007,0.148,9.799,-0.01,-0.01,-0.01
1777319075.9533463,-26.75,0.0,0.94,-0.004,0.147,9.797,-0.01,-0.01,0.0
1777319075.9633923,-26.75,0.0,0.94,-0.011,0.147,9.797,0.0,0.0,0.0
1777319075.9733872,-26.75,0.0,0.94,-0.005,0.146,9.794,0.0,0.0,0.0
1777319075.9833682,-26.75,0.0,0.94,-0.018,0.143,9.796,-0.01,-0.01,0.0
1777319075.993375,-26.75,0.0,0.94,-0.007,0.146,9.793,0.0,-0.01,0.0
1777319076.0033827,-26.75,0.01,0.94,-0.005,0.147,9.798,0.0,0.0,0.0
1777319076.0133731,-26.75,0.01,0.94,-0.002,0.151,9.799,0.0,-0.01,0.0
1777319076.0233402,-26.75,0.01,0.94,0.0,0.162,9.794,-0.01,0.0,0.0
1777319076.033378,-26.75,0.01,0.94,0.005,0.159,9.799,0.0,-0.01,-0.01
1777319076.043359,-26.75,0.01,0.94,0.013,0.164,9.794,-0.01,0.0,0.0
1777319076.0533574,-26.75,0.01,0.94,0.006,0.159,9.799,0.0,0.0,-0.01
1777319076.0633469,-26.75,0.01,0.94,0.006,0.163,9.799,0.0,0.0,-0.01
1777319076.0733745,-26.75,0.01,0.94,-0.002,0.156,9.792,-0.01,0.0,0.0
1777319076.0833538,-26.75,0.01,0.94,-0.005,0.154,9.788,0.0,0.0,0.0
1777319076.093336,-26.75,0.0,0.94,-0.007,0.16,9.786,-0.01,0.0,0.0
1777319076.1033607,-26.75,0.0,0.94,-0.01,0.152,9.787,0.0,0.0,-0.01
1777319076.1133595,-26.75,0.0,0.94,-0.012,0.154,9.793,0.0,-0.01,-0.01
1777319076.1233428,-26.75,0.0,0.94,-0.005,0.156,9.786,0.0,-0.01,-0.01
1777319076.1333597,-26.75,0.0,0.94,-0.012,0.154,9.791,0.0,0.0,0.0
1777319076.143445,-26.75,0.0,0.94,-0.007,0.159,9.788,0.0,-0.01,0.0
1777319076.15333,-26.75,0.0,0.94,-0.002,0.158,9.79,-0.01,-0.01,0.0
1777319076.1633673,-26.75,0.0,0.94,-0.006,0.154,9.793,0.0,-0.01,0.0
1777319076.1733356,-26.75,0.0,0.94,-0.001,0.165,9.796,0.0,0.0,-0.01
1777319076.183427,-26.75,0.0,0.94,-0.001,0.164,9.791,0.0,0.0,-0.01
1777319076.193363,-26.75,0.0,0.94,0.0,0.159,9.793,-0.01,0.0,-0.01
1777319076.203337,-26.75,0.0,0.94,0.0,0.159,9.798,0.0,0.0,-0.01
1777319076.2133522,-26.75,0.0,0.94,0.0,0.162,9.796,-0.01,-0.01,0.0
1777319076.2233407,-26.75,0.0,0.94,-0.001,0.156,9.791,0.0,0.0,0.0
1777319076.2333531,-26.76,0.0,0.94,-0.008,0.162,9.782,0.0,0.0,0.0
1777319076.2433264,-26.75,0.0,0.94,-0.002,0.162,9.766,0.0,0.0,-0.01
1777319076.2533252,-26.75,0.0,0.94,-0.014,0.159,9.776,0.0,-0.01,-0.01
1777319076.2632985,-26.75,0.0,0.94,0.005,0.159,9.781,0.0,0.0,-0.01
1777319076.2733376,-26.75,0.0,0.94,-0.007,0.154,9.788,-0.01,0.0,-0.01
1777319076.2833111,-26.75,0.0,0.94,0.001,0.159,9.787,0.0,-0.01,0.0
1777319076.2932906,-26.75,0.0,0.94,0.002,0.159,9.79,-0.01,0.0,0.0
1777319076.303346,-26.75,0.0,0.94,0.005,0.154,9.788,0.0,-0.01,-0.01
1777319076.3133256,-26.75,0.01,0.94,0.01,0.163,9.787,-0.01,0.0,-0.01
1777319076.3233283,-26.75,0.0,0.94,0.005,0.154,9.786,0.0,-0.01,-0.01
1777319076.3333013,-26.75,0.0,0.94,0.006,0.159,9.791,0.0,0.0,-0.01
1777319076.3433444,-26.75,0.01,0.94,0.004,0.169,9.793,-0.01,0.0,-0.01
1777319076.3533428,-26.75,0.0,0.94,0.0,0.156,9.798,0.0,-0.01,-0.01
1777319076.3633192,-26.75,0.0,0.94,0.007,0.156,9.793,-0.01,0.0,-0.01
1777319076.3733225,-26.75,0.01,0.94,0.008,0.154,9.787,-0.01,0.0,-0.01
1777319076.383359,-26.75,0.01,0.94,0.006,0.154,9.791,-0.01,-0.01,0.0
1777319076.3933535,-26.75,0.01,0.94,0.005,0.145,9.785,0.0,0.0,0.0
1777319076.4033182,-26.75,0.01,0.93,-0.001,0.146,9.792,0.0,-0.01,0.0
1777319076.4133139,-26.75,0.01,0.93,0.005,0.151,9.779,-0.01,0.0,0.0
1777319076.42337,-26.75,0.01,0.93,-0.012,0.146,9.785,0.0,-0.01,0.0
1777319076.4333367,-26.75,-0.0,0.93,0.001,0.154,9.782,0.0,0.0,0.0
1777319076.443389,-26.75,0.01,0.93,-0.001,0.147,9.79,-0.01,0.0,0.0
1777319076.4533808,-26.75,-0.0,0.93,-0.01,0.157,9.796,0.0,-0.01,0.0
1777319076.463333,-26.75,-0.0,0.93,-0.001,0.164,9.794,-0.01,0.0,-0.01
1777319076.473327,-26.75,0.01,0.94,-0.013,0.164,9.792,0.0,-0.01,-0.01
1777319076.4833267,-26.75,0.0,0.94,-0.005,0.168,9.796,0.0,-0.01,0.0
1777319076.4933698,-26.75,0.0,0.94,-0.002,0.157,9.799,0.0,0.0,0.0
1777319076.5034494,-26.75,0.01,0.94,0.005,0.163,9.797,0.0,0.0,-0.01
1777319076.5133379,-26.75,0.01,0.94,0.004,0.163,9.793,-0.01,-0.01,-0.01
1777319076.5233417,-26.75,0.01,0.94,0.008,0.16,9.787,0.0,0.0,-0.01
1777319076.5333478,-26.75,0.01,0.94,0.007,0.158,9.788,-0.01,0.0,-0.01
1777319076.5433416,-26.75,0.01,0.94,0.002,0.153,9.791,0.0,0.0,-0.01
1777319076.553382,-26.75,0.01,0.94,-0.004,0.157,9.793,0.0,0.0,0.0
1777319076.5633147,-26.75,0.01,0.94,-0.002,0.158,9.787,0.0,-0.01,0.0
1777319076.5733478,-26.75,0.01,0.94,0.0,0.156,9.784,0.0,0.0,0.0
1777319076.5833647,-26.75,0.01,0.94,-0.012,0.163,9.788,0.0,-0.01,-0.01
1777319076.6071737,-26.75,0.0,0.94,-0.01,0.158,9.793,0.0,-0.01,-0.01
1777319076.6313863,-26.75,0.01,0.94,-0.014,0.163,9.798,0.0,-0.01,-0.01
1777319076.6370685,-26.75,0.01,0.94,-0.002,0.159,9.792,-0.01,-0.01,0.0
1777319076.6436844,-26.75,0.01,0.94,-0.001,0.168,9.797,0.0,-0.01,0.0
1777319076.6503897,-26.76,0.01,0.94,0.007,0.164,9.788,-0.01,-0.01,0.0
1777319076.657235,-26.76,0.01,0.94,0.001,0.159,9.791,0.0,0.0,0.0
1777319076.6599085,-26.76,0.01,0.94,0.016,0.156,9.78,-0.01,-0.01,-0.01
1777319076.6643107,-26.75,0.01,0.94,0.012,0.151,9.78,-0.01,0.0,-0.01
1777319076.673889,-26.75,0.01,0.94,0.01,0.15,9.778,0.0,-0.01,-0.01
1777319076.6833816,-26.75,0.01,0.94,0.005,0.15,9.784,0.0,0.0,-0.01
1777319076.693881,-26.75,0.01,0.94,-0.008,0.153,9.791,0.0,-0.01,0.0
1777319076.704222,-26.76,0.01,0.94,-0.01,0.164,9.786,0.0,0.0,0.0
1777319076.7138345,-26.76,0.0,0.94,-0.018,0.169,9.788,0.0,-0.01,0.0
1777319076.7239084,-26.75,0.0,0.94,-0.016,0.174,9.781,-0.01,0.0,0.0
1777319076.73355,-26.75,0.0,0.94,-0.022,0.166,9.788,0.0,-0.01,-0.01
1777319076.7432714,-26.75,0.0,0.94,-0.002,0.17,9.779,-0.01,-0.01,-0.01
1777319076.7533116,-26.75,0.01,0.94,0.0,0.154,9.778,0.0,0.0,-0.01
1777319076.7633147,-26.75,0.01,0.94,0.002,0.165,9.781,-0.01,-0.01,-0.01
1777319076.774359,-26.75,0.01,0.94,0.02,0.156,9.774,-0.01,0.0,0.0
1777319076.783284,-26.76,0.01,0.94,0.013,0.152,9.782,0.0,-0.01,0.0
1777319076.7933307,-26.76,0.01,0.94,0.012,0.153,9.788,-0.01,0.0,0.0
1777319076.803937,-26.75,0.01,0.94,0.0,0.148,9.794,0.0,0.0,-0.01
1777319076.8143184,-26.75,0.01,0.94,0.005,0.154,9.785,0.0,0.0,-0.01
1777319076.8234017,-26.75,0.01,0.94,-0.004,0.158,9.782,0.0,0.0,-0.01
1777319076.8332794,-26.75,0.01,0.94,0.001,0.16,9.787,0.0,0.0,-0.01
1777319076.8424547,-26.75,0.01,0.94,0.001,0.16,9.793,-0.01,0.0,0.0
1777319076.853695,-26.76,0.01,0.94,0.0,0.166,9.791,0.0,-0.01,0.0
1777319076.8637667,-26.76,0.01,0.94,-0.001,0.174,9.79,-0.01,-0.01,0.0
1777319076.8733268,-26.75,0.01,0.94,0.001,0.163,9.796,-0.01,0.0,-0.01
1777319076.883267,-26.75,0.01,0.94,0.0,0.156,9.799,-0.01,-0.01,-0.01
1777319076.8928154,-26.75,0.01,0.94,0.007,0.147,9.802,-0.01,0.0,-0.01
1777319076.9035356,-26.75,0.01,0.94,0.001,0.143,9.803,0.0,-0.01,0.0
1777319076.9132705,-26.76,0.01,0.94,0.006,0.146,9.796,0.0,-0.01,0.0
1777319076.9259923,-26.76,0.01,0.94,0.002,0.156,9.796,0.0,0.0,0.0
1777319076.9335299,-26.76,0.01,0.94,0.006,0.164,9.798,0.0,-0.01,0.0
1777319076.9428263,-26.76,0.01,0.94,0.0,0.168,9.798,-0.01,0.0,0.0
1777319076.9524393,-26.76,0.01,0.94,0.006,0.17,9.787,0.0,-0.01,-0.01
1777319076.9630625,-26.76,0.01,0.95,0.0,0.17,9.793,0.0,0.0,-0.01
1777319076.9724667,-26.76,0.01,0.95,-0.005,0.178,9.797,0.0,-0.01,-0.01
1777319076.983257,-26.75,0.01,0.95,0.001,0.165,9.799,-0.01,-0.01,-0.01
1777319076.9924376,-26.75,0.01,0.94,-0.01,0.159,9.803,0.0,-0.01,-0.01
1777319077.0024362,-26.75,0.01,0.94,0.0,0.158,9.787,-0.01,-0.01,-0.01
1777319077.0124319,-26.75,0.01,0.94,-0.001,0.139,9.792,0.0,0.0,-0.01
1777319077.0227804,-26.75,0.01,0.94,0.011,0.145,9.785,-0.01,-0.01,-0.01
1777319077.0324347,-26.75,0.01,0.94,0.02,0.135,9.78,0.0,0.0,0.0
1777319077.0424333,-26.75,0.01,0.94,0.012,0.148,9.788,0.0,-0.01,0.0
1777319077.0524278,-26.76,0.01,0.94,0.022,0.151,9.79,0.0,0.0,0.0
1777319077.062432,-26.76,0.02,0.95,0.001,0.165,9.796,0.0,-0.01,0.0
1777319077.0729988,-26.75,0.02,0.95,0.012,0.175,9.785,0.0,0.0,-0.01
1777319077.0824037,-26.75,0.02,0.95,0.001,0.189,9.79,-0.01,0.0,-0.01
1777319077.0929127,-26.75,0.01,0.95,-0.001,0.171,9.796,-0.01,-0.01,-0.01
1777319077.102447,-26.75,0.01,0.95,-0.006,0.175,9.798,-0.01,0.0,-0.01
1777319077.1124322,-26.75,0.01,0.95,-0.001,0.169,9.796,-0.01,0.0,0.0
1777319077.1299891,-26.75,0.01,0.94,-0.01,0.159,9.799,-0.01,-0.01,0.0
1777319077.1460462,-26.75,0.01,0.95,-0.006,0.17,9.785,-0.01,-0.01,0.0
1777319077.1499238,-26.75,0.01,0.94,-0.006,0.145,9.79,0.0,-0.01,-0.01
1777319077.153469,-26.74,0.01,0.94,-0.013,0.148,9.794,-0.01,-0.01,-0.01
1777319077.1671202,-26.74,0.01,0.94,0.001,0.131,9.787,0.0,0.0,-0.01
1777319077.1773553,-26.74,0.01,0.94,0.0,0.139,9.788,0.0,-0.01,-0.01
1777319077.1823444,-26.75,0.01,0.94,0.014,0.152,9.781,-0.01,-0.01,0.0
1777319077.192422,-26.75,0.01,0.94,0.006,0.16,9.788,0.0,-0.01,0.0
1777319077.2023172,-26.75,0.02,0.95,0.007,0.171,9.794,0.0,-0.01,0.0
1777319077.2129395,-26.75,0.02,0.95,0.001,0.182,9.799,-0.01,0.0,0.0
1777319077.2224057,-26.75,0.01,0.95,-0.002,0.172,9.79,0.0,0.0,-0.01
1777319077.2323732,-26.74,0.01,0.95,0.0,0.168,9.78,-0.01,0.0,-0.01
1777319077.2423878,-26.74,0.01,0.95,-0.017,0.156,9.782,-0.01,-0.01,-0.01
1777319077.2523687,-26.75,0.01,0.94,-0.017,0.153,9.79,-0.01,-0.01,0.0
1777319077.2624447,-26.75,0.01,0.94,-0.022,0.141,9.796,-0.01,-0.01,0.0
1777319077.2724042,-26.75,0.01,0.94,-0.014,0.152,9.786,0.0,-0.01,0.0
1777319077.2823956,-26.75,0.01,0.94,-0.01,0.152,9.784,-0.01,0.0,0.0
1777319077.292366,-26.75,0.01,0.94,0.01,0.151,9.778,0.0,-0.01,-0.01
1777319077.3023968,-26.74,0.01,0.94,0.004,0.154,9.782,0.0,0.0,-0.01
1777319077.3123426,-26.74,0.01,0.94,0.017,0.158,9.79,0.0,-0.01,-0.01
1777319077.3223214,-26.75,0.01,0.94,0.025,0.16,9.793,0.0,0.0,0.0
1777319077.332373,-26.75,0.02,0.95,0.014,0.176,9.797,0.0,-0.01,0.0
1777319077.3423865,-26.75,0.02,0.95,0.013,0.178,9.785,-0.01,0.0,0.0
1777319077.3523452,-26.75,0.02,0.95,0.0,0.174,9.791,0.0,-0.01,0.0
1777319077.3623197,-26.75,0.02,0.95,-0.002,0.174,9.796,-0.01,0.0,-0.01
1777319077.372333,-26.74,0.01,0.95,-0.016,0.165,9.798,-0.01,-0.01,-0.01
1777319077.38233,-26.74,0.01,0.95,-0.005,0.151,9.781,-0.01,0.0,-0.01
1777319077.3922956,-26.75,0.01,0.94,-0.012,0.146,9.787,0.0,-0.01,-0.01
1777319077.4023166,-26.75,0.01,0.94,0.0,0.145,9.794,-0.01,-0.01,0.0
1777319077.412329,-26.75,0.01,0.94,-0.001,0.156,9.796,0.0,-0.01,0.0
1777319077.4223132,-26.75,0.01,0.94,0.0,0.147,9.794,0.0,-0.01,0.0
1777319077.432312,-26.75,0.01,0.94,0.001,0.162,9.796,-0.01,-0.01,-0.01
1777319077.4423177,-26.75,0.01,0.94,0.013,0.153,9.796,0.0,-0.01,-0.01
1777319077.4522917,-26.75,0.01,0.94,0.013,0.158,9.799,0.0,0.0,-0.01
1777319077.4622965,-26.75,0.01,0.94,0.013,0.171,9.799,-0.01,0.0,-0.01
1777319077.4722903,-26.75,0.02,0.95,0.007,0.166,9.799,-0.01,0.0,0.0
1777319077.482311,-26.75,0.02,0.95,0.004,0.171,9.797,0.0,0.0,0.0
1777319077.4923334,-26.75,0.02,0.95,0.0,0.162,9.793,0.0,0.0,-0.01
1777319077.5023131,-26.75,0.01,0.94,-0.01,0.162,9.797,-0.01,0.0,-0.01
1777319077.5122786,-26.75,0.01,0.94,-0.007,0.148,9.799,0.0,0.0,-0.01
1777319077.5223331,-26.75,0.01,0.94,-0.016,0.146,9.802,0.0,0.0,-0.01
1777319077.532292,-26.75,0.01,0.94,-0.016,0.14,9.799,-0.01,-0.01,0.0
1777319077.5423012,-26.75,0.01,0.94,-0.01,0.147,9.794,0.0,0.0,0.0
1777319077.5523043,-26.75,0.01,0.94,-0.008,0.156,9.799,0.0,-0.01,0.0
1777319077.562312,-26.75,0.01,0.94,-0.005,0.165,9.8,-0.01,-0.01,0.0
1777319077.5722754,-26.75,0.01,0.94,0.0,0.165,9.803,0.0,-0.01,-0.01
1777319077.5823083,-26.75,0.02,0.95,0.007,0.18,9.793,-0.01,-0.01,-0.01
1777319077.5922933,-26.75,0.02,0.95,0.012,0.168,9.787,-0.01,0.0,-0.01
1777319077.6022806,-26.75,0.01,0.94,0.007,0.16,9.794,-0.01,-0.01,-0.01
1777319077.6122994,-26.75,0.02,0.95,0.011,0.171,9.796,-0.01,0.0,0.0
1777319077.6222968,-26.75,0.01,0.94,0.0,0.162,9.791,0.0,0.0,-0.01
1777319077.6322837,-26.74,0.01,0.94,0.0,0.158,9.776,-0.01,0.0,-0.01
1777319077.6423075,-26.74,0.01,0.94,-0.001,0.148,9.778,-0.01,0.0,-0.01
1777319077.6523075,-26.74,0.01,0.93,-0.018,0.143,9.786,0.0,-0.01,-0.01
1777319077.6623087,-26.74,0.01,0.94,-0.017,0.135,9.782,-0.01,-0.01,0.0
1777319077.672304,-26.74,0.01,0.93,-0.023,0.129,9.785,0.0,0.0,-0.01
1777319077.6822746,-26.74,0.01,0.93,-0.018,0.147,9.782,-0.01,-0.01,0.0
1777319077.6922708,-26.75,0.01,0.93,-0.017,0.143,9.779,0.0,0.0,0.0
1777319077.7022755,-26.75,0.01,0.93,-0.002,0.156,9.785,0.0,-0.01,0.0
1777319077.71228,-26.75,0.01,0.94,0.0,0.163,9.792,-0.01,0.0,0.0
1777319077.72231,-26.75,0.01,0.94,0.0,0.163,9.797,0.0,-0.01,0.0
1777319077.7323065,-26.75,0.01,0.94,0.006,0.162,9.788,-0.01,0.0,0.0
1777319077.7422447,-26.75,0.01,0.93,0.005,0.156,9.787,0.0,0.0,0.0
1777319077.7522688,-26.75,0.01,0.93,0.001,0.156,9.79,-0.01,0.0,-0.01
1777319077.7622733,-26.75,0.01,0.93,-0.002,0.145,9.791,0.0,-0.01,0.0
1777319077.7722807,-26.75,0.01,0.93,-0.001,0.146,9.787,-0.01,0.0,0.0
1777319077.7822695,-26.75,0.01,0.93,-0.008,0.15,9.792,-0.01,0.0,0.0
1777319077.7922711,-26.75,0.01,0.93,-0.011,0.148,9.792,0.0,-0.01,-0.01
1777319077.8022513,-26.75,0.01,0.93,-0.013,0.157,9.791,0.0,-0.01,-0.01
1777319077.8122566,-26.75,0.01,0.93,0.0,0.154,9.792,0.0,-0.01,-0.01
1777319077.822258,-26.75,0.01,0.93,0.005,0.159,9.797,0.0,0.0,-0.01
1777319077.8322613,-26.75,0.01,0.93,0.016,0.164,9.793,0.0,-0.01,0.0
1777319077.842296,-26.75,0.01,0.93,0.016,0.174,9.798,0.0,0.0,0.0
1777319077.8522694,-26.75,0.01,0.94,0.016,0.169,9.8,-0.01,0.0,0.0
1777319077.8622615,-26.75,0.01,0.94,0.01,0.169,9.793,0.0,0.0,-0.01
1777319077.8722737,-26.75,0.01,0.93,0.008,0.16,9.787,0.0,0.0,-0.01
1777319077.8823376,-26.75,0.01,0.93,0.004,0.163,9.793,-0.01,0.0,-0.01
1777319077.8922622,-26.75,0.01,0.93,0.004,0.146,9.791,0.0,0.0,-0.01
1777319077.9022703,-26.75,0.01,0.93,-0.007,0.159,9.797,-0.01,-0.01,0.0
1777319077.912264,-26.75,0.01,0.93,-0.002,0.152,9.8,-0.01,0.0,0.0
1777319077.9222739,-26.75,0.01,0.93,-0.007,0.154,9.799,0.0,-0.01,0.0
1777319077.9322698,-26.75,0.01,0.93,-0.004,0.159,9.792,-0.01,-0.01,0.0
1777319077.941409,-26.75,0.01,0.93,0.0,0.162,9.796,0.0,0.0,-0.01
1777319077.951384,-26.75,0.01,0.93,0.005,0.165,9.799,0.0,-0.01,-0.01
1777319077.9613967,-26.75,0.01,0.94,0.005,0.164,9.8,-0.01,-0.01,-0.01
1777319077.9722495,-26.75,0.01,0.94,0.011,0.172,9.804,-0.01,-0.01,0.0
1777319077.9822614,-26.75,0.01,0.94,0.011,0.177,9.805,0.0,-0.01,0.0
1777319077.9914057,-26.75,0.01,0.94,0.011,0.168,9.798,-0.01,0.0,0.0
1777319078.001395,-26.75,0.01,0.94,0.012,0.169,9.799,0.0,0.0,-0.01
1777319078.012264,-26.75,0.01,0.94,0.01,0.16,9.792,-0.01,0.0,-0.01
1777319078.0222611,-26.75,0.01,0.94,-0.002,0.156,9.787,-0.01,0.0,-0.01
1777319078.0313385,-26.75,0.01,0.94,-0.008,0.159,9.776,-0.01,0.0,-0.01
1777319078.041397,-26.75,0.01,0.93,-0.01,0.141,9.785,0.0,0.0,-0.01
1777319078.0514715,-26.75,0.01,0.93,-0.024,0.164,9.788,-0.01,-0.01,-0.01
1777319078.0613892,-26.75,0.01,0.93,-0.005,0.146,9.775,-0.01,0.0,-0.01
1777319078.0719516,-26.75,0.01,0.93,-0.017,0.154,9.786,0.0,-0.01,-0.01
1777319078.0823178,-26.75,0.01,0.93,0.007,0.157,9.786,-0.01,-0.01,0.0
1777319078.091401,-26.75,0.01,0.93,0.007,0.151,9.791,0.0,0.0,0.0
1777319078.1013842,-26.75,0.01,0.93,0.019,0.16,9.793,-0.01,-0.01,0.0
1777319078.1113696,-26.75,0.01,0.94,0.016,0.164,9.798,-0.01,0.0,0.0
1777319078.1213737,-26.75,0.01,0.93,0.019,0.166,9.8,0.0,0.0,-0.01
1777319078.131388,-26.75,0.01,0.94,0.008,0.172,9.803,-0.01,0.0,-0.01
1777319078.1413603,-26.75,0.01,0.94,0.0,0.16,9.802,0.0,0.0,-0.01
1777319078.151591,-26.75,0.01,0.93,-0.005,0.154,9.791,0.0,0.0,-0.01
1777319078.161364,-26.75,0.01,0.93,-0.017,0.151,9.781,0.0,0.0,-0.01
1777319078.1713605,-26.75,-0.0,0.93,-0.025,0.156,9.785,-0.01,0.0,0.0
1777319078.1813319,-26.75,-0.0,0.93,-0.019,0.159,9.786,0.0,-0.01,0.0
1777319078.1913705,-26.75,-0.0,0.93,-0.017,0.162,9.793,-0.01,-0.01,0.0
1777319078.2014112,-26.76,-0.0,0.93,-0.008,0.163,9.794,0.0,-0.01,0.0
1777319078.2113483,-26.76,0.01,0.94,0.004,0.16,9.788,0.0,-0.01,0.0
1777319078.2213368,-26.76,0.01,0.94,0.004,0.168,9.793,-0.01,-0.01,-0.01
1777319078.2321892,-26.76,0.01,0.94,0.018,0.171,9.792,0.0,-0.01,0.0
1777319078.2413838,-26.76,0.01,0.94,0.02,0.169,9.794,-0.01,0.0,0.0
1777319078.2518666,-26.76,0.01,0.94,0.013,0.165,9.797,0.0,-0.01,-0.01
1777319078.2613847,-26.76,0.01,0.94,0.013,0.17,9.79,-0.01,0.0,0.0
1777319078.2713654,-26.76,0.01,0.94,0.0,0.159,9.794,0.0,0.0,-0.01
1777319078.2813468,-26.75,0.01,0.94,-0.007,0.175,9.796,0.0,0.0,-0.01
1777319078.2913382,-26.75,0.0,0.94,-0.011,0.159,9.79,-0.01,0.0,-0.01
1777319078.3013563,-26.75,0.0,0.94,-0.02,0.158,9.793,-0.01,0.0,-0.01
1777319078.3113792,-26.75,-0.0,0.93,-0.016,0.154,9.79,-0.01,-0.01,-0.01
1777319078.3213897,-26.75,-0.0,0.93,-0.007,0.147,9.791,0.0,-0.01,-0.01
1777319078.3313825,-26.75,0.01,0.93,-0.001,0.154,9.793,0.0,-0.01,0.0
1777319078.341735,-26.75,0.01,0.94,0.007,0.153,9.793,-0.01,-0.01,0.0
1777319078.3518794,-26.75,0.01,0.93,0.006,0.153,9.798,0.0,-0.01,0.0
1777319078.3613358,-26.76,0.01,0.94,0.018,0.163,9.794,-0.01,-0.01,0.0
1777319078.3713536,-26.76,0.01,0.94,0.017,0.157,9.799,0.0,0.0,0.0
1777319078.3813384,-26.76,0.01,0.94,0.017,0.16,9.797,0.0,-0.01,0.0
1777319078.391368,-26.76,0.01,0.94,0.02,0.165,9.792,0.0,0.0,0.0
1777319078.4013474,-26.76,0.01,0.94,0.007,0.157,9.797,0.0,-0.01,-0.01
1777319078.4113538,-26.76,0.01,0.94,0.005,0.174,9.793,-0.01,0.0,-0.01
1777319078.421337,-26.75,0.01,0.94,-0.001,0.163,9.793,0.0,0.0,-0.01
1777319078.4313507,-26.75,0.01,0.94,-0.014,0.176,9.794,-0.01,-0.01,-0.01
1777319078.4413638,-26.75,0.01,0.94,-0.014,0.157,9.782,0.0,0.0,-0.01
1777319078.4514022,-26.75,0.01,0.93,-0.016,0.153,9.79,0.0,-0.01,-0.01
1777319078.4614115,-26.75,0.01,0.93,-0.004,0.148,9.796,-0.01,-0.01,0.0
1777319078.471348,-26.75,0.01,0.93,0.002,0.143,9.798,0.0,0.0,0.0
1777319078.4813051,-26.76,0.01,0.93,0.006,0.145,9.8,0.0,-0.01,0.0
1777319078.491346,-26.76,0.01,0.93,0.006,0.146,9.803,0.0,0.0,0.0
1777319078.501316,-26.75,0.01,0.93,0.007,0.153,9.806,0.0,0.0,-0.01
1777319078.5113575,-26.75,0.01,0.94,0.0,0.162,9.808,0.0,0.0,-0.01
1777319078.5213528,-26.75,0.01,0.94,0.0,0.166,9.8,0.0,-0.01,-0.01
1777319078.5313246,-26.76,0.01,0.94,-0.008,0.17,9.8,0.0,0.0,0.0
1777319078.5413716,-26.76,0.01,0.94,-0.013,0.175,9.798,-0.01,0.0,0.0
1777319078.5513446,-26.76,0.0,0.94,-0.017,0.171,9.799,-0.01,0.0,0.0
1777319078.56133,-26.75,0.0,0.94,-0.014,0.166,9.799,-0.01,0.0,-0.01
1777319078.5713236,-26.75,0.01,0.94,-0.011,0.151,9.791,-0.01,0.0,-0.01
1777319078.581344,-26.75,0.01,0.93,-0.018,0.153,9.793,-0.01,-0.01,-0.01
1777319078.5913396,-26.75,-0.0,0.93,-0.005,0.14,9.793,-0.01,-0.01,-0.01
1777319078.6013284,-26.75,0.01,0.93,-0.006,0.14,9.798,0.0,0.0,-0.01
1777319078.6113255,-26.75,0.01,0.93,-0.002,0.144,9.792,-0.01,-0.01,0.0
1777319078.6213968,-26.75,0.01,0.93,0.001,0.153,9.794,0.0,0.0,-0.01
1777319078.6313791,-26.75,0.01,0.93,0.008,0.159,9.792,-0.01,-0.01,0.0
1777319078.641357,-26.75,0.01,0.94,0.007,0.158,9.791,0.0,0.0,-0.01
1777319078.6513739,-26.75,0.01,0.93,0.004,0.162,9.797,0.0,-0.01,-0.01
1777319078.6613617,-26.75,0.01,0.94,0.011,0.162,9.786,-0.01,-0.01,0.0
1777319078.6713226,-26.75,0.01,0.94,0.006,0.156,9.792,0.0,0.0,0.0
1777319078.6813545,-26.75,0.01,0.93,0.0,0.159,9.796,-0.01,-0.01,0.0
1777319078.691329,-26.75,0.01,0.93,0.006,0.15,9.788,-0.01,0.0,-0.01
1777319078.7018075,-26.75,0.01,0.93,0.0,0.147,9.791,0.0,-0.01,-0.01
1777319078.7113328,-26.76,0.01,0.93,0.002,0.146,9.793,0.0,0.0,0.0
1777319078.7213166,-26.76,0.01,0.93,0.0,0.15,9.797,-0.01,-0.01,0.0
1777319078.7313478,-26.76,0.01,0.93,0.002,0.152,9.8,0.0,-0.01,0.0
1777319078.7413325,-26.76,0.01,0.93,0.001,0.153,9.802,0.0,-0.01,0.0
1777319078.7513494,-26.76,0.01,0.93,0.011,0.162,9.804,0.0,0.0,0.0
1777319078.7613506,-26.76,0.01,0.94,0.005,0.168,9.8,-0.01,-0.01,0.0
1777319078.7713544,-26.76,0.01,0.94,0.007,0.17,9.793,0.0,0.0,0.0
1777319078.7813368,-26.76,0.01,0.94,0.001,0.17,9.791,-0.01,-0.01,-0.01
1777319078.791363,-26.76,0.01,0.94,0.002,0.169,9.79,-0.01,0.0,-0.01
1777319078.8013165,-26.76,0.01,0.94,-0.01,0.165,9.794,0.0,0.0,0.0
1777319078.8113883,-26.76,0.01,0.94,-0.007,0.169,9.797,-0.01,0.0,0.0
1777319078.8213449,-26.76,0.01,0.94,-0.01,0.156,9.799,-0.01,0.0,-0.01
1777319078.8316545,-26.76,0.01,0.94,-0.005,0.158,9.797,0.0,0.0,-0.01
1777319078.8412836,-26.76,0.01,0.94,0.0,0.16,9.792,0.0,0.0,0.0
1777319078.85132,-26.76,0.01,0.94,0.0,0.159,9.797,0.0,-0.01,0.0
1777319078.8612995,-26.76,0.01,0.94,0.0,0.156,9.8,-0.01,-0.01,0.0
1777319078.8713715,-26.76,0.01,0.94,0.0,0.16,9.794,0.0,0.0,0.0
1777319078.881314,-26.76,0.01,0.94,-0.007,0.159,9.798,0.0,-0.01,-0.01
1777319078.8913057,-26.76,0.01,0.94,0.002,0.16,9.786,-0.01,-0.01,-0.01
1777319078.901307,-26.76,0.01,0.94,-0.002,0.163,9.792,0.0,-0.01,-0.01
1777319078.911302,-26.76,0.01,0.94,0.0,0.171,9.782,-0.01,0.0,-0.01
1777319078.9213557,-26.75,0.01,0.94,-0.012,0.158,9.788,0.0,0.0,-0.01
1777319078.9313288,-26.75,0.01,0.93,0.0,0.166,9.779,-0.01,-0.01,-0.01
1777319078.9413576,-26.75,0.01,0.94,0.0,0.146,9.78,-0.01,0.0,-0.01
1777319078.9513016,-26.75,0.01,0.93,0.0,0.151,9.788,0.0,-0.01,-0.01
1777319078.9612987,-26.76,0.01,0.93,-0.001,0.143,9.788,-0.01,0.0,0.0
1777319078.971322,-26.76,0.01,0.93,-0.006,0.143,9.793,0.0,-0.01,0.0
1777319078.98156,-26.76,0.01,0.93,0.004,0.152,9.791,-0.01,0.0,0.0
1777319078.9912949,-26.76,0.01,0.93,-0.005,0.148,9.796,0.0,-0.01,-0.01
1777319079.0012736,-26.76,0.01,0.93,0.005,0.158,9.791,0.0,0.0,-0.01
1777319079.0113237,-26.76,0.01,0.94,-0.004,0.162,9.793,0.0,0.0,-0.01
1777319079.021303,-26.76,0.01,0.94,0.002,0.168,9.791,0.0,0.0,-0.01
1777319079.0312908,-26.76,0.01,0.94,0.002,0.176,9.794,-0.01,-0.01,0.0
1777319079.0404427,-26.76,0.01,0.94,0.005,0.176,9.796,0.0,0.0,0.0
1777319079.0512896,-26.76,0.01,0.94,0.001,0.182,9.799,-0.01,0.0,0.0
1777319079.0612879,-26.76,0.01,0.94,0.0,0.17,9.8,-0.01,-0.01,-0.01
1777319079.0704417,-26.76,0.01,0.94,0.0,0.162,9.792,-0.01,0.0,-0.01
1777319079.0804398,-26.76,0.01,0.94,-0.005,0.159,9.79,-0.01,0.0,-0.01
1777319079.0904505,-26.76,0.01,0.93,-0.001,0.152,9.788,-0.01,0.0,-0.01
1777319079.1016824,-26.76,0.01,0.94,-0.001,0.157,9.786,0.0,0.0,-0.01
1777319079.1104639,-26.76,0.01,0.94,0.002,0.156,9.788,0.0,0.0,0.0
1777319079.120469,-26.76,0.01,0.94,-0.005,0.165,9.791,-0.01,0.0,-0.01
1777319079.1314645,-26.76,0.01,0.94,-0.001,0.163,9.791,0.0,-0.01,0.0
1777319079.1412587,-26.76,0.01,0.94,-0.004,0.16,9.796,0.0,-0.01,0.0
1777319079.1512713,-26.76,0.01,0.94,-0.001,0.159,9.793,-0.01,-0.01,-0.01
1777319079.1604202,-26.76,0.01,0.94,0.005,0.157,9.794,0.0,0.0,-0.01
1777319079.1704426,-26.76,0.01,0.94,0.008,0.154,9.798,-0.01,-0.01,-0.01
1777319079.1804166,-26.76,0.01,0.94,0.011,0.153,9.797,0.0,0.0,-0.01
1777319079.1904836,-26.76,0.01,0.94,0.014,0.157,9.798,0.0,-0.01,0.0
1777319079.2004313,-26.76,0.01,0.94,0.013,0.15,9.797,0.0,0.0,-0.01
1777319079.210435,-26.76,0.01,0.94,0.008,0.154,9.796,-0.01,0.0,-0.01
1777319079.2204375,-26.75,0.01,0.94,0.01,0.154,9.781,-0.01,0.0,-0.01
1777319079.2304223,-26.75,0.01,0.93,0.001,0.151,9.788,0.0,-0.01,-0.01
1777319079.2412536,-26.75,0.01,0.93,0.001,0.157,9.784,-0.01,-0.01,0.0
1777319079.2504215,-26.76,0.01,0.93,-0.005,0.146,9.79,0.0,0.0,0.0
1777319079.2604434,-26.76,0.01,0.93,-0.007,0.152,9.794,0.0,-0.01,0.0
1777319079.2704344,-26.76,0.01,0.93,0.001,0.158,9.79,-0.01,0.0,0.0
1777319079.2804377,-26.76,0.01,0.93,0.0,0.148,9.788,0.0,-0.01,-0.01
1777319079.2904124,-26.76,0.01,0.93,0.008,0.154,9.793,0.0,-0.01,-0.01
1777319079.300488,-26.76,0.01,0.93,0.01,0.157,9.797,0.0,0.0,-0.01
1777319079.3104057,-26.76,0.01,0.93,0.012,0.162,9.797,0.0,-0.01,0.0
1777319079.3204043,-26.76,0.01,0.94,0.008,0.164,9.79,0.0,0.0,0.0
1777319079.330375,-26.76,0.01,0.94,0.005,0.163,9.786,0.0,0.0,0.0
1777319079.3405046,-26.76,0.01,0.94,0.006,0.165,9.79,0.0,0.0,0.0
1777319079.3503726,-26.76,0.01,0.94,0.001,0.163,9.791,0.0,0.0,-0.01
1777319079.3603823,-26.76,0.01,0.94,-0.005,0.168,9.791,-0.01,-0.01,-0.01
1777319079.3704076,-26.76,0.01,0.94,-0.005,0.159,9.796,0.0,0.0,-0.01
1777319079.3803902,-26.76,0.01,0.94,-0.005,0.163,9.782,0.0,0.0,0.0
1777319079.3903587,-26.76,0.01,0.94,-0.011,0.157,9.786,0.0,-0.01,0.0
1777319079.400403,-26.76,0.01,0.94,-0.01,0.153,9.786,0.0,-0.01,0.0
1777319079.410364,-26.76,0.01,0.93,-0.007,0.156,9.792,0.0,0.0,0.0
1777319079.42036,-26.76,0.01,0.94,-0.006,0.154,9.797,0.0,-0.01,0.0
1777319079.4303463,-26.76,0.01,0.93,-0.001,0.16,9.797,0.0,-0.01,-0.01
1777319079.4404001,-26.76,0.01,0.94,0.0,0.153,9.786,-0.01,0.0,-0.01
1777319079.4503539,-26.76,0.01,0.93,0.0,0.154,9.793,0.0,-0.01,-0.01
1777319079.4603627,-26.76,0.01,0.93,-0.001,0.156,9.792,-0.01,0.0,0.0
1777319079.4703732,-26.76,0.01,0.93,-0.002,0.146,9.797,0.0,0.0,0.0
1777319079.4803607,-26.76,0.01,0.93,-0.001,0.152,9.793,-0.01,0.0,0.0
1777319079.490405,-26.76,0.01,0.93,-0.005,0.145,9.798,0.0,0.0,0.0
1777319079.5003653,-26.76,0.01,0.93,-0.002,0.15,9.8,-0.01,0.0,-0.01
1777319079.5103772,-26.76,0.01,0.93,-0.005,0.148,9.803,-0.01,0.0,-0.01
1777319079.5203638,-26.76,0.01,0.93,-0.002,0.152,9.799,0.0,0.0,-0.01
1777319079.5304441,-26.76,0.01,0.93,0.0,0.156,9.802,-0.01,0.0,-0.01
1777319079.5403965,-26.76,0.01,0.93,0.005,0.158,9.8,0.0,0.0,0.0
1777319079.550377,-26.76,0.01,0.93,0.005,0.158,9.802,-0.01,-0.01,0.0
1777319079.560492,-26.76,0.01,0.93,0.001,0.148,9.804,0.0,-0.01,0.0
1777319079.570376,-26.76,0.01,0.93,0.007,0.157,9.802,0.0,0.0,0.0
1777319079.5803473,-26.76,0.01,0.93,0.011,0.154,9.803,0.0,0.0,0.0
1777319079.5904636,-26.76,0.01,0.93,0.008,0.176,9.798,-0.01,0.0,-0.01
1777319079.6003878,-26.76,0.01,0.93,0.005,0.165,9.792,0.0,0.0,-0.01
1777319079.6105347,-26.76,0.01,0.93,-0.002,0.165,9.797,0.0,-0.01,-0.01
1777319079.6203787,-26.76,0.01,0.93,0.0,0.168,9.793,-0.01,-0.01,-0.01
1777319079.630335,-26.76,0.01,0.93,0.0,0.147,9.787,0.0,0.0,-0.01
1777319079.6403387,-26.76,0.01,0.93,0.001,0.159,9.784,-0.01,-0.01,0.0
1777319079.650385,-26.76,0.01,0.93,0.008,0.15,9.775,-0.01,0.0,0.0
1777319079.6603646,-26.76,0.01,0.93,0.008,0.146,9.779,0.0,-0.01,0.0
1777319079.6703477,-26.76,0.01,0.93,0.016,0.145,9.787,-0.01,-0.01,0.0
1777319079.6803713,-26.76,0.01,0.93,0.012,0.141,9.785,0.0,0.0,-0.01
1777319079.6903481,-26.76,0.01,0.93,0.005,0.147,9.79,0.0,-0.01,-0.01
1777319079.7003787,-26.76,0.01,0.93,-0.001,0.157,9.796,0.0,-0.01,0.0
1777319079.710352,-26.76,0.01,0.93,0.0,0.16,9.799,0.0,-0.01,0.0
1777319079.7203853,-26.76,0.01,0.93,0.0,0.164,9.799,0.0,-0.01,0.0
1777319079.7303636,-26.76,0.01,0.93,-0.001,0.163,9.791,0.0,-0.01,0.0
1777319079.7403688,-26.76,0.01,0.93,0.0,0.166,9.79,-0.01,-0.01,0.0
1777319079.7503529,-26.76,0.01,0.93,-0.001,0.165,9.796,-0.01,-0.01,0.0
1777319079.7603507,-26.76,0.01,0.93,0.005,0.157,9.797,0.0,-0.01,-0.01
1777319079.7703454,-26.77,0.01,0.93,0.006,0.152,9.792,-0.01,-0.01,0.0
1777319079.7803473,-26.77,0.01,0.93,0.008,0.146,9.796,0.0,0.0,0.0
1777319079.7903523,-26.77,0.01,0.93,0.002,0.145,9.798,0.0,0.0,-0.01
1777319079.8003137,-26.77,0.01,0.93,0.002,0.139,9.8,0.0,0.0,0.0
1777319079.81034,-26.77,0.01,0.93,-0.006,0.143,9.8,0.0,0.0,-0.01
1777319079.820406,-26.77,0.01,0.93,-0.005,0.152,9.802,-0.01,-0.01,0.0
1777319079.8303077,-26.77,0.01,0.93,-0.012,0.16,9.802,0.0,0.0,0.0
1777319079.8403513,-26.76,0.01,0.93,-0.007,0.172,9.8,0.0,0.0,0.0
1777319079.8503363,-26.76,0.01,0.93,-0.006,0.168,9.803,0.0,0.0,-0.01
1777319079.8603456,-26.76,0.01,0.93,-0.007,0.172,9.804,-0.01,-0.01,-0.01
1777319079.8703156,-26.76,0.01,0.93,0.004,0.159,9.792,-0.01,0.0,-0.01
1777319079.8803122,-26.76,0.01,0.93,-0.001,0.162,9.797,0.0,-0.01,-0.01
1777319079.8903983,-26.76,0.01,0.93,0.007,0.157,9.788,-0.01,0.0,-0.01
1777319079.900334,-26.77,0.01,0.93,-0.005,0.152,9.794,0.0,0.0,0.0
1777319079.9102967,-26.77,0.01,0.93,0.005,0.156,9.798,0.0,0.0,0.0
1777319079.9203484,-26.77,0.01,0.93,-0.004,0.153,9.798,-0.01,-0.01,0.0
1777319079.9303472,-26.76,0.01,0.93,0.0,0.156,9.79,0.0,-0.01,-0.01
1777319079.9403555,-26.76,0.01,0.93,-0.007,0.163,9.793,-0.01,0.0,-0.01
1777319079.950318,-26.76,0.01,0.93,-0.01,0.165,9.792,0.0,-0.01,0.0
1777319079.9602857,-26.76,0.01,0.93,-0.006,0.177,9.793,0.0,0.0,0.0
1777319079.9703321,-26.76,0.01,0.93,-0.005,0.17,9.794,0.0,0.0,0.0
1777319079.9803479,-26.76,0.01,0.93,-0.004,0.168,9.79,-0.01,-0.01,-0.01
1777319079.9903424,-26.76,0.01,0.93,0.0,0.152,9.793,-0.01,-0.01,-0.01
1777319080.0003202,-26.76,0.01,0.93,0.0,0.148,9.796,-0.01,0.0,-0.01
1777319080.0103061,-26.76,0.01,0.93,0.005,0.147,9.798,0.0,-0.01,0.0
1777319080.0202794,-26.76,0.01,0.93,0.005,0.143,9.797,-0.01,0.0,0.0
1777319080.0302918,-26.76,0.01,0.93,0.005,0.144,9.798,0.0,-0.01,-0.01
1777319080.0403092,-26.77,0.01,0.93,0.005,0.157,9.796,0.0,0.0,0.0
1777319080.050286,-26.76,0.01,0.93,-0.004,0.159,9.798,0.0,-0.01,0.0
1777319080.060307,-26.76,0.01,0.93,0.002,0.16,9.802,0.0,0.0,-0.01
1777319080.0703151,-26.76,0.01,0.93,-0.006,0.175,9.803,-0.01,-0.01,-0.01
1777319080.0802948,-26.76,0.01,0.94,0.007,0.158,9.792,-0.01,0.0,-0.01
1777319080.0902808,-26.76,0.01,0.93,-0.001,0.162,9.797,0.0,-0.01,-0.01
1777319080.1002774,-26.76,0.01,0.93,0.012,0.152,9.788,-0.01,-0.01,0.0
1777319080.1102974,-26.76,0.01,0.93,0.002,0.143,9.792,0.0,0.0,0.0
1777319080.1202621,-26.77,0.01,0.93,0.005,0.148,9.796,0.0,-0.01,0.0
1777319080.1294384,-26.77,0.01,0.93,0.005,0.147,9.797,-0.01,0.0,0.0
1777319080.1402977,-26.77,0.01,0.93,0.006,0.148,9.798,0.0,-0.01,-0.01
1777319080.1503623,-26.76,0.01,0.93,0.006,0.157,9.792,0.0,0.0,-0.01
1777319080.1594455,-26.76,0.01,0.93,0.002,0.158,9.787,0.0,0.0,-0.01
1777319080.17028,-26.77,0.01,0.93,-0.006,0.164,9.793,0.0,0.0,0.0
1777319080.179446,-26.76,0.01,0.93,-0.008,0.168,9.798,0.0,0.0,0.0
1777319080.1902966,-26.76,0.01,0.93,-0.017,0.172,9.793,-0.01,0.0,0.0
1777319080.1994703,-26.76,0.01,0.93,-0.018,0.18,9.798,-0.01,-0.01,0.0
1777319080.2094424,-26.76,0.01,0.93,-0.01,0.171,9.791,-0.01,-0.01,-0.01
1777319080.219465,-26.76,0.01,0.94,-0.002,0.181,9.791,-0.01,0.0,-0.01
1777319080.2294376,-26.76,0.01,0.93,0.002,0.158,9.796,0.0,-0.01,-0.01
1777319080.2394283,-26.76,0.01,0.93,0.007,0.174,9.796,-0.01,-0.01,-0.01
1777319080.2494457,-26.76,0.01,0.93,0.007,0.151,9.798,0.0,0.0,-0.01
1777319080.2594492,-26.76,0.01,0.93,0.001,0.158,9.802,-0.01,-0.01,0.0
1777319080.2694485,-26.76,0.01,0.93,0.011,0.151,9.794,-0.01,0.0,0.0
1777319080.2794418,-26.76,0.01,0.93,0.0,0.153,9.799,0.0,0.0,0.0
1777319080.289447,-26.76,0.01,0.93,0.0,0.154,9.793,0.0,0.0,0.0
1777319080.299482,-26.76,0.01,0.93,-0.007,0.153,9.785,0.0,0.0,-0.01
1777319080.3094466,-26.76,-0.0,0.93,-0.011,0.152,9.781,0.0,0.0,-0.01
1777319080.3194177,-26.76,-0.0,0.93,-0.014,0.156,9.781,0.0,0.0,-0.01
1777319080.3294616,-26.76,-0.0,0.93,-0.013,0.158,9.784,0.0,-0.01,0.0
1777319080.3394248,-26.76,-0.0,0.93,-0.013,0.162,9.791,0.0,-0.01,0.0
1777319080.3493996,-26.76,-0.0,0.93,-0.006,0.157,9.794,0.0,-0.01,0.0
1777319080.359404,-26.76,0.01,0.93,-0.007,0.157,9.796,-0.01,-0.01,0.0
1777319080.3694704,-26.76,0.01,0.93,-0.004,0.159,9.798,-0.01,-0.01,0.0
1777319080.3794346,-26.76,0.01,0.93,0.0,0.154,9.802,0.0,0.0,-0.01
1777319080.389411,-26.76,0.01,0.93,0.002,0.15,9.804,0.0,-0.01,-0.01
1777319080.3993979,-26.76,0.01,0.93,0.004,0.148,9.8,-0.01,0.0,-0.01
1777319080.4094265,-26.76,0.01,0.93,0.005,0.147,9.798,0.0,0.0,0.0
1777319080.4193826,-26.76,0.01,0.93,0.0,0.146,9.796,0.0,0.0,0.0
1777319080.429409,-26.76,0.01,0.93,-0.007,0.154,9.799,0.0,-0.01,0.0
1777319080.4395537,-26.76,0.01,0.93,-0.004,0.163,9.796,-0.01,-0.01,0.0
1777319080.4493816,-26.76,0.01,0.93,-0.008,0.157,9.796,0.0,0.0,-0.01
1777319080.459382,-26.76,-0.0,0.93,-0.008,0.163,9.787,-0.01,-0.01,-0.01
1777319080.469434,-26.76,0.01,0.93,-0.012,0.163,9.78,-0.01,0.0,-0.01
1777319080.479372,-26.76,0.01,0.93,-0.011,0.152,9.785,0.0,-0.01,-0.01
1777319080.4894114,-26.76,0.01,0.93,-0.014,0.165,9.787,-0.01,-0.01,-0.01
1777319080.4993932,-26.76,0.01,0.93,-0.005,0.152,9.786,-0.01,-0.01,0.0
1777319080.5093973,-26.77,0.0,0.93,-0.005,0.159,9.792,0.0,-0.01,-0.01
1777319080.5193923,-26.76,0.01,0.93,0.0,0.164,9.794,-0.01,-0.01,0.0
1777319080.5293493,-26.76,0.01,0.93,0.005,0.154,9.799,0.0,0.0,-0.01
1777319080.5393806,-26.76,0.01,0.93,0.0,0.164,9.802,0.0,-0.01,0.0
1777319080.5493429,-26.76,0.01,0.93,0.001,0.162,9.793,0.0,0.0,0.0
1777319080.559373,-26.76,-0.0,0.93,-0.001,0.165,9.794,0.0,0.0,0.0
1777319080.5693576,-26.76,-0.0,0.93,-0.001,0.165,9.793,0.0,0.0,-0.01
1777319080.5793962,-26.76,-0.0,0.93,-0.008,0.164,9.798,0.0,0.0,-0.01
1777319080.5893857,-26.76,-0.0,0.93,-0.012,0.163,9.8,-0.01,0.0,-0.01
1777319080.5993674,-26.76,-0.0,0.93,-0.01,0.166,9.797,-0.01,-0.01,0.0
1777319080.6093783,-26.76,-0.0,0.93,-0.008,0.164,9.793,-0.01,-0.01,0.0
1777319080.619378,-26.76,-0.0,0.93,-0.012,0.175,9.797,0.0,-0.01,-0.01
1777319080.629451,-26.76,-0.0,0.93,0.007,0.156,9.798,-0.01,-0.01,-0.01
1777319080.6393592,-26.76,0.01,0.93,-0.001,0.154,9.8,0.0,-0.01,-0.01
1777319080.6493547,-26.76,0.01,0.93,0.017,0.144,9.786,-0.01,-0.01,0.0
1777319080.659383,-26.76,0.01,0.93,0.005,0.139,9.792,0.0,0.0,-0.01
1777319080.6693838,-26.76,0.01,0.93,0.016,0.147,9.786,-0.01,-0.01,0.0
1777319080.679339,-26.76,0.01,0.93,0.0,0.139,9.793,0.0,0.0,0.0
1777319080.68937,-26.76,-0.0,0.93,0.011,0.148,9.791,0.0,0.0,0.0
1777319080.6993687,-26.76,0.01,0.93,-0.005,0.147,9.792,0.0,0.0,0.0
1777319080.709395,-26.76,-0.0,0.93,-0.008,0.153,9.785,0.0,-0.01,0.0
1777319080.7193701,-26.76,-0.0,0.93,-0.014,0.163,9.786,0.0,0.0,0.0
1777319080.7293673,-26.76,-0.0,0.93,-0.016,0.165,9.792,0.0,-0.01,-0.01
1777319080.7393534,-26.76,-0.0,0.93,-0.006,0.174,9.797,-0.01,0.0,0.0
1777319080.7493641,-26.76,-0.0,0.93,-0.004,0.162,9.8,0.0,-0.01,0.0
1777319080.7593637,-26.76,0.01,0.93,0.005,0.169,9.797,-0.01,-0.01,0.0
1777319080.7693734,-26.76,0.01,0.93,0.016,0.168,9.798,-0.01,-0.01,0.0
1777319080.7793322,-26.76,0.01,0.93,0.017,0.174,9.794,0.0,0.0,-0.01
1777319080.7893553,-26.76,0.01,0.93,0.014,0.157,9.799,0.0,-0.01,-0.01
1777319080.7993507,-26.76,0.01,0.93,0.022,0.16,9.793,-0.01,-0.01,-0.01
1777319080.8093865,-26.76,0.01,0.93,0.017,0.146,9.79,0.0,0.0,-0.01
1777319080.8193486,-26.76,0.01,0.93,0.004,0.156,9.791,0.0,-0.01,-0.01
1777319080.8293505,-26.76,0.01,0.93,0.012,0.16,9.779,-0.01,0.0,0.0
1777319080.8393812,-26.76,0.01,0.93,-0.005,0.147,9.787,0.0,0.0,0.0
1777319080.8493526,-26.76,0.01,0.93,0.0,0.165,9.792,-0.01,-0.01,0.0
1777319080.8593562,-26.76,0.01,0.93,-0.008,0.157,9.794,-0.01,0.0,0.0
1777319080.869346,-26.76,0.01,0.93,-0.002,0.166,9.791,0.0,0.0,-0.01
1777319080.8793445,-26.76,0.01,0.94,-0.017,0.169,9.79,-0.01,-0.01,-0.01
1777319080.8893402,-26.76,0.01,0.93,-0.008,0.157,9.793,0.0,-0.01,-0.01
1777319080.8993473,-26.76,0.01,0.94,-0.013,0.177,9.796,-0.01,-0.01,-0.01
1777319080.909333,-26.76,0.01,0.94,0.001,0.152,9.794,0.0,0.0,-0.01
1777319080.9193194,-26.76,0.01,0.93,0.001,0.17,9.798,-0.01,-0.01,0.0
1777319080.9293494,-26.76,0.01,0.94,0.013,0.151,9.788,-0.01,0.0,0.0
1777319080.9393506,-26.76,0.01,0.93,0.008,0.143,9.794,0.0,0.0,0.0
1777319080.94932,-26.76,0.01,0.93,0.028,0.151,9.788,-0.01,0.0,0.0
1777319080.9593494,-26.76,0.01,0.93,0.013,0.137,9.788,0.0,0.0,-0.01
1777319080.9693453,-26.76,0.01,0.93,0.017,0.141,9.779,0.0,-0.01,-0.01
1777319080.9793057,-26.76,0.01,0.93,0.006,0.147,9.78,0.0,0.0,0.0
1777319080.9893517,-26.76,0.01,0.93,0.001,0.15,9.781,0.0,-0.01,0.0
1777319080.9993258,-26.76,0.01,0.93,0.001,0.166,9.779,0.0,0.0,0.0
1777319081.009303,-26.76,0.01,0.94,-0.011,0.16,9.781,0.0,-0.01,-0.01
1777319081.019287,-26.76,0.01,0.93,0.0,0.184,9.773,-0.01,0.0,-0.01
1777319081.0293016,-26.76,0.01,0.94,-0.007,0.159,9.782,-0.01,-0.01,-0.01
1777319081.0392838,-26.76,0.01,0.93,0.0,0.157,9.779,0.0,-0.01,-0.01
1777319081.0493472,-26.76,0.01,0.93,0.002,0.153,9.784,-0.01,-0.01,0.0
1777319081.0593262,-26.76,0.01,0.93,0.011,0.15,9.784,0.0,-0.01,0.0
1777319081.0693004,-26.77,0.01,0.93,0.014,0.15,9.785,0.0,-0.01,0.0
1777319081.0793521,-26.77,0.01,0.93,0.012,0.15,9.788,0.0,-0.01,0.0
1777319081.089313,-26.76,0.01,0.94,0.008,0.156,9.788,0.0,0.0,-0.01
1777319081.0992916,-26.76,0.01,0.94,0.002,0.154,9.793,0.0,0.0,0.0
1777319081.109322,-26.76,0.01,0.94,-0.001,0.163,9.786,0.0,-0.01,0.0
1777319081.119299,-26.76,0.01,0.94,-0.012,0.16,9.788,-0.01,0.0,0.0
1777319081.1293154,-26.76,0.01,0.94,-0.014,0.169,9.788,0.0,-0.01,-0.01
1777319081.139274,-26.76,0.01,0.94,-0.011,0.164,9.793,-0.01,0.0,0.0
1777319081.1493173,-26.76,0.01,0.94,-0.014,0.157,9.798,0.0,-0.01,0.0
1777319081.1593037,-26.76,0.01,0.94,-0.006,0.152,9.796,0.0,-0.01,-0.01
1777319081.1692958,-26.76,0.01,0.93,0.0,0.159,9.791,-0.01,-0.01,-0.01
1777319081.1792881,-26.76,0.01,0.94,0.0,0.153,9.79,-0.01,0.0,-0.01
1777319081.1892922,-26.76,0.01,0.94,0.002,0.15,9.796,0.0,-0.01,-0.01
1777319081.19931,-26.76,0.01,0.93,0.014,0.15,9.794,0.0,0.0,-0.01
1777319081.209279,-26.76,0.01,0.94,0.013,0.152,9.792,-0.01,0.0,0.0
1777319081.2184737,-26.76,0.01,0.94,0.004,0.154,9.788,0.0,-0.01,0.0
1777319081.2292824,-26.76,0.01,0.94,0.006,0.165,9.794,0.0,0.0,0.0
1777319081.2394388,-26.76,0.01,0.94,-0.001,0.166,9.798,-0.01,0.0,-0.01
1777319081.2492785,-26.76,0.01,0.94,-0.011,0.174,9.798,-0.01,0.0,-0.01
1777319081.2584465,-26.76,0.0,0.94,-0.011,0.168,9.792,0.0,0.0,-0.01
1777319081.2684476,-26.76,0.01,0.94,-0.013,0.169,9.787,-0.01,0.0,-0.01
1777319081.2784472,-26.76,0.0,0.94,-0.007,0.164,9.782,-0.01,-0.01,-0.01
1777319081.28847,-26.76,0.01,0.94,-0.01,0.159,9.784,0.0,-0.01,-0.01
1777319081.2984436,-26.76,0.01,0.94,-0.01,0.148,9.791,-0.01,-0.01,0.0
1777319081.3084714,-26.76,0.01,0.94,-0.008,0.145,9.792,0.0,0.0,0.0
1777319081.3184335,-26.76,0.01,0.94,-0.004,0.145,9.793,0.0,0.0,0.0
1777319081.3292828,-26.76,0.01,0.94,-0.001,0.164,9.792,0.0,-0.01,-0.01
1777319081.3387663,-26.76,0.01,0.94,0.001,0.159,9.796,-0.01,0.0,-0.01
1777319081.3484378,-26.76,0.01,0.94,0.001,0.168,9.796,0.0,0.0,-0.01
1777319081.358463,-26.76,0.01,0.94,0.007,0.17,9.797,-0.01,0.0,0.0
1777319081.3684752,-26.76,0.01,0.94,0.005,0.17,9.796,-0.01,0.0,0.0
1777319081.3784246,-26.76,0.01,0.94,0.004,0.171,9.797,-0.01,0.0,0.0
1777319081.3884435,-26.76,0.01,0.94,0.004,0.171,9.796,-0.01,-0.01,0.0
1777319081.398458,-26.76,0.01,0.94,0.002,0.169,9.797,-0.01,0.0,-0.01
1777319081.4084604,-26.76,0.01,0.94,-0.002,0.157,9.798,-0.01,0.0,-0.01
1777319081.418475,-26.76,0.01,0.94,0.005,0.15,9.788,-0.01,0.0,-0.01
1777319081.4284508,-26.76,0.01,0.94,-0.004,0.154,9.79,-0.01,0.0,-0.01
1777319081.4384344,-26.76,0.01,0.94,-0.004,0.145,9.794,0.0,-0.01,-0.01
1777319081.448731,-26.76,0.01,0.93,-0.006,0.154,9.799,0.0,0.0,0.0
1777319081.4584043,-26.76,0.01,0.94,-0.008,0.156,9.796,-0.01,-0.01,0.0
1777319081.4684126,-26.76,0.01,0.94,-0.005,0.166,9.798,0.0,0.0,0.0
1777319081.4784243,-26.76,0.01,0.94,-0.006,0.169,9.793,-0.01,-0.01,-0.01
1777319081.4884133,-26.76,0.01,0.94,0.001,0.166,9.794,0.0,0.0,-0.01
1777319081.498388,-26.76,0.01,0.94,0.0,0.168,9.799,0.0,-0.01,-0.01
1777319081.5084245,-26.76,0.01,0.94,0.005,0.165,9.794,0.0,0.0,-0.01
1777319081.5184047,-26.76,0.01,0.94,0.008,0.169,9.791,-0.01,0.0,0.0
1777319081.5283947,-26.76,0.01,0.94,0.002,0.17,9.791,0.0,0.0,-0.01
1777319081.5383725,-26.76,0.01,0.94,0.014,0.166,9.785,-0.01,-0.01,0.0
1777319081.54841,-26.76,0.01,0.94,0.002,0.159,9.792,-0.01,0.0,-0.01
1777319081.5583925,-26.76,0.01,0.94,0.0,0.152,9.793,0.0,0.0,-0.01
1777319081.568391,-26.76,0.01,0.94,-0.008,0.154,9.79,0.0,0.0,0.0
1777319081.5783947,-26.76,0.0,0.94,-0.004,0.169,9.776,0.0,-0.01,0.0
1777319081.588375,-26.76,0.01,0.95,-0.002,0.164,9.785,0.0,-0.01,-0.01
1777319081.5983698,-26.76,0.01,0.94,-0.007,0.172,9.791,0.0,-0.01,-0.01
1777319081.608382,-26.75,0.01,0.95,0.006,0.163,9.78,-0.01,0.0,-0.01
1777319081.6189466,-26.75,0.01,0.94,0.002,0.159,9.787,0.0,-0.01,-0.01
1777319081.6283967,-26.76,0.01,0.94,0.016,0.162,9.781,-0.01,-0.01,0.0
1777319081.6383672,-26.76,0.01,0.94,0.012,0.15,9.785,0.0,0.0,0.0
1777319081.6485376,-26.76,0.01,0.94,0.012,0.158,9.787,0.0,-0.01,0.0
1777319081.6584003,-26.76,0.02,0.95,0.014,0.154,9.793,-0.01,0.0,0.0
1777319081.6683586,-26.76,0.01,0.94,0.016,0.157,9.798,0.0,0.0,-0.01
1777319081.6783383,-26.76,0.01,0.94,0.006,0.156,9.788,-0.01,0.0,-0.01
1777319081.6883845,-26.76,0.01,0.94,0.0,0.152,9.784,0.0,0.0,-0.01
1777319081.6983767,-26.76,0.01,0.94,-0.005,0.159,9.79,0.0,0.0,-0.01
1777319081.708344,-26.76,0.01,0.94,-0.008,0.156,9.788,-0.01,-0.01,0.0
1777319081.7183874,-26.76,0.01,0.94,-0.014,0.165,9.78,0.0,0.0,0.0
1777319081.728408,-26.76,0.01,0.94,-0.018,0.164,9.786,-0.01,-0.01,0.0
1777319081.7383833,-26.76,0.01,0.94,-0.019,0.159,9.792,-0.01,-0.01,0.0
1777319081.7483983,-26.76,0.01,0.94,-0.006,0.159,9.796,0.0,-0.01,0.0
1777319081.758403,-26.76,0.01,0.94,-0.002,0.154,9.796,0.0,-0.01,-0.01
1777319081.7683494,-26.76,0.01,0.94,0.001,0.159,9.792,0.0,0.0,-0.01
1777319081.7783375,-26.76,0.01,0.94,0.007,0.159,9.796,0.0,-0.01,-0.01
1777319081.7883928,-26.75,0.01,0.95,0.008,0.165,9.799,-0.01,0.0,-0.01
1777319081.798363,-26.75,0.01,0.94,0.008,0.159,9.8,0.0,0.0,-0.01
1777319081.8083494,-26.75,0.01,0.94,0.008,0.159,9.786,-0.01,0.0,-0.01
1777319081.8183486,-26.75,0.01,0.94,0.004,0.15,9.786,-0.01,0.0,-0.01
1777319081.828501,-26.76,0.01,0.94,0.004,0.152,9.774,0.0,0.0,0.0
1777319081.8383486,-26.76,0.01,0.94,-0.012,0.141,9.784,0.0,-0.01,0.0
1777319081.8483667,-26.76,0.01,0.94,-0.002,0.152,9.786,-0.01,-0.01,-0.01
1777319081.8583977,-26.76,0.01,0.94,-0.006,0.15,9.79,0.0,0.0,0.0
1777319081.8683722,-26.76,0.01,0.94,0.0,0.152,9.78,0.0,-0.01,0.0
1777319081.878376,-26.76,0.01,0.94,-0.006,0.156,9.784,-0.01,-0.01,-0.01
1777319081.8883677,-26.76,0.01,0.94,-0.004,0.156,9.791,0.0,-0.01,-0.01
1777319081.8983448,-26.76,0.01,0.94,0.002,0.164,9.794,-0.01,-0.01,0.0
1777319081.9083538,-26.76,0.01,0.94,0.011,0.157,9.796,0.0,-0.01,0.0
1777319081.9183657,-26.76,0.01,0.94,0.014,0.169,9.791,-0.01,0.0,0.0
1777319081.928353,-26.76,0.02,0.95,0.019,0.158,9.796,0.0,0.0,0.0
1777319081.938334,-26.76,0.01,0.94,0.017,0.165,9.799,0.0,-0.01,-0.01
1777319081.9483542,-26.76,0.02,0.95,0.017,0.157,9.798,-0.01,0.0,-0.01
1777319081.9628046,-26.76,0.01,0.94,0.007,0.156,9.8,0.0,0.0,-0.01
1777319082.0028405,-26.76,0.01,0.94,0.002,0.15,9.786,-0.01,0.0,0.0
1777319082.0041964,-26.76,0.01,0.94,-0.001,0.154,9.792,0.0,0.0,0.0
1777319082.0055785,-26.76,0.01,0.94,-0.005,0.156,9.786,-0.01,-0.01,0.0
1777319082.0069754,-26.76,0.01,0.94,-0.013,0.153,9.784,0.0,0.0,-0.01
1777319082.0083606,-26.76,0.01,0.94,-0.013,0.158,9.791,0.0,-0.01,-0.01
1777319082.0183334,-26.76,0.01,0.94,-0.006,0.157,9.785,-0.01,-0.01,-0.01
1777319082.0648248,-26.76,0.01,0.94,-0.002,0.148,9.786,0.0,0.0,-0.01
1777319082.0887673,-26.76,0.01,0.94,-0.006,0.158,9.792,-0.01,-0.01,0.0
1777319082.0905414,-26.76,0.01,0.94,0.004,0.152,9.797,0.0,-0.01,0.0
1777319082.0938563,-26.76,0.01,0.94,0.001,0.168,9.788,0.0,0.0,0.0
1777319082.0952642,-26.76,0.01,0.94,0.011,0.156,9.782,0.0,-0.01,-0.01
1777319082.0978482,-26.76,0.01,0.94,0.002,0.162,9.785,0.0,0.0,-0.01
1777319082.100388,-26.76,0.01,0.94,0.007,0.146,9.788,-0.01,-0.01,-0.01
1777319082.1023316,-26.76,0.01,0.94,-0.007,0.146,9.793,0.0,0.0,-0.01
1777319082.1083658,-26.76,0.01,0.94,-0.004,0.147,9.788,-0.01,0.0,0.0
1777319082.1183047,-26.76,0.01,0.94,-0.014,0.148,9.784,0.0,0.0,0.0
1777319082.1283448,-26.76,0.01,0.94,-0.008,0.154,9.786,0.0,-0.01,0.0
1777319082.1383502,-26.76,0.01,0.94,-0.013,0.16,9.792,0.0,0.0,0.0
1777319082.148302,-26.76,0.01,0.94,-0.006,0.163,9.794,0.0,-0.01,-0.01
1777319082.1583457,-26.76,0.01,0.94,-0.004,0.165,9.794,0.0,0.0,-0.01
1777319082.1683128,-26.76,0.01,0.94,0.0,0.174,9.791,0.0,-0.01,-0.01
1777319082.1783266,-26.76,0.02,0.95,0.017,0.174,9.78,-0.01,0.0,-0.01
1777319082.1883042,-26.76,0.02,0.95,-0.004,0.174,9.787,0.0,-0.01,-0.01
1777319082.1983507,-26.76,0.01,0.94,0.013,0.165,9.788,-0.01,-0.01,0.0
1777319082.208292,-26.76,0.01,0.94,-0.005,0.152,9.794,-0.01,0.0,-0.01
1777319082.2182808,-26.76,0.01,0.94,0.005,0.162,9.779,-0.01,-0.01,-0.01
1777319082.2283206,-26.76,0.01,0.94,0.004,0.148,9.773,-0.01,0.0,0.0
1777319082.2382953,-26.76,0.01,0.94,0.0,0.147,9.782,0.0,-0.01,-0.01
1777319082.2482803,-26.76,0.01,0.94,0.004,0.153,9.785,-0.01,0.0,0.0
1777319082.257467,-26.76,0.01,0.94,-0.023,0.156,9.788,0.0,-0.01,-0.01
1777319082.2682617,-26.75,0.01,0.94,-0.053,0.194,9.78,-0.01,-0.01,-0.01
1777319082.2782774,-26.74,0.01,0.94,-0.063,0.199,9.768,-0.01,-0.01,-0.01
1777319082.2882848,-26.74,0.01,0.94,-0.056,0.187,9.778,-0.01,-0.01,-0.01
1777319082.2982957,-26.74,0.02,0.94,-0.044,0.177,9.786,-0.01,-0.01,-0.01
1777319082.3082979,-26.74,0.03,0.93,-0.02,0.162,9.79,-0.01,-0.01,-0.01
1777319082.3182778,-26.74,0.03,0.93,0.018,0.146,9.788,-0.01,-0.01,0.0
1777319082.3282938,-26.74,0.05,0.92,0.044,0.139,9.794,-0.01,-0.01,0.0
1777319082.3382638,-26.75,0.05,0.92,0.067,0.132,9.798,-0.01,-0.01,0.0
1777319082.3482862,-26.75,0.05,0.91,0.08,0.128,9.802,0.0,0.0,0.0
1777319082.3582613,-26.74,0.05,0.92,0.074,0.129,9.799,0.0,0.0,-0.01
1777319082.3677278,-26.74,0.05,0.92,0.06,0.14,9.799,0.0,0.0,-0.01
1777319082.3782866,-26.74,0.04,0.93,0.038,0.148,9.794,0.0,0.0,-0.01
1777319082.387673,-26.74,0.03,0.93,0.008,0.162,9.794,0.0,0.0,-0.01
1777319082.3982735,-26.74,0.03,0.93,-0.019,0.18,9.793,0.0,0.0,0.0
1777319082.4074302,-26.74,0.02,0.94,-0.051,0.187,9.794,0.0,0.0,0.0
1777319082.4174519,-26.74,0.01,0.94,-0.069,0.198,9.786,0.0,0.0,0.0
1777319082.4274406,-26.74,0.01,0.94,-0.08,0.198,9.792,-0.01,-0.01,-0.01
1777319082.4376445,-26.74,0.01,0.94,-0.066,0.186,9.787,-0.01,-0.01,-0.01
1777319082.4474235,-26.74,0.01,0.93,-0.051,0.168,9.786,-0.01,-0.01,-0.01
1777319082.4582646,-26.74,0.02,0.93,-0.024,0.164,9.784,-0.01,-0.01,-0.01
1777319082.467454,-26.74,0.03,0.93,-0.002,0.156,9.791,-0.01,-0.01,0.0
1777319082.4776294,-26.74,0.03,0.93,0.026,0.153,9.787,0.0,-0.01,0.0
1777319082.4875681,-26.74,0.03,0.93,0.032,0.154,9.793,0.0,-0.01,0.0
1777319082.4974673,-26.74,0.03,0.93,0.043,0.162,9.796,0.0,-0.01,0.0
1777319082.5074248,-26.74,0.04,0.94,0.041,0.174,9.798,0.0,0.0,0.0
1777319082.517426,-26.74,0.03,0.94,0.028,0.175,9.798,0.0,0.0,0.0
1777319082.5274498,-26.74,0.03,0.94,0.019,0.195,9.793,0.0,0.0,-0.01
1777319082.5374258,-26.74,0.02,0.94,-0.005,0.178,9.796,-0.01,0.0,-0.01
1777319082.5474043,-26.74,0.02,0.95,-0.019,0.172,9.787,0.0,0.0,-0.01
1777319082.557545,-26.74,0.02,0.95,-0.038,0.17,9.786,-0.01,0.0,-0.01
1777319082.5674238,-26.74,0.01,0.94,-0.044,0.165,9.782,-0.01,0.0,-0.01
1777319082.5774221,-26.74,0.01,0.94,-0.049,0.151,9.781,-0.01,0.0,0.0
1777319082.5874276,-26.74,0.01,0.93,-0.041,0.14,9.787,-0.01,-0.01,0.0
1777319082.5974474,-26.74,0.01,0.93,-0.024,0.14,9.791,-0.01,-0.01,-0.01
1777319082.6076667,-26.74,0.02,0.93,-0.005,0.139,9.793,0.0,-0.01,-0.01
1777319082.6175294,-26.74,0.02,0.93,0.01,0.143,9.792,0.0,-0.01,0.0
1777319082.6280668,-26.74,0.03,0.94,0.02,0.146,9.796,-0.01,-0.01,0.0
1777319082.6374617,-26.74,0.03,0.94,0.025,0.15,9.797,0.0,0.0,0.0
1777319082.6477702,-26.74,0.03,0.94,0.026,0.162,9.8,0.0,-0.01,0.0
1777319082.657773,-26.74,0.02,0.94,0.024,0.176,9.8,0.0,0.0,0.0
1777319082.667438,-26.74,0.02,0.94,0.02,0.182,9.798,0.0,0.0,-0.01
1777319082.6773775,-26.74,0.02,0.94,0.0,0.177,9.794,-0.01,0.0,-0.01
1777319082.6873813,-26.74,0.01,0.94,-0.008,0.17,9.786,0.0,0.0,-0.01
1777319082.6973722,-26.74,0.01,0.94,-0.024,0.157,9.786,-0.01,0.0,-0.01
1777319082.7073889,-26.74,0.01,0.94,-0.029,0.151,9.786,-0.01,-0.01,-0.01
1777319082.7174218,-26.74,0.01,0.93,-0.029,0.146,9.786,-0.01,0.0,-0.01
1777319082.7277043,-26.74,0.01,0.93,-0.03,0.141,9.792,0.0,-0.01,0.0
1777319082.737432,-26.74,0.01,0.93,-0.023,0.146,9.792,0.0,-0.01,0.0
1777319082.747394,-26.74,0.01,0.93,-0.016,0.146,9.797,0.0,-0.01,0.0
1777319082.7573588,-26.74,0.01,0.93,-0.006,0.159,9.8,0.0,-0.01,-0.01
1777319082.7673538,-26.74,0.01,0.94,0.001,0.168,9.8,0.0,-0.01,-0.01
1777319082.777536,-26.74,0.01,0.94,0.012,0.174,9.8,0.0,-0.01,-0.01
1777319082.7873623,-26.74,0.01,0.94,0.012,0.181,9.794,0.0,0.0,0.0
1777319082.7973957,-26.74,0.01,0.94,0.011,0.178,9.799,0.0,0.0,0.0
1777319082.8073773,-26.74,0.01,0.94,0.006,0.182,9.8,0.0,0.0,-0.01
1777319082.817343,-26.74,0.01,0.94,-0.002,0.17,9.803,-0.01,0.0,-0.01
1777319082.82739,-26.74,0.01,0.94,-0.008,0.166,9.805,0.0,0.0,-0.01
1777319082.8373914,-26.74,0.01,0.94,-0.019,0.158,9.804,-0.01,0.0,-0.01
1777319082.8473454,-26.74,0.0,0.94,-0.031,0.151,9.8,0.0,0.0,-0.01
1777319082.8573945,-26.74,0.0,0.94,-0.026,0.15,9.797,0.0,0.0,-0.01
1777319082.8673472,-26.74,0.0,0.94,-0.026,0.151,9.796,0.0,-0.01,0.0
1777319082.877389,-26.74,0.0,0.94,-0.016,0.163,9.793,0.0,-0.01,0.0
1777319082.887487,-26.74,0.01,0.94,-0.011,0.168,9.796,0.0,-0.01,0.0
1777319082.8975718,-26.74,0.01,0.94,-0.004,0.171,9.798,0.0,-0.01,0.0
1777319082.9073496,-26.74,0.01,0.95,0.002,0.171,9.794,-0.01,-0.01,-0.01
1777319082.9173417,-26.74,0.01,0.95,0.007,0.169,9.793,0.0,-0.01,-0.01
1777319082.9273489,-26.74,0.01,0.95,0.016,0.174,9.792,-0.01,0.0,-0.01
1777319082.9373786,-26.74,0.01,0.95,0.008,0.164,9.797,-0.01,0.0,-0.01
1777319082.9473596,-26.74,0.01,0.94,0.011,0.163,9.79,-0.01,0.0,-0.01
1777319082.9573615,-26.74,0.01,0.94,0.005,0.158,9.788,-0.01,0.0,0.0
1777319082.967917,-26.74,0.01,0.94,-0.001,0.162,9.776,0.0,0.0,0.0
1777319082.9773717,-26.74,0.0,0.94,-0.008,0.163,9.775,0.0,0.0,0.0
1777319082.9873393,-26.74,0.0,0.94,-0.018,0.159,9.78,0.0,-0.01,-0.01
1777319082.9973469,-26.74,0.0,0.94,-0.022,0.157,9.78,0.0,0.0,-0.01
1777319083.007359,-26.74,0.0,0.94,-0.023,0.156,9.784,0.0,-0.01,0.0
1777319083.0173488,-26.74,0.0,0.94,-0.018,0.168,9.786,-0.01,0.0,0.0
1777319083.027356,-26.74,0.0,0.95,-0.014,0.165,9.788,0.0,-0.01,0.0
1777319083.0373313,-26.74,0.0,0.95,-0.006,0.172,9.791,0.0,-0.01,0.0
1777319083.0473325,-26.74,0.0,0.95,0.002,0.175,9.796,-0.01,-0.01,-0.01
1777319083.057357,-26.74,0.0,0.95,0.007,0.169,9.794,0.0,-0.01,-0.01
1777319083.0673544,-26.74,0.01,0.95,0.016,0.17,9.791,-0.01,0.0,-0.01
1777319083.0773418,-26.74,0.01,0.95,0.007,0.158,9.788,0.0,0.0,-0.01
1777319083.0874035,-26.74,0.0,0.95,0.0,0.152,9.794,0.0,0.0,-0.01
1777319083.097346,-26.74,0.0,0.94,-0.002,0.147,9.798,0.0,0.0,0.0
1777319083.1074324,-26.74,0.0,0.94,-0.016,0.146,9.796,0.0,0.0,0.0
1777319083.117313,-26.74,0.0,0.94,-0.024,0.153,9.796,0.0,-0.01,0.0
1777319083.1272998,-26.74,0.0,0.94,-0.018,0.162,9.796,0.0,0.0,-0.01
1777319083.1373465,-26.74,0.0,0.95,-0.013,0.166,9.796,0.0,0.0,-0.01
1777319083.1473718,-26.74,0.0,0.95,-0.007,0.169,9.794,0.0,-0.01,-0.01
1777319083.1573548,-26.74,0.0,0.95,-0.01,0.168,9.799,-0.01,-0.01,-0.01
1777319083.1673462,-26.74,0.0,0.95,0.0,0.17,9.802,-0.01,-0.01,0.0
1777319083.1773586,-26.74,0.0,0.95,0.004,0.17,9.803,-0.01,-0.01,0.0
1777319083.1872957,-26.74,0.0,0.95,0.007,0.171,9.805,-0.01,-0.01,0.0
1777319083.1973515,-26.74,0.0,0.95,0.011,0.163,9.804,-0.01,0.0,-0.01
1777319083.2073283,-26.74,0.0,0.95,0.01,0.157,9.805,0.0,0.0,-0.01
1777319083.217312,-26.74,0.0,0.95,0.014,0.157,9.798,0.0,0.0,-0.01
1777319083.2273502,-26.74,0.0,0.95,0.014,0.148,9.798,0.0,0.0,-0.01
1777319083.2373266,-26.74,0.0,0.95,0.004,0.152,9.797,0.0,0.0,-0.01
1777319083.2476137,-26.74,0.0,0.95,-0.005,0.153,9.8,0.0,0.0,0.0
1777319083.257603,-26.74,0.0,0.95,-0.008,0.16,9.799,0.0,0.0,0.0
1777319083.2673566,-26.74,0.0,0.95,-0.013,0.163,9.794,0.0,-0.01,0.0
1777319083.2773197,-26.74,-0.0,0.95,-0.012,0.17,9.786,0.0,0.0,0.0
1777319083.287311,-26.74,-0.0,0.95,-0.011,0.168,9.791,0.0,0.0,-0.01
1777319083.2972994,-26.74,-0.0,0.95,-0.014,0.165,9.797,0.0,-0.01,-0.01
1777319083.307304,-26.74,-0.0,0.95,-0.004,0.162,9.794,-0.01,-0.01,0.0
1777319083.3164268,-26.74,0.0,0.95,0.0,0.163,9.793,0.0,-0.01,0.0
1777319083.3273184,-26.74,0.0,0.95,0.008,0.164,9.792,-0.01,-0.01,0.0
1777319083.3374221,-26.74,0.0,0.95,0.014,0.162,9.788,0.0,0.0,0.0
1777319083.3472924,-26.74,0.0,0.95,0.011,0.152,9.794,-0.01,-0.01,-0.01
1777319083.3564415,-26.74,0.0,0.95,0.011,0.15,9.796,0.0,-0.01,-0.01
1777319083.367305,-26.74,0.0,0.95,0.006,0.147,9.796,0.0,-0.01,-0.01
1777319083.3764641,-26.74,0.0,0.94,0.002,0.152,9.787,0.0,0.0,0.0
1777319083.3873024,-26.74,0.0,0.95,0.0,0.16,9.793,0.0,0.0,0.0
1777319083.3964717,-26.74,0.0,0.95,0.0,0.162,9.792,0.0,-0.01,0.0
1777319083.4072886,-26.74,0.0,0.95,0.001,0.159,9.791,0.0,0.0,0.0
1777319083.4172654,-26.74,0.0,0.95,-0.004,0.158,9.797,0.0,-0.01,-0.01
1777319083.4266865,-26.74,0.0,0.95,-0.002,0.157,9.792,0.0,0.0,-0.01
1777319083.4364445,-26.74,0.0,0.95,-0.007,0.152,9.791,-0.01,-0.01,-0.01
1777319083.4464436,-26.74,0.0,0.94,-0.006,0.164,9.79,-0.01,-0.01,0.0
1777319083.456447,-26.74,0.0,0.95,-0.007,0.16,9.787,-0.01,-0.01,0.0
1777319083.4672732,-26.74,0.0,0.94,-0.004,0.158,9.792,0.0,-0.01,0.0
1777319083.4764423,-26.74,0.0,0.95,-0.01,0.159,9.796,-0.01,0.0,-0.01
1777319083.4864426,-26.74,0.0,0.94,-0.011,0.159,9.791,0.0,-0.01,-0.01
1777319083.4974458,-26.74,0.0,0.95,-0.004,0.157,9.794,0.0,0.0,-0.01
1777319083.5064478,-26.74,0.0,0.94,-0.006,0.148,9.798,0.0,-0.01,0.0
1777319083.5174363,-26.74,-0.01,0.94,-0.002,0.154,9.799,-0.01,0.0,0.0
1777319083.5268018,-26.74,-0.01,0.94,-0.006,0.151,9.802,0.0,0.0,0.0
1777319083.5364277,-26.74,-0.01,0.94,-0.006,0.154,9.799,0.0,0.0,0.0
1777319083.5464642,-26.74,-0.01,0.94,-0.01,0.156,9.802,-0.01,0.0,-0.01
1777319083.5564303,-26.74,-0.01,0.94,-0.008,0.163,9.804,0.0,-0.01,-0.01
1777319083.5665913,-26.74,-0.01,0.94,0.001,0.164,9.802,-0.01,-0.01,-0.01
1777319083.5764413,-26.74,-0.01,0.94,-0.004,0.166,9.799,0.0,0.0,0.0
1777319083.5866613,-26.74,-0.01,0.94,-0.001,0.165,9.796,0.0,-0.01,0.0
1777319083.5973978,-26.74,-0.0,0.95,-0.004,0.159,9.794,0.0,0.0,0.0
1777319083.606594,-26.74,-0.01,0.94,-0.001,0.158,9.799,0.0,-0.01,0.0
1777319083.6164513,-26.74,-0.0,0.95,0.004,0.164,9.792,0.0,0.0,-0.01
1777319083.626409,-26.74,-0.0,0.95,-0.002,0.16,9.794,0.0,0.0,-0.01
1777319083.636404,-26.74,-0.01,0.94,-0.001,0.163,9.794,-0.01,-0.01,-0.01
1777319083.6463938,-26.74,-0.01,0.94,0.0,0.157,9.791,-0.01,0.0,-0.01
1777319083.6564214,-26.74,-0.01,0.94,-0.001,0.157,9.793,0.0,0.0,0.0
1777319083.6664095,-26.74,-0.01,0.94,-0.002,0.16,9.791,0.0,0.0,0.0
1777319083.6763752,-26.74,-0.01,0.94,-0.002,0.16,9.788,0.0,-0.01,0.0
1777319083.6863842,-26.74,-0.0,0.95,-0.002,0.162,9.788,0.0,-0.01,-0.01
1777319083.6964242,-26.74,-0.0,0.95,0.001,0.159,9.791,0.0,-0.01,-0.01
1777319083.7063982,-26.74,-0.01,0.94,0.006,0.158,9.796,0.0,0.0,-0.01
1777319083.7163737,-26.74,0.0,0.94,0.005,0.153,9.799,0.0,-0.01,-0.01
1777319083.7269125,-26.74,0.0,0.94,0.013,0.157,9.796,0.0,-0.01,0.0
1777319083.736368,-26.74,0.0,0.94,0.011,0.154,9.796,0.0,0.0,0.0
1777319083.7464082,-26.75,0.0,0.95,0.016,0.158,9.797,0.0,-0.01,0.0
1777319083.7563722,-26.75,0.0,0.95,0.008,0.159,9.79,0.0,0.0,0.0
1777319083.7664285,-26.74,0.0,0.95,0.01,0.165,9.785,0.0,0.0,-0.01
1777319083.7765727,-26.74,0.0,0.95,0.0,0.162,9.782,0.0,0.0,-0.01
1777319083.7863798,-26.74,0.0,0.95,0.0,0.157,9.79,0.0,0.0,-0.01
1777319083.7964244,-26.74,0.0,0.95,-0.004,0.156,9.796,0.0,0.0,0.0
1777319083.8063753,-26.75,-0.01,0.94,0.0,0.16,9.8,0.0,-0.01,0.0
1777319083.8163848,-26.75,0.0,0.94,-0.002,0.162,9.798,-0.01,0.0,0.0
1777319083.826446,-26.75,0.0,0.94,-0.005,0.158,9.798,-0.01,-0.01,-0.01
1777319083.8363883,-26.75,0.0,0.94,0.0,0.164,9.794,0.0,-0.01,-0.01
1777319083.8463626,-26.74,0.0,0.95,0.0,0.159,9.796,0.0,-0.01,-0.01
1777319083.856382,-26.74,0.0,0.94,-0.001,0.163,9.798,0.0,-0.01,-0.01
1777319083.866401,-26.74,0.0,0.94,0.002,0.159,9.797,-0.01,0.0,-0.01
1777319083.8766468,-26.75,0.0,0.94,-0.004,0.16,9.8,-0.01,0.0,0.0
1777319083.8868382,-26.75,0.0,0.94,-0.005,0.162,9.802,-0.01,-0.01,0.0
1777319083.8965027,-26.75,0.0,0.94,-0.004,0.16,9.803,0.0,0.0,0.0
1777319083.9064054,-26.75,0.0,0.94,-0.005,0.164,9.804,0.0,-0.01,-0.01
1777319083.916402,-26.74,0.0,0.94,-0.002,0.16,9.796,-0.01,0.0,-0.01
1777319083.9263508,-26.74,0.0,0.94,-0.002,0.159,9.792,0.0,0.0,-0.01
1777319083.936352,-26.74,0.0,0.94,0.0,0.16,9.794,0.0,-0.01,-0.01
1777319083.9466093,-26.75,0.0,0.94,-0.004,0.159,9.799,0.0,-0.01,0.0
1777319083.9564507,-26.75,0.0,0.94,-0.001,0.164,9.798,0.0,0.0,0.0
1777319083.9663937,-26.75,0.0,0.94,-0.004,0.164,9.796,-0.01,-0.01,0.0
1777319083.9764094,-26.75,-0.01,0.94,-0.004,0.162,9.798,-0.01,0.0,-0.01
1777319083.9863894,-26.75,-0.01,0.94,-0.004,0.16,9.8,-0.01,-0.01,-0.01
1777319083.9965482,-26.75,-0.01,0.94,-0.002,0.159,9.802,0.0,-0.01,-0.01
1777319084.0063543,-26.75,-0.01,0.94,0.0,0.156,9.803,-0.01,0.0,-0.01
1777319084.0163999,-26.75,-0.01,0.94,-0.002,0.162,9.8,0.0,0.0,0.0
1777319084.0263638,-26.75,-0.01,0.94,-0.001,0.16,9.799,0.0,0.0,0.0
1777319084.036346,-26.75,-0.01,0.94,-0.004,0.163,9.803,0.0,-0.01,0.0
1777319084.0463543,-26.75,-0.0,0.95,-0.005,0.165,9.8,0.0,0.0,-0.01
1777319084.0570345,-26.75,-0.0,0.95,-0.007,0.162,9.799,0.0,0.0,-0.01
1777319084.0670302,-26.75,-0.01,0.94,-0.008,0.158,9.792,0.0,-0.01,-0.01
1777319084.07639,-26.75,-0.01,0.94,-0.012,0.16,9.788,-0.01,-0.01,0.0
1777319084.0863676,-26.75,-0.01,0.94,-0.001,0.158,9.79,0.0,-0.01,0.0
1777319084.0963576,-26.75,-0.01,0.94,0.0,0.156,9.791,0.0,0.0,0.0
1777319084.106371,-26.75,-0.01,0.94,0.002,0.154,9.796,0.0,-0.01,0.0
1777319084.1163476,-26.75,-0.01,0.94,0.004,0.159,9.79,0.0,0.0,0.0
1777319084.126349,-26.75,-0.0,0.95,0.002,0.157,9.793,0.0,-0.01,-0.01
1777319084.1363602,-26.75,-0.0,0.95,0.005,0.162,9.796,0.0,0.0,-0.01
1777319084.14636,-26.75,-0.0,0.95,-0.002,0.158,9.796,-0.01,-0.01,0.0
1777319084.1563482,-26.75,-0.01,0.94,-0.001,0.163,9.794,0.0,0.0,0.0
1777319084.166331,-26.75,-0.0,0.95,-0.007,0.156,9.798,0.0,0.0,0.0
1777319084.1763198,-26.75,-0.01,0.94,-0.001,0.164,9.802,0.0,-0.01,-0.01
1777319084.186315,-26.75,-0.0,0.95,0.001,0.16,9.788,-0.01,0.0,-0.01
1777319084.1963453,-26.75,-0.0,0.95,-0.007,0.153,9.791,0.0,0.0,-0.01
1777319084.2064261,-26.75,-0.01,0.94,-0.013,0.151,9.796,0.0,-0.01,-0.01
1777319084.216336,-26.75,-0.01,0.94,-0.007,0.152,9.799,0.0,0.0,0.0
1777319084.2263138,-26.75,-0.01,0.94,-0.01,0.157,9.803,0.0,-0.01,0.0
1777319084.2363584,-26.75,-0.0,0.95,-0.008,0.168,9.802,-0.01,0.0,0.0
1777319084.2463422,-26.75,-0.0,0.95,0.004,0.163,9.803,0.0,-0.01,-0.01
1777319084.2563455,-26.75,-0.0,0.95,0.001,0.164,9.802,0.0,-0.01,-0.01
1777319084.266348,-26.75,-0.0,0.95,0.005,0.159,9.804,0.0,-0.01,-0.01
1777319084.2763345,-26.75,-0.0,0.95,0.008,0.163,9.805,-0.01,0.0,-0.01
1777319084.2862964,-26.75,-0.0,0.95,0.001,0.165,9.798,0.0,0.0,0.0
1777319084.2963438,-26.76,-0.0,0.95,0.002,0.17,9.791,0.0,0.0,0.0
1777319084.3063128,-26.76,-0.0,0.95,-0.002,0.166,9.792,-0.01,0.0,0.0
1777319084.3162987,-26.75,-0.0,0.95,-0.006,0.165,9.797,0.0,0.0,-0.01
1777319084.32628,-26.75,-0.01,0.95,-0.007,0.159,9.8,0.0,0.0,-0.01
1777319084.336327,-26.75,-0.01,0.95,-0.011,0.16,9.803,0.0,0.0,-0.01
1777319084.346317,-26.75,-0.01,0.95,-0.004,0.154,9.799,-0.01,0.0,-0.01
1777319084.3562818,-26.75,-0.01,0.95,-0.005,0.156,9.794,0.0,0.0,0.0
1777319084.3663266,-26.76,-0.01,0.94,-0.002,0.159,9.797,0.0,-0.01,0.0
1777319084.3763187,-26.76,-0.0,0.95,-0.001,0.162,9.8,0.0,0.0,0.0
1777319084.3862891,-26.75,-0.01,0.94,0.001,0.164,9.799,0.0,-0.01,-0.01
1777319084.3962834,-26.75,-0.0,0.95,0.006,0.166,9.796,-0.01,0.0,-0.01
1777319084.406314,-26.75,-0.0,0.95,0.007,0.159,9.794,0.0,0.0,-0.01
1777319084.4163203,-26.75,-0.0,0.95,0.0,0.154,9.799,0.0,-0.01,-0.01
1777319084.4262831,-26.75,-0.01,0.94,0.008,0.153,9.796,0.0,-0.01,0.0
1777319084.4363148,-26.76,-0.01,0.94,-0.002,0.153,9.785,0.0,0.0,0.0
1777319084.4462945,-26.76,-0.01,0.94,-0.004,0.162,9.788,0.0,-0.01,0.0
1777319084.4562979,-26.75,-0.0,0.95,-0.001,0.162,9.793,-0.01,0.0,0.0
1777319084.4662795,-26.75,-0.0,0.95,-0.005,0.166,9.798,0.0,-0.01,-0.01
1777319084.475484,-26.75,-0.0,0.95,0.0,0.171,9.793,0.0,-0.01,-0.01
1777319084.4862814,-26.75,-0.0,0.95,-0.005,0.166,9.793,-0.01,-0.01,-0.01
1777319084.495448,-26.75,-0.0,0.95,-0.004,0.166,9.793,0.0,-0.01,0.0
1777319084.5063117,-26.76,-0.0,0.95,-0.001,0.163,9.794,0.0,0.0,0.0
1777319084.5162845,-26.76,-0.0,0.95,0.001,0.166,9.798,-0.01,-0.01,0.0
1777319084.5262861,-26.76,-0.0,0.95,0.006,0.168,9.802,-0.01,-0.01,0.0
1777319084.5354629,-26.75,-0.0,0.95,0.005,0.164,9.805,0.0,0.0,-0.01
1777319084.545454,-26.75,-0.0,0.95,0.008,0.164,9.792,-0.01,0.0,-0.01
1777319084.5554504,-26.75,-0.0,0.95,0.002,0.152,9.793,-0.01,-0.01,-0.01
1777319084.5662825,-26.75,-0.01,0.94,0.005,0.157,9.796,-0.01,0.0,0.0
1777319084.575443,-26.76,-0.0,0.95,-0.007,0.156,9.798,0.0,0.0,0.0
1777319084.585459,-26.76,-0.01,0.94,-0.007,0.165,9.798,0.0,-0.01,0.0
1777319084.5964448,-26.76,-0.0,0.95,-0.005,0.164,9.796,-0.01,0.0,0.0
1777319084.606294,-26.76,-0.0,0.95,-0.007,0.169,9.798,0.0,-0.01,-0.01
1777319084.6164207,-26.76,-0.0,0.95,-0.008,0.172,9.802,-0.01,0.0,-0.01
1777319084.626285,-26.76,-0.0,0.95,-0.001,0.169,9.8,0.0,-0.01,-0.01
1777319084.6354418,-26.76,-0.0,0.95,-0.005,0.168,9.799,-0.01,-0.01,-0.01
1777319084.6454842,-26.76,-0.0,0.95,0.004,0.166,9.788,0.0,-0.01,0.0
1777319084.6554613,-26.76,-0.0,0.95,0.002,0.168,9.79,0.0,0.0,0.0
1777319084.6654503,-26.76,-0.0,0.95,-0.001,0.162,9.794,0.0,-0.01,0.0
1777319084.6754637,-26.76,-0.0,0.95,-0.002,0.163,9.799,-0.01,0.0,-0.01
1777319084.6858056,-26.76,-0.01,0.95,0.0,0.154,9.802,-0.01,0.0,-0.01
1777319084.6954134,-26.76,-0.01,0.94,0.0,0.153,9.79,0.0,0.0,-0.01
1777319084.7055852,-26.76,-0.01,0.94,-0.008,0.154,9.791,0.0,0.0,-0.01
1777319084.7154338,-26.76,-0.01,0.94,-0.005,0.157,9.79,0.0,-0.01,0.0
1777319084.7254303,-26.76,-0.01,0.94,-0.005,0.158,9.792,0.0,0.0,0.0
1777319084.735408,-26.76,-0.01,0.95,-0.006,0.168,9.791,0.0,-0.01,0.0
1777319084.7455683,-26.76,-0.01,0.95,-0.006,0.17,9.784,-0.01,0.0,0.0
1777319084.7554152,-26.76,-0.01,0.95,-0.007,0.163,9.78,0.0,-0.01,-0.01
1777319084.765573,-26.76,-0.01,0.94,-0.006,0.163,9.787,-0.01,-0.01,-0.01
1777319084.7754261,-26.76,-0.01,0.95,0.0,0.157,9.793,-0.01,0.0,-0.01
1777319084.7855263,-26.76,-0.0,0.95,0.0,0.158,9.796,0.0,-0.01,0.0
1777319084.7954283,-26.76,-0.0,0.95,-0.001,0.162,9.793,0.0,0.0,0.0
1777319084.8055356,-26.76,-0.01,0.95,0.001,0.159,9.792,0.0,0.0,0.0
1777319084.8154066,-26.76,-0.01,0.95,-0.002,0.16,9.797,0.0,0.0,-0.01
1777319084.8257737,-26.76,-0.01,0.94,-0.002,0.16,9.8,0.0,0.0,-0.01
1777319084.8353848,-26.76,-0.01,0.94,-0.012,0.159,9.803,-0.01,0.0,-0.01
1777319084.8454313,-26.76,-0.01,0.94,-0.008,0.157,9.805,0.0,0.0,-0.01
1777319084.8553696,-26.76,-0.01,0.94,-0.006,0.157,9.806,0.0,0.0,0.0
1777319084.8656662,-26.76,-0.01,0.94,-0.004,0.163,9.803,0.0,-0.01,0.0
1777319084.8754113,-26.76,-0.01,0.95,-0.006,0.162,9.802,-0.01,-0.01,0.0
1777319084.8854141,-26.76,-0.01,0.94,-0.006,0.159,9.803,0.0,-0.01,-0.01
1777319084.8953645,-26.76,-0.01,0.94,-0.007,0.164,9.803,-0.01,-0.01,-0.01
1777319084.9053624,-26.76,-0.01,0.95,-0.004,0.162,9.797,0.0,-0.01,-0.01
1777319084.9155574,-26.76,-0.01,0.95,0.002,0.164,9.79,0.0,-0.01,-0.01
1777319084.9253614,-26.76,-0.01,0.95,0.004,0.16,9.794,-0.01,-0.01,-0.01
1777319084.935365,-26.76,-0.0,0.95,0.008,0.16,9.798,-0.01,-0.01,0.0
1777319084.945391,-26.76,-0.0,0.95,0.005,0.165,9.799,0.0,0.0,0.0
1777319084.9553933,-26.76,-0.0,0.95,0.017,0.171,9.79,0.0,-0.01,-0.01
1777319084.9654305,-26.76,-0.0,0.95,0.019,0.17,9.78,-0.01,0.0,-0.01
1777319084.9758198,-26.76,-0.0,0.95,0.014,0.164,9.779,0.0,0.0,-0.01
1777319084.9853423,-26.76,-0.0,0.95,0.005,0.159,9.78,0.0,0.0,-0.01
1777319084.9953794,-26.76,-0.01,0.95,-0.004,0.156,9.787,0.0,0.0,-0.01
1777319085.0053952,-26.76,-0.01,0.94,-0.007,0.158,9.793,-0.01,0.0,0.0
1777319085.015423,-26.76,-0.01,0.94,-0.002,0.16,9.791,-0.01,0.0,0.0
1777319085.025361,-26.76,-0.01,0.94,-0.007,0.162,9.791,-0.01,-0.01,-0.01
1777319085.0353699,-26.76,-0.01,0.94,-0.006,0.16,9.793,0.0,-0.01,-0.01
1777319085.04535,-26.76,-0.01,0.94,0.0,0.157,9.793,0.0,-0.01,-0.01
1777319085.0554025,-26.76,-0.01,0.94,0.005,0.159,9.791,0.0,-0.01,0.0
1777319085.065362,-26.76,-0.0,0.95,0.004,0.168,9.778,-0.01,0.0,0.0
1777319085.0753663,-26.76,-0.0,0.95,0.001,0.172,9.775,0.0,-0.01,-0.01
1777319085.08535,-26.76,-0.0,0.95,0.007,0.171,9.779,-0.01,0.0,0.0
1777319085.0953877,-26.76,-0.0,0.95,0.004,0.17,9.787,0.0,-0.01,0.0
1777319085.105384,-26.76,-0.0,0.95,0.002,0.171,9.793,-0.01,0.0,-0.01
1777319085.115472,-26.76,-0.0,0.95,0.007,0.171,9.786,0.0,0.0,-0.01
1777319085.1253495,-26.76,-0.0,0.95,0.002,0.169,9.78,0.0,0.0,-0.01
1777319085.1353986,-26.76,-0.01,0.95,-0.004,0.159,9.78,0.0,0.0,-0.01
1777319085.1453648,-26.76,-0.01,0.95,-0.011,0.156,9.782,0.0,0.0,0.0
1777319085.155361,-26.76,-0.01,0.95,-0.011,0.159,9.784,0.0,0.0,0.0
1777319085.16538,-26.76,-0.01,0.95,-0.006,0.163,9.768,-0.01,0.0,0.0
1777319085.175355,-26.76,-0.01,0.95,-0.011,0.159,9.77,0.0,0.0,0.0
1777319085.1853726,-26.76,-0.01,0.95,-0.011,0.159,9.781,0.0,-0.01,-0.01
1777319085.195359,-26.76,-0.01,0.95,-0.006,0.159,9.788,0.0,-0.01,0.0
1777319085.2053497,-26.76,-0.01,0.95,0.001,0.157,9.782,-0.01,-0.01,0.0
1777319085.2153318,-26.76,-0.01,0.95,-0.001,0.16,9.778,0.0,-0.01,0.0
1777319085.2253292,-26.76,-0.01,0.95,0.0,0.159,9.774,-0.01,-0.01,-0.01
1777319085.2353773,-26.76,-0.01,0.95,-0.001,0.157,9.782,0.0,0.0,-0.01
1777319085.2454784,-26.76,-0.01,0.95,-0.004,0.16,9.787,0.0,0.0,-0.01
1777319085.2553296,-26.76,-0.01,0.95,-0.002,0.16,9.787,-0.01,0.0,0.0
1777319085.2653952,-26.76,-0.01,0.95,-0.002,0.162,9.774,0.0,0.0,0.0
1777319085.2753656,-26.76,-0.01,0.95,-0.006,0.165,9.784,0.0,0.0,-0.01
1777319085.2859104,-26.76,-0.01,0.95,-0.002,0.163,9.788,0.0,0.0,-0.01
1777319085.2953691,-26.76,-0.01,0.95,0.0,0.165,9.794,0.0,0.0,-0.01
1777319085.3053596,-26.76,-0.01,0.95,-0.004,0.164,9.79,0.0,-0.01,-0.01
1777319085.315426,-26.76,-0.01,0.95,-0.01,0.168,9.79,-0.01,0.0,0.0
1777319085.3253036,-26.76,-0.01,0.95,-0.006,0.165,9.788,0.0,0.0,0.0
1777319085.3353379,-26.76,-0.01,0.95,-0.002,0.164,9.793,-0.01,-0.01,-0.01
1777319085.34546,-26.76,-0.01,0.95,0.0,0.16,9.798,0.0,0.0,-0.01
1777319085.3553839,-26.76,-0.01,0.95,0.0,0.163,9.799,-0.01,0.0,-0.01
1777319085.3653193,-26.76,-0.01,0.95,0.0,0.156,9.79,0.0,-0.01,0.0
1777319085.3753698,-26.76,-0.01,0.95,0.001,0.153,9.792,0.0,0.0,0.0
1777319085.3853264,-26.76,-0.01,0.95,0.001,0.158,9.793,0.0,0.0,-0.01
1777319085.3953571,-26.76,-0.01,0.95,0.006,0.16,9.798,0.0,0.0,0.0
1777319085.405298,-26.76,-0.01,0.95,0.005,0.154,9.802,-0.01,-0.01,-0.01
1777319085.4153543,-26.76,-0.01,0.95,0.002,0.162,9.794,-0.01,0.0,-0.01
1777319085.425321,-26.76,-0.01,0.95,0.001,0.159,9.792,0.0,0.0,-0.01
1777319085.4354525,-26.76,-0.01,0.95,-0.001,0.158,9.792,0.0,0.0,0.0
1777319085.4453242,-26.76,-0.01,0.95,-0.001,0.153,9.791,0.0,0.0,0.0
1777319085.4553092,-26.76,-0.01,0.94,-0.008,0.147,9.793,0.0,-0.01,-0.01
1777319085.4652889,-26.76,-0.01,0.94,-0.004,0.151,9.791,-0.01,0.0,0.0
1777319085.475781,-26.76,-0.01,0.94,0.0,0.153,9.787,0.0,-0.01,0.0
1777319085.4943109,-26.76,-0.01,0.94,0.001,0.156,9.791,0.0,-0.01,0.0
1777319085.4952848,-26.76,-0.01,0.94,0.002,0.159,9.794,0.0,-0.01,0.0
1777319085.5052795,-26.77,-0.01,0.94,0.001,0.159,9.798,-0.01,-0.01,0.0
1777319085.515337,-26.77,-0.01,0.95,0.0,0.162,9.8,0.0,-0.01,0.0
1777319085.525285,-26.77,-0.01,0.94,0.005,0.16,9.799,0.0,0.0,0.0
1777319085.5352957,-26.77,-0.01,0.94,0.002,0.162,9.798,-0.01,0.0,0.0
1777319085.5452762,-26.77,-0.01,0.94,-0.001,0.159,9.802,-0.01,-0.01,-0.01
1777319085.555268,-26.77,-0.01,0.94,0.0,0.16,9.8,-0.01,0.0,-0.01
1777319085.5643651,-26.77,-0.01,0.94,-0.001,0.158,9.803,0.0,0.0,0.0
1777319085.575261,-26.77,-0.01,0.94,0.002,0.154,9.788,0.0,0.0,0.0
1777319085.5843518,-26.77,-0.01,0.94,-0.001,0.159,9.787,-0.01,0.0,0.0
1777319085.595271,-26.77,-0.01,0.94,-0.004,0.162,9.793,0.0,0.0,-0.01
1777319085.6052577,-26.77,-0.01,0.94,-0.001,0.159,9.794,0.0,0.0,-0.01
1777319085.6152797,-26.77,-0.01,0.94,-0.001,0.157,9.798,0.0,-0.01,-0.01
1777319085.625292,-26.77,-0.01,0.94,-0.001,0.162,9.791,-0.01,-0.01,-0.01
1777319085.6343703,-26.77,-0.01,0.94,-0.001,0.159,9.794,0.0,0.0,0.0
1777319085.6453388,-26.77,-0.01,0.94,-0.002,0.16,9.796,0.0,-0.01,0.0
1777319085.6554532,-26.77,-0.01,0.94,-0.002,0.156,9.794,-0.01,-0.01,0.0
1777319085.6653116,-26.77,-0.01,0.94,0.0,0.154,9.798,0.0,-0.01,-0.01
1777319085.674445,-26.77,-0.01,0.94,0.0,0.157,9.796,-0.01,-0.01,-0.01
1777319085.6843631,-26.77,-0.01,0.94,0.0,0.153,9.798,0.0,0.0,-0.01
1777319085.6945179,-26.77,-0.01,0.94,0.0,0.159,9.796,0.0,0.0,-0.01
1777319085.7044334,-26.77,-0.01,0.94,-0.006,0.154,9.796,0.0,0.0,0.0
1777319085.7144454,-26.77,-0.01,0.94,-0.004,0.158,9.796,0.0,-0.01,-0.01
1777319085.7244468,-26.77,-0.01,0.94,0.004,0.154,9.794,-0.01,0.0,0.0
1777319085.7344325,-26.77,-0.01,0.94,0.005,0.158,9.798,0.0,-0.01,-0.01
1777319085.7444327,-26.77,-0.01,0.94,0.005,0.162,9.796,-0.01,0.0,-0.01
1777319085.7544663,-26.77,-0.01,0.94,0.005,0.164,9.791,0.0,0.0,-0.01
1777319085.7644165,-26.77,-0.01,0.94,0.001,0.156,9.792,-0.01,-0.01,-0.01
1777319085.7744007,-26.77,-0.01,0.94,-0.004,0.15,9.796,0.0,-0.01,-0.01
1777319085.7844028,-26.77,-0.01,0.94,0.001,0.157,9.797,0.0,0.0,0.0
1777319085.7944105,-26.77,-0.01,0.94,-0.002,0.157,9.8,0.0,-0.01,0.0
1777319085.8044257,-26.78,-0.01,0.94,-0.002,0.165,9.79,-0.01,0.0,0.0
1777319085.814388,-26.77,-0.01,0.94,0.0,0.169,9.79,-0.01,-0.01,0.0
1777319085.8243663,-26.77,-0.01,0.94,-0.002,0.169,9.788,0.0,-0.01,-0.01
1777319085.8345418,-26.77,-0.01,0.94,0.0,0.159,9.791,-0.01,0.0,-0.01
1777319085.844396,-26.77,-0.01,0.94,-0.004,0.157,9.788,0.0,-0.01,-0.01
1777319085.8544178,-26.77,-0.01,0.94,-0.005,0.162,9.788,0.0,-0.01,0.0
1777319085.864396,-26.78,-0.01,0.94,-0.005,0.164,9.79,0.0,-0.01,0.0
1777319085.874394,-26.78,-0.01,0.94,-0.006,0.163,9.792,0.0,-0.01,0.0
1777319085.8843648,-26.77,-0.01,0.94,0.0,0.163,9.797,0.0,0.0,-0.01
1777319085.8943648,-26.77,-0.01,0.94,0.001,0.165,9.799,-0.01,0.0,-0.01
1777319085.9043636,-26.77,-0.01,0.94,-0.004,0.165,9.8,0.0,0.0,-0.01
1777319085.9143736,-26.77,-0.01,0.94,-0.002,0.168,9.782,0.0,0.0,0.0
1777319085.9243584,-26.78,-0.01,0.94,0.0,0.168,9.786,0.0,0.0,0.0
1777319085.9343677,-26.78,-0.01,0.95,-0.002,0.165,9.792,0.0,-0.01,0.0
1777319085.9443738,-26.78,-0.01,0.95,-0.004,0.162,9.79,0.0,0.0,0.0
1777319085.9544086,-26.78,-0.01,0.94,-0.006,0.166,9.786,-0.01,-0.01,-0.01
1777319085.9643676,-26.77,-0.01,0.95,0.004,0.165,9.776,-0.01,0.0,-0.01
1777319085.9743602,-26.77,-0.01,0.94,0.0,0.16,9.781,-0.01,-0.01,-0.01
1777319085.9843943,-26.77,-0.01,0.94,-0.001,0.154,9.787,0.0,-0.01,-0.01
1777319085.9943244,-26.77,-0.01,0.94,-0.002,0.147,9.793,0.0,0.0,0.0
1777319086.0050924,-26.78,-0.01,0.94,-0.006,0.153,9.798,0.0,-0.01,0.0
1777319086.014368,-26.78,-0.01,0.94,0.001,0.164,9.79,-0.01,0.0,0.0
1777319086.0243313,-26.77,-0.01,0.94,0.0,0.162,9.786,0.0,-0.01,-0.01
1777319086.0343337,-26.77,-0.01,0.94,0.001,0.162,9.78,0.0,0.0,-0.01
1777319086.04434,-26.77,-0.01,0.94,-0.004,0.153,9.788,0.0,-0.01,-0.01
1777319086.0543149,-26.77,-0.01,0.94,-0.004,0.152,9.793,-0.01,-0.01,0.0
1777319086.064306,-26.78,-0.01,0.94,0.0,0.156,9.794,-0.01,0.0,0.0
1777319086.0743337,-26.78,-0.01,0.94,-0.004,0.16,9.791,-0.01,0.0,0.0
1777319086.084393,-26.78,-0.01,0.94,0.001,0.165,9.791,-0.01,-0.01,0.0
1777319086.0943358,-26.78,-0.01,0.94,-0.001,0.165,9.796,0.0,-0.01,-0.01
1777319086.1043465,-26.77,-0.01,0.94,0.0,0.16,9.794,-0.01,-0.01,-0.01
1777319086.1143348,-26.77,-0.01,0.94,0.001,0.162,9.792,0.0,-0.01,-0.01
1777319086.1243286,-26.78,-0.01,0.94,0.0,0.158,9.792,0.0,-0.01,-0.01
1777319086.1343243,-26.78,-0.01,0.94,0.0,0.153,9.792,-0.01,-0.01,0.0
1777319086.1443264,-26.78,-0.01,0.94,0.002,0.153,9.797,-0.01,-0.01,0.0
1777319086.1543415,-26.78,-0.01,0.94,0.004,0.159,9.8,0.0,0.0,0.0
1777319086.1643386,-26.78,-0.01,0.94,0.004,0.162,9.79,0.0,0.0,-0.01
1777319086.1743088,-26.78,-0.01,0.94,0.002,0.165,9.788,0.0,0.0,-0.01
1777319086.1843119,-26.78,-0.01,0.94,0.002,0.171,9.79,0.0,-0.01,-0.01
1777319086.1943114,-26.78,-0.01,0.94,0.005,0.165,9.794,0.0,-0.01,-0.01
1777319086.204345,-26.78,-0.01,0.94,0.001,0.162,9.793,-0.01,-0.01,0.0
1777319086.2143745,-26.78,-0.01,0.94,0.0,0.162,9.798,-0.01,-0.01,0.0
1777319086.224332,-26.78,-0.01,0.94,0.005,0.163,9.788,0.0,-0.01,-0.01
1777319086.2343588,-26.78,-0.01,0.94,-0.001,0.166,9.794,-0.01,-0.01,-0.01
1777319086.2443469,-26.78,-0.01,0.94,-0.008,0.166,9.798,0.0,-0.01,-0.01
1777319086.2543604,-26.78,-0.01,0.94,-0.004,0.164,9.799,-0.01,0.0,0.0
1777319086.2643566,-26.78,-0.01,0.94,-0.006,0.158,9.799,0.0,-0.01,0.0
1777319086.2743433,-26.78,-0.01,0.94,-0.005,0.156,9.792,-0.01,-0.01,0.0
1777319086.2843297,-26.78,-0.01,0.94,-0.004,0.159,9.785,0.0,-0.01,-0.01
1777319086.2943513,-26.78,-0.01,0.94,-0.002,0.158,9.791,0.0,0.0,0.0
1777319086.3043065,-26.78,-0.01,0.94,0.002,0.16,9.793,0.0,0.0,-0.01
1777319086.3143265,-26.78,-0.01,0.94,0.0,0.159,9.794,0.0,0.0,0.0
1777319086.324662,-26.78,-0.01,0.94,0.0,0.16,9.796,0.0,0.0,-0.01
1777319086.3348165,-26.78,-0.01,0.94,0.001,0.162,9.8,0.0,0.0,-0.01
1777319086.3445418,-26.78,-0.01,0.94,-0.001,0.163,9.803,0.0,0.0,-0.01
1777319086.3574638,-26.78,-0.01,0.94,0.0,0.166,9.803,0.0,-0.01,0.0
1777319086.3643587,-26.78,-0.01,0.94,-0.001,0.162,9.788,0.0,-0.01,-0.01
1777319086.3743165,-26.78,-0.01,0.94,0.002,0.163,9.792,-0.01,-0.01,-0.01
1777319086.3843298,-26.78,-0.01,0.94,0.004,0.162,9.791,-0.01,0.0,-0.01
1777319086.394357,-26.78,-0.01,0.94,0.005,0.166,9.785,-0.01,-0.01,-0.01
1777319086.404627,-26.78,-0.01,0.94,0.0,0.159,9.791,0.0,0.0,-0.01
1777319086.4143481,-26.78,-0.01,0.94,0.006,0.16,9.797,0.0,0.0,-0.01
1777319086.4243186,-26.78,-0.01,0.94,0.004,0.164,9.799,0.0,0.0,0.0
1777319086.4343598,-26.78,-0.01,0.94,0.002,0.165,9.802,0.0,-0.01,0.0
1777319086.4443371,-26.78,-0.01,0.94,-0.001,0.163,9.799,0.0,0.0,0.0
1777319086.4543118,-26.78,-0.01,0.94,-0.001,0.163,9.799,0.0,-0.01,0.0
1777319086.4643726,-26.78,-0.01,0.94,0.0,0.163,9.797,0.0,0.0,-0.01
1777319086.4743757,-26.78,-0.01,0.94,0.004,0.158,9.79,0.0,0.0,-0.01
1777319086.4843063,-26.78,-0.01,0.94,0.0,0.162,9.796,0.0,0.0,-0.01
1777319086.4943473,-26.78,-0.01,0.94,0.0,0.163,9.788,-0.01,0.0,0.0
1777319086.5043144,-26.78,-0.0,0.95,0.002,0.163,9.794,0.0,0.0,0.0
1777319086.514333,-26.78,-0.0,0.95,0.002,0.16,9.798,0.0,-0.01,0.0
1777319086.5243556,-26.78,-0.0,0.95,-0.001,0.164,9.802,0.0,0.0,0.0
1777319086.534312,-26.78,-0.0,0.95,0.0,0.165,9.803,0.0,0.0,-0.01
1777319086.5443044,-26.78,-0.0,0.95,0.002,0.164,9.803,0.0,0.0,-0.01
1777319086.5543098,-26.78,-0.0,0.95,0.007,0.165,9.805,0.0,-0.01,-0.01
1777319086.564309,-26.78,-0.0,0.95,0.007,0.165,9.8,0.0,0.0,0.0
1777319086.5743203,-26.78,-0.0,0.95,0.002,0.16,9.793,-0.01,0.0,0.0
1777319086.5844438,-26.78,-0.0,0.95,-0.001,0.162,9.79,0.0,-0.01,0.0
1777319086.5943215,-26.78,-0.0,0.95,-0.002,0.16,9.793,-0.01,0.0,-0.01
1777319086.6050904,-26.78,-0.0,0.95,-0.008,0.16,9.798,0.0,-0.01,-0.01
1777319086.614304,-26.78,-0.01,0.95,-0.007,0.162,9.797,-0.01,0.0,0.0
1777319086.624296,-26.78,-0.01,0.95,-0.006,0.158,9.787,0.0,0.0,-0.01
1777319086.6342676,-26.78,-0.01,0.95,-0.002,0.157,9.79,0.0,-0.01,-0.01
1777319086.6435106,-26.78,-0.01,0.95,-0.002,0.156,9.796,0.0,-0.01,-0.01
1777319086.653478,-26.78,-0.01,0.95,-0.004,0.151,9.799,0.0,-0.01,-0.01
1777319086.6643069,-26.78,-0.01,0.94,-0.004,0.153,9.792,0.0,0.0,0.0
1777319086.6742842,-26.78,-0.01,0.94,-0.004,0.157,9.788,-0.01,0.0,-0.01
1777319086.6843464,-26.78,-0.01,0.94,-0.001,0.154,9.781,0.0,0.0,-0.01
1777319086.6942928,-26.78,-0.01,0.94,-0.001,0.154,9.785,0.0,-0.01,-0.01
1777319086.7034557,-26.78,-0.01,0.94,-0.001,0.158,9.775,-0.01,0.0,-0.01
1777319086.7134376,-26.78,-0.01,0.94,-0.005,0.162,9.778,-0.01,-0.01,0.0
1777319086.7243152,-26.78,-0.01,0.94,-0.005,0.152,9.784,-0.01,0.0,0.0
1777319086.7343965,-26.78,-0.01,0.94,-0.01,0.151,9.79,0.0,0.0,-0.01
1777319086.7440035,-26.78,-0.01,0.94,-0.007,0.158,9.796,0.0,0.0,0.0
1777319086.7543747,-26.78,-0.01,0.94,-0.006,0.153,9.799,0.0,0.0,0.0
1777319086.76362,-26.78,-0.01,0.94,0.001,0.153,9.794,0.0,0.0,-0.01
1777319086.7747386,-26.78,-0.01,0.94,0.006,0.156,9.786,-0.01,0.0,0.0
1777319086.7835927,-26.78,-0.01,0.94,0.011,0.159,9.784,0.0,0.0,-0.01
1777319086.793548,-26.79,-0.01,0.94,0.005,0.157,9.788,-0.01,0.0,0.0
1777319086.8035667,-26.79,-0.01,0.94,-0.006,0.16,9.792,0.0,-0.01,0.0
1777319086.8134506,-26.79,-0.01,0.94,-0.004,0.159,9.794,-0.01,0.0,0.0
1777319086.8234668,-26.79,-0.01,0.94,-0.005,0.163,9.798,0.0,0.0,0.0
1777319086.833448,-26.79,-0.01,0.94,-0.008,0.164,9.794,0.0,0.0,0.0
1777319086.8434155,-26.79,-0.01,0.94,-0.01,0.162,9.793,0.0,0.0,-0.01
1777319086.8534453,-26.79,-0.01,0.94,-0.004,0.163,9.796,0.0,0.0,-0.01
1777319086.863426,-26.79,-0.01,0.94,-0.005,0.154,9.788,0.0,-0.01,0.0
1777319086.8740318,-26.79,-0.01,0.94,0.0,0.159,9.79,0.0,-0.01,0.0
1777319086.883451,-26.79,-0.01,0.94,0.001,0.156,9.79,0.0,-0.01,0.0
1777319086.893427,-26.79,-0.01,0.94,0.001,0.154,9.791,0.0,-0.01,0.0
1777319086.9034374,-26.79,-0.01,0.94,0.0,0.154,9.792,0.0,0.0,0.0
1777319086.9134521,-26.79,-0.01,0.94,0.007,0.157,9.786,-0.01,0.0,-0.01
1777319086.9234197,-26.79,-0.01,0.94,0.008,0.152,9.787,-0.01,0.0,-0.01
1777319086.9334297,-26.79,-0.01,0.94,0.01,0.146,9.79,-0.01,-0.01,-0.01
1777319086.9434016,-26.79,-0.01,0.94,0.008,0.145,9.79,-0.01,0.0,0.0
1777319086.9534278,-26.79,-0.01,0.94,0.002,0.146,9.791,0.0,-0.01,0.0
1777319086.9633863,-26.79,-0.01,0.94,0.005,0.154,9.788,0.0,0.0,0.0
1777319086.9733825,-26.79,-0.01,0.94,0.002,0.152,9.788,0.0,-0.01,0.0
1777319086.9833724,-26.79,-0.01,0.94,0.0,0.157,9.784,-0.01,-0.01,-0.01
1777319086.9933968,-26.79,-0.01,0.94,0.001,0.156,9.784,-0.01,-0.01,-0.01
1777319087.003428,-26.79,-0.01,0.94,0.002,0.157,9.782,0.0,-0.01,-0.01
1777319087.0134852,-26.79,-0.01,0.94,0.007,0.16,9.785,-0.01,-0.01,-0.01
1777319087.0236077,-26.79,-0.01,0.94,0.008,0.16,9.791,-0.01,0.0,0.0
1777319087.0334315,-26.79,-0.01,0.94,0.005,0.159,9.797,0.0,0.0,0.0
1777319087.0436628,-26.79,-0.01,0.94,0.002,0.16,9.793,0.0,0.0,-0.01
1777319087.0534008,-26.79,-0.01,0.94,0.0,0.158,9.798,-0.01,0.0,-0.01
1777319087.0634315,-26.79,-0.01,0.94,0.0,0.153,9.802,0.0,0.0,-0.01
1777319087.0736163,-26.79,-0.01,0.94,-0.001,0.156,9.792,-0.01,0.0,-0.01
1777319087.083428,-26.79,-0.01,0.94,-0.012,0.157,9.794,-0.01,0.0,-0.01
1777319087.0934255,-26.79,-0.01,0.94,-0.01,0.163,9.798,0.0,-0.01,0.0
1777319087.1033893,-26.79,-0.01,0.94,-0.004,0.166,9.8,0.0,0.0,0.0
1777319087.113439,-26.79,-0.01,0.94,-0.005,0.166,9.803,0.0,-0.01,0.0
1777319087.1234062,-26.79,-0.01,0.94,0.0,0.164,9.803,-0.01,0.0,0.0
1777319087.1336997,-26.79,-0.01,0.94,0.001,0.165,9.804,0.0,0.0,-0.01
1777319087.143429,-26.79,-0.01,0.94,0.0,0.164,9.797,0.0,0.0,-0.01
1777319087.1533983,-26.79,-0.01,0.94,-0.002,0.166,9.8,-0.01,0.0,0.0
1777319087.1633818,-26.79,-0.01,0.94,0.0,0.165,9.803,0.0,-0.01,0.0
1777319087.173388,-26.79,-0.01,0.94,0.0,0.163,9.804,0.0,0.0,0.0
1777319087.1833677,-26.79,-0.01,0.94,0.002,0.162,9.798,0.0,0.0,0.0
1777319087.1934028,-26.79,-0.01,0.94,0.001,0.163,9.8,0.0,0.0,-0.01
1777319087.2033916,-26.79,-0.01,0.94,0.002,0.168,9.803,0.0,0.0,-0.01
1777319087.2133512,-26.79,-0.01,0.94,-0.001,0.163,9.8,0.0,0.0,-0.01
1777319087.2234066,-26.79,-0.01,0.94,0.0,0.16,9.799,0.0,-0.01,0.0
1777319087.2333496,-26.79,-0.01,0.94,0.005,0.165,9.797,0.0,0.0,0.0
1777319087.243353,-26.79,-0.01,0.94,0.005,0.166,9.796,0.0,-0.01,-0.01
1777319087.2533529,-26.79,-0.01,0.94,0.002,0.158,9.785,-0.01,0.0,-0.01
1777319087.263543,-26.79,-0.01,0.94,-0.001,0.151,9.787,0.0,-0.01,-0.01
1777319087.2734964,-26.79,-0.01,0.94,-0.005,0.151,9.791,-0.01,-0.01,0.0
1777319087.2840347,-26.79,-0.01,0.94,-0.008,0.154,9.792,0.0,-0.01,0.0
1777319087.2937248,-26.79,-0.01,0.94,-0.011,0.159,9.792,0.0,-0.01,0.0
1777319087.3034916,-26.79,-0.01,0.94,-0.01,0.16,9.797,0.0,0.0,-0.01
1777319087.3134491,-26.79,-0.01,0.94,-0.007,0.164,9.794,0.0,-0.01,-0.01
1777319087.3234587,-26.79,-0.01,0.94,-0.004,0.169,9.798,-0.01,0.0,-0.01
1777319087.3333669,-26.79,-0.01,0.94,0.0,0.165,9.794,0.0,0.0,-0.01
1777319087.3433704,-26.79,-0.01,0.94,0.001,0.158,9.791,0.0,0.0,0.0
1777319087.353351,-26.79,-0.01,0.94,-0.004,0.159,9.786,0.0,0.0,0.0
1777319087.3633544,-26.79,-0.01,0.94,-0.001,0.159,9.79,0.0,0.0,-0.01
1777319087.3733351,-26.79,-0.01,0.94,0.0,0.156,9.791,0.0,0.0,-0.01
1777319087.3833528,-26.79,-0.01,0.94,0.001,0.152,9.79,0.0,0.0,-0.01
1777319087.3933518,-26.79,-0.01,0.94,0.0,0.152,9.785,-0.01,0.0,-0.01
1777319087.4034693,-26.79,-0.01,0.94,0.004,0.152,9.787,-0.01,0.0,-0.01
1777319087.4133534,-26.79,-0.01,0.94,-0.001,0.153,9.79,0.0,0.0,0.0
1777319087.4233592,-26.79,-0.01,0.94,-0.001,0.158,9.793,0.0,-0.01,0.0
1777319087.4333506,-26.79,-0.01,0.94,-0.001,0.164,9.791,0.0,-0.01,0.0
1777319087.4433222,-26.79,-0.01,0.94,-0.004,0.168,9.796,-0.01,0.0,0.0
1777319087.4533224,-26.79,-0.01,0.94,-0.007,0.168,9.798,-0.01,-0.01,-0.01
1777319087.4633608,-26.79,-0.01,0.94,-0.006,0.166,9.802,-0.01,-0.01,-0.01
1777319087.4733205,-26.79,-0.01,0.94,-0.004,0.164,9.804,-0.01,-0.01,0.0
1777319087.4833686,-26.79,-0.01,0.94,-0.002,0.158,9.805,0.0,-0.01,0.0
1777319087.4933655,-26.79,-0.01,0.94,-0.001,0.156,9.806,0.0,0.0,0.0
1777319087.503327,-26.79,-0.01,0.94,-0.001,0.16,9.808,-0.01,0.0,0.0
1777319087.5133746,-26.79,-0.01,0.94,-0.002,0.162,9.808,0.0,0.0,-0.01
1777319087.5233636,-26.79,-0.01,0.94,-0.006,0.16,9.808,-0.01,0.0,-0.01
1777319087.5335586,-26.79,-0.01,0.94,-0.01,0.154,9.805,-0.01,0.0,-0.01
1777319087.5434825,-26.79,-0.01,0.94,-0.006,0.158,9.8,0.0,0.0,-0.01
1777319087.5534894,-26.79,-0.01,0.94,-0.007,0.158,9.796,0.0,0.0,0.0
1777319087.5635486,-26.79,-0.01,0.94,-0.004,0.163,9.798,0.0,0.0,0.0
1777319087.5734723,-26.79,-0.01,0.94,-0.006,0.163,9.798,0.0,-0.01,0.0
1777319087.5834188,-26.79,-0.01,0.94,-0.007,0.162,9.8,0.0,0.0,0.0
1777319087.5934298,-26.79,-0.01,0.94,-0.001,0.159,9.798,0.0,-0.01,-0.01
1777319087.6035972,-26.79,-0.01,0.94,0.001,0.162,9.794,0.0,0.0,-0.01
1777319087.613323,-26.79,-0.01,0.94,0.005,0.154,9.798,0.0,0.0,-0.01
1777319087.6233017,-26.79,-0.01,0.94,0.004,0.152,9.796,0.0,0.0,-0.01
1777319087.6333194,-26.79,-0.01,0.94,0.002,0.156,9.794,0.0,0.0,0.0
1777319087.6432917,-26.79,-0.01,0.94,0.0,0.157,9.797,0.0,0.0,0.0
1777319087.6527653,-26.79,-0.01,0.94,0.0,0.156,9.792,0.0,-0.01,0.0
1777319087.6633122,-26.79,-0.01,0.94,-0.002,0.158,9.794,0.0,0.0,-0.01
1777319087.6732914,-26.79,-0.01,0.94,0.004,0.162,9.786,0.0,0.0,-0.01
1777319087.682484,-26.79,-0.01,0.94,0.0,0.16,9.791,-0.01,0.0,-0.01
1777319087.693333,-26.79,-0.01,0.94,-0.005,0.156,9.788,0.0,-0.01,-0.01
1777319087.7033014,-26.79,-0.01,0.94,-0.006,0.156,9.79,0.0,0.0,0.0
1777319087.713695,-26.8,-0.01,0.94,-0.01,0.156,9.796,0.0,-0.01,0.0
1777319087.7233143,-26.8,-0.01,0.94,-0.006,0.162,9.791,0.0,0.0,0.0
1777319087.7324908,-26.8,-0.01,0.94,0.0,0.159,9.791,0.0,0.0,0.0
1777319087.7432919,-26.8,-0.01,0.94,0.0,0.157,9.791,-0.01,0.0,-0.01
1777319087.7524798,-26.8,-0.01,0.94,0.002,0.157,9.796,0.0,0.0,-0.01
1777319087.763314,-26.8,-0.01,0.94,0.004,0.156,9.797,0.0,0.0,-0.01
1777319087.7732892,-26.8,-0.01,0.94,0.002,0.156,9.793,0.0,-0.01,0.0
1777319087.7824852,-26.8,-0.01,0.94,0.001,0.156,9.796,0.0,-0.01,0.0
1777319087.793389,-26.8,-0.01,0.94,0.004,0.158,9.799,-0.01,0.0,0.0
1777319087.8025355,-26.8,-0.01,0.94,0.008,0.157,9.8,0.0,0.0,-0.01
1777319087.8126326,-26.8,-0.01,0.94,0.0,0.158,9.8,-0.01,0.0,-0.01
1777319087.8227038,-26.8,-0.01,0.94,-0.002,0.16,9.797,-0.01,-0.01,-0.01
1777319087.8333127,-26.8,-0.01,0.94,0.01,0.164,9.791,0.0,0.0,-0.01
1777319087.8427043,-26.8,-0.01,0.94,0.006,0.163,9.79,0.0,-0.01,0.0
1777319087.8532755,-26.8,-0.01,0.94,0.001,0.166,9.786,0.0,-0.01,0.0
1777319087.8624675,-26.8,-0.01,0.94,-0.002,0.163,9.791,0.0,0.0,0.0
1777319087.8724556,-26.8,-0.01,0.94,-0.007,0.159,9.796,0.0,-0.01,0.0
1777319087.8832765,-26.8,-0.01,0.94,-0.001,0.154,9.792,-0.01,0.0,-0.01
1777319087.8924541,-26.8,-0.01,0.94,-0.004,0.153,9.79,0.0,0.0,-0.01
1777319087.9026275,-26.8,-0.01,0.94,0.0,0.158,9.792,0.0,-0.01,-0.01
1777319087.9124568,-26.8,-0.01,0.94,0.008,0.154,9.793,0.0,-0.01,-0.01
1777319087.9224498,-26.8,-0.01,0.94,0.01,0.159,9.794,0.0,-0.01,0.0
1777319087.9324641,-26.8,-0.01,0.94,0.014,0.16,9.792,-0.01,-0.01,0.0
1777319087.942422,-26.8,-0.01,0.94,0.006,0.158,9.794,0.0,0.0,0.0
1777319087.9524276,-26.8,-0.01,0.94,0.006,0.156,9.792,-0.01,-0.01,-0.01
1777319087.9624317,-26.8,-0.01,0.94,0.008,0.156,9.796,0.0,0.0,-0.01
1777319087.972451,-26.8,-0.01,0.94,0.0,0.152,9.799,0.0,-0.01,-0.01
1777319087.9824324,-26.8,-0.01,0.94,-0.002,0.152,9.8,-0.01,0.0,-0.01
1777319087.992432,-26.8,-0.01,0.94,-0.006,0.156,9.797,0.0,0.0,0.0
1777319088.0024347,-26.8,-0.01,0.94,-0.008,0.16,9.792,0.0,-0.01,0.0
1777319088.012409,-26.8,-0.01,0.94,-0.002,0.165,9.797,0.0,0.0,0.0
1777319088.022429,-26.8,-0.01,0.94,0.008,0.165,9.793,0.0,0.0,-0.01
1777319088.0326505,-26.8,-0.01,0.94,0.0,0.163,9.794,-0.01,0.0,0.0
1777319088.042824,-26.8,-0.01,0.94,0.002,0.159,9.794,0.0,-0.01,-0.01
1777319088.0525608,-26.81,-0.01,0.94,0.006,0.164,9.793,0.0,0.0,0.0
1777319088.0624235,-26.81,-0.01,0.94,-0.004,0.157,9.798,0.0,-0.01,0.0
1777319088.0726967,-26.8,-0.01,0.94,-0.001,0.162,9.791,0.0,0.0,-0.01
1777319088.0825088,-26.8,-0.01,0.94,-0.008,0.16,9.794,0.0,0.0,-0.01
1777319088.0926373,-26.8,-0.01,0.94,-0.001,0.159,9.794,0.0,-0.01,-0.01
1777319088.102443,-26.8,-0.01,0.94,0.0,0.159,9.786,0.0,0.0,-0.01
1777319088.112458,-26.8,-0.01,0.94,-0.007,0.159,9.793,0.0,-0.01,-0.01
1777319088.1224513,-26.8,-0.01,0.94,-0.007,0.158,9.793,-0.01,-0.01,0.0
1777319088.1324162,-26.8,-0.01,0.94,-0.013,0.156,9.794,0.0,0.0,0.0
1777319088.1428711,-26.81,-0.01,0.94,-0.008,0.165,9.794,0.0,-0.01,0.0
1777319088.152577,-26.81,-0.01,0.94,-0.005,0.163,9.797,-0.01,-0.01,0.0
1777319088.162423,-26.8,-0.01,0.94,-0.001,0.166,9.796,0.0,-0.01,-0.01
1777319088.1723983,-26.8,-0.01,0.94,-0.005,0.164,9.797,-0.01,0.0,-0.01
1777319088.182436,-26.8,-0.01,0.94,0.0,0.166,9.791,0.0,-0.01,-0.01
1777319088.1924055,-26.8,-0.01,0.94,-0.006,0.166,9.793,-0.01,0.0,-0.01
1777319088.202398,-26.8,-0.01,0.94,-0.01,0.162,9.791,0.0,-0.01,0.0
1777319088.212387,-26.81,-0.01,0.94,-0.007,0.157,9.786,0.0,0.0,0.0
1777319088.2223957,-26.8,-0.01,0.94,-0.01,0.153,9.792,-0.01,0.0,-0.01
1777319088.2323594,-26.8,-0.01,0.94,-0.017,0.164,9.792,0.0,0.0,-0.01
1777319088.2424018,-26.8,-0.02,0.95,-0.012,0.165,9.794,0.0,0.0,-0.01
1777319088.2523997,-26.8,-0.02,0.95,-0.011,0.159,9.791,0.0,-0.01,-0.01
1777319088.2624161,-26.8,-0.01,0.94,-0.012,0.16,9.792,0.0,-0.01,0.0
1777319088.2724779,-26.8,-0.01,0.94,-0.005,0.166,9.79,-0.01,-0.01,0.0
1777319088.2824895,-26.81,-0.01,0.94,-0.008,0.165,9.792,0.0,0.0,-0.01
1777319088.2925742,-26.81,-0.02,0.95,-0.005,0.165,9.793,-0.01,0.0,0.0
1777319088.3023858,-26.81,-0.01,0.94,-0.004,0.163,9.798,-0.01,0.0,0.0
1777319088.3124633,-26.81,-0.01,0.94,0.0,0.158,9.798,0.0,-0.01,0.0
1777319088.3226016,-26.81,-0.01,0.94,0.006,0.159,9.802,-0.01,0.0,-0.01
1777319088.3323991,-26.81,-0.01,0.94,0.012,0.16,9.804,0.0,0.0,-0.01
1777319088.3423748,-26.8,-0.01,0.94,0.008,0.153,9.805,0.0,-0.01,-0.01
1777319088.3523533,-26.8,-0.01,0.94,0.007,0.154,9.804,-0.01,0.0,-0.01
1777319088.362383,-26.81,-0.01,0.94,0.002,0.157,9.8,0.0,0.0,-0.01
1777319088.372437,-26.81,-0.01,0.94,0.001,0.162,9.798,-0.01,-0.01,0.0
1777319088.3823538,-26.81,-0.01,0.94,-0.002,0.156,9.793,-0.01,0.0,0.0
1777319088.3931496,-26.81,-0.01,0.94,-0.002,0.156,9.796,0.0,0.0,-0.01
1777319088.4023585,-26.81,-0.01,0.94,-0.004,0.158,9.799,-0.01,0.0,-0.01
1777319088.4123676,-26.81,-0.01,0.94,-0.006,0.159,9.802,0.0,-0.01,-0.01
1777319088.4223871,-26.81,-0.01,0.94,-0.004,0.159,9.798,-0.01,-0.01,0.0
1777319088.43235,-26.81,-0.01,0.94,-0.004,0.159,9.802,0.0,0.0,0.0
1777319088.4423554,-26.81,-0.01,0.94,-0.004,0.163,9.803,-0.01,-0.01,0.0
1777319088.4523928,-26.81,-0.01,0.94,-0.007,0.16,9.8,0.0,-0.01,0.0
1777319088.4623513,-26.81,-0.01,0.94,-0.001,0.16,9.793,0.0,0.0,-0.01
1777319088.4723704,-26.81,-0.01,0.94,-0.002,0.16,9.791,-0.01,0.0,-0.01
1777319088.4823647,-26.81,-0.01,0.94,0.0,0.163,9.794,0.0,0.0,-0.01
1777319088.4923565,-26.81,-0.01,0.94,-0.002,0.162,9.797,0.0,0.0,-0.01
1777319088.5023541,-26.81,-0.01,0.94,-0.002,0.166,9.8,0.0,0.0,0.0
1777319088.5123672,-26.81,-0.01,0.94,0.005,0.168,9.802,0.0,0.0,0.0
1777319088.5224218,-26.81,-0.01,0.94,-0.002,0.162,9.804,-0.01,0.0,-0.01
1777319088.5324473,-26.81,-0.01,0.94,0.0,0.158,9.8,-0.01,-0.01,-0.01
1777319088.54261,-26.81,-0.01,0.94,-0.006,0.154,9.802,0.0,0.0,-0.01
1777319088.5523787,-26.81,-0.01,0.94,-0.011,0.163,9.804,0.0,-0.01,-0.01
1777319088.5623655,-26.81,-0.01,0.94,-0.01,0.168,9.798,-0.01,-0.01,0.0
1777319088.5723398,-26.81,-0.01,0.94,-0.013,0.164,9.798,0.0,0.0,0.0
1777319088.5824063,-26.81,-0.01,0.94,-0.01,0.164,9.794,0.0,0.0,-0.01
1777319088.5923839,-26.81,-0.01,0.94,-0.01,0.156,9.793,0.0,0.0,-0.01
1777319088.6023586,-26.81,-0.01,0.94,-0.004,0.157,9.797,0.0,-0.01,-0.01
1777319088.612338,-26.81,-0.01,0.94,-0.002,0.163,9.796,0.0,-0.01,0.0
1777319088.6223376,-26.81,-0.01,0.94,-0.001,0.16,9.79,0.0,0.0,0.0
1777319088.6323483,-26.81,-0.01,0.94,0.005,0.158,9.792,0.0,0.0,0.0
1777319088.642387,-26.81,-0.01,0.94,0.0,0.153,9.793,0.0,-0.01,-0.01
1777319088.6523716,-26.81,-0.01,0.94,0.0,0.154,9.786,-0.01,0.0,-0.01
1777319088.6623642,-26.81,-0.01,0.94,-0.007,0.148,9.793,0.0,0.0,0.0
1777319088.6723347,-26.81,-0.01,0.94,-0.004,0.154,9.787,0.0,0.0,0.0
1777319088.682304,-26.81,-0.01,0.94,-0.007,0.153,9.781,-0.01,0.0,0.0
1777319088.692312,-26.81,-0.01,0.94,-0.006,0.16,9.788,0.0,-0.01,-0.01
1777319088.7026403,-26.81,-0.01,0.94,-0.006,0.164,9.787,-0.01,-0.01,-0.01
1777319088.7123191,-26.81,-0.01,0.94,-0.004,0.164,9.788,0.0,-0.01,-0.01
1777319088.7223353,-26.81,-0.01,0.94,-0.006,0.172,9.79,-0.01,-0.01,-0.01
1777319088.732304,-26.81,-0.01,0.94,-0.002,0.172,9.796,-0.01,0.0,0.0
1777319088.7423131,-26.81,-0.01,0.94,0.001,0.169,9.793,-0.01,0.0,-0.01
1777319088.7522964,-26.81,-0.01,0.94,0.002,0.166,9.798,-0.01,-0.01,0.0
1777319088.7624545,-26.82,-0.01,0.94,0.007,0.164,9.797,0.0,0.0,0.0
1777319088.7726898,-26.82,-0.01,0.94,0.001,0.16,9.792,-0.01,0.0,0.0
1777319088.7816682,-26.82,-0.01,0.94,0.0,0.159,9.797,-0.01,0.0,0.0
1777319088.7923224,-26.82,-0.01,0.94,0.0,0.158,9.799,-0.01,0.0,0.0
1777319088.8023024,-26.82,-0.01,0.94,-0.001,0.159,9.802,0.0,-0.01,-0.01
1777319088.8123837,-26.82,-0.01,0.94,0.0,0.157,9.804,0.0,-0.01,-0.01
1777319088.8223217,-26.82,-0.01,0.94,0.0,0.156,9.805,0.0,-0.01,0.0
1777319088.8323126,-26.82,-0.01,0.94,-0.002,0.158,9.8,0.0,-0.01,0.0
1777319088.8416312,-26.82,-0.01,0.94,-0.004,0.163,9.803,0.0,0.0,0.0
1777319088.8522947,-26.82,-0.01,0.94,0.0,0.165,9.802,0.0,0.0,-0.01
1777319088.8622851,-26.82,-0.01,0.94,0.0,0.166,9.799,0.0,-0.01,-0.01
1777319088.8714614,-26.82,-0.01,0.94,0.002,0.163,9.797,0.0,0.0,-0.01
1777319088.882293,-26.82,-0.01,0.94,0.006,0.157,9.799,0.0,0.0,-0.01
1777319088.892292,-26.82,-0.01,0.94,0.005,0.153,9.802,-0.01,0.0,-0.01
