timestamp,yaw,pitch,roll,accel_x,accel_y,accel_z,gyro_x,gyro_y,gyro_z
1777316389.613606,0.83,0.33,0.77,0.056,0.129,9.81,-0.01,-0.01,0.0
1777316389.6235468,0.83,0.33,0.77,0.057,0.132,9.809,0.0,0.0,-0.01
1777316389.6335268,0.83,0.33,0.77,0.057,0.125,9.809,-0.01,0.0,-0.01
1777316389.6435266,0.83,0.33,0.77,0.055,0.126,9.809,-0.01,-0.01,0.0
1777316389.6535382,0.83,0.33,0.77,0.051,0.126,9.805,-0.01,-0.01,0.0
1777316389.6635091,0.83,0.33,0.77,0.05,0.128,9.806,-0.01,-0.01,0.0
1777316389.673529,0.83,0.33,0.77,0.055,0.132,9.808,0.0,-0.01,0.0
1777316389.6835148,0.83,0.33,0.77,0.051,0.134,9.809,-0.01,-0.01,-0.01
1777316389.693533,0.83,0.33,0.77,0.054,0.139,9.809,-0.01,0.0,0.0
1777316389.703518,0.83,0.33,0.77,0.054,0.144,9.809,-0.01,0.0,-0.01
1777316389.7135336,0.83,0.33,0.77,0.056,0.135,9.809,0.0,0.0,-0.01
1777316389.722667,0.83,0.33,0.77,0.056,0.133,9.809,-0.01,0.0,0.0
1777316389.7335348,0.83,0.33,0.77,0.06,0.134,9.81,0.0,-0.01,0.0
1777316389.7426329,0.83,0.33,0.77,0.06,0.132,9.81,-0.01,0.0,-0.01
1777316389.75263,0.83,0.33,0.77,0.054,0.128,9.81,-0.01,0.0,-0.01
1777316389.7626312,0.83,0.33,0.77,0.047,0.129,9.81,0.0,0.0,0.0
1777316389.77351,0.83,0.33,0.77,0.053,0.131,9.809,-0.01,0.0,0.0
1777316389.7826312,0.83,0.33,0.77,0.055,0.131,9.809,-0.01,0.0,0.0
1777316389.7926607,0.83,0.33,0.77,0.059,0.132,9.809,-0.01,-0.01,-0.01
1777316389.8026364,0.83,0.33,0.77,0.056,0.132,9.81,0.0,-0.01,0.0
1777316389.8126466,0.83,0.33,0.77,0.06,0.133,9.81,0.0,-0.01,-0.01
1777316389.8226607,0.83,0.33,0.77,0.055,0.131,9.81,0.0,-0.01,-0.01
1777316389.8326647,0.83,0.33,0.77,0.056,0.135,9.81,-0.01,-0.01,0.0
1777316389.843542,0.83,0.33,0.77,0.054,0.131,9.81,-0.01,-0.01,-0.01
1777316389.852664,0.83,0.33,0.77,0.053,0.135,9.81,0.0,0.0,0.0
1777316389.862667,0.83,0.33,0.77,0.049,0.135,9.81,0.0,0.0,0.0
1777316389.8726852,0.83,0.33,0.77,0.048,0.138,9.804,0.0,0.0,-0.01
1777316389.882907,0.83,0.33,0.77,0.05,0.137,9.805,0.0,-0.01,-0.01
1777316389.892631,0.83,0.33,0.78,0.048,0.139,9.805,-0.01,0.0,0.0
1777316389.9026477,0.83,0.33,0.78,0.053,0.133,9.805,-0.01,-0.01,-0.01
1777316389.9126437,0.83,0.33,0.77,0.053,0.133,9.806,-0.01,0.0,0.0
1777316389.9226465,0.83,0.33,0.77,0.053,0.132,9.808,-0.01,0.0,-0.01
1777316389.9326453,0.83,0.33,0.77,0.054,0.132,9.808,-0.01,0.0,-0.01
1777316389.9426777,0.83,0.33,0.78,0.056,0.131,9.809,-0.01,0.0,-0.01
1777316389.9526246,0.83,0.33,0.78,0.057,0.131,9.809,0.0,0.0,0.0
1777316389.962637,0.83,0.33,0.77,0.056,0.133,9.809,-0.01,0.0,0.0
1777316389.9726224,0.83,0.33,0.78,0.059,0.133,9.81,-0.01,-0.01,0.0
1777316389.9826324,0.83,0.33,0.77,0.057,0.129,9.81,-0.01,0.0,-0.01
1777316389.9926097,0.83,0.33,0.77,0.057,0.128,9.81,-0.01,0.0,0.0
1777316390.002644,0.83,0.33,0.77,0.055,0.131,9.81,-0.01,0.0,0.0
1777316390.012606,0.83,0.33,0.77,0.056,0.135,9.81,-0.01,0.0,0.0
1777316390.022635,0.83,0.33,0.77,0.057,0.135,9.81,-0.01,-0.01,0.0
1777316390.0326118,0.83,0.33,0.77,0.06,0.133,9.808,-0.01,-0.01,0.0
1777316390.0426476,0.83,0.33,0.77,0.055,0.132,9.809,-0.01,-0.01,0.0
1777316390.0526097,0.83,0.33,0.77,0.062,0.127,9.809,0.0,0.0,-0.01
1777316390.0626364,0.83,0.33,0.77,0.063,0.126,9.809,0.0,-0.01,0.0
1777316390.0726006,0.83,0.33,0.77,0.059,0.133,9.81,-0.01,0.0,0.0
1777316390.0826106,0.83,0.33,0.77,0.054,0.132,9.806,0.0,0.0,0.0
1777316390.0926237,0.83,0.33,0.77,0.055,0.127,9.805,-0.01,0.0,0.0
1777316390.1026087,0.83,0.33,0.77,0.055,0.125,9.805,-0.01,0.0,-0.01
1777316390.1126478,0.83,0.33,0.77,0.057,0.122,9.806,-0.01,0.0,-0.01
1777316390.1226203,0.83,0.33,0.77,0.059,0.123,9.808,-0.01,-0.01,-0.01
1777316390.132614,0.83,0.33,0.77,0.061,0.122,9.806,-0.01,-0.01,0.0
1777316390.142644,0.83,0.33,0.77,0.059,0.122,9.806,-0.01,0.0,-0.01
1777316390.1526003,0.83,0.33,0.77,0.062,0.126,9.808,0.0,0.0,0.0
1777316390.1626265,0.83,0.33,0.77,0.06,0.128,9.809,0.0,-0.01,-0.01
1777316390.1726005,0.83,0.33,0.77,0.062,0.129,9.809,0.0,0.0,-0.01
1777316390.1826382,0.83,0.33,0.77,0.068,0.129,9.809,-0.01,0.0,0.0
1777316390.1926398,0.83,0.34,0.77,0.069,0.127,9.809,-0.01,0.0,0.0
1777316390.202607,0.83,0.34,0.77,0.069,0.126,9.81,-0.01,0.0,0.0
1777316390.212616,0.83,0.34,0.77,0.071,0.123,9.81,-0.01,0.0,0.0
1777316390.2225804,0.83,0.34,0.77,0.068,0.126,9.81,-0.01,0.0,0.0
1777316390.232626,0.83,0.34,0.77,0.061,0.131,9.805,-0.01,-0.01,0.0
1777316390.2426255,0.83,0.34,0.77,0.055,0.131,9.806,0.0,0.0,0.0
1777316390.252606,0.83,0.34,0.77,0.055,0.126,9.808,0.0,0.0,0.0
1777316390.2625883,0.83,0.34,0.77,0.057,0.127,9.808,-0.01,0.0,0.0
1777316390.272603,0.83,0.34,0.77,0.054,0.127,9.808,0.0,0.0,0.0
1777316390.28263,0.83,0.34,0.77,0.054,0.125,9.808,0.0,-0.01,0.0
1777316390.2925851,0.83,0.34,0.77,0.054,0.125,9.809,0.0,-0.01,0.0
1777316390.3026304,0.83,0.34,0.77,0.054,0.128,9.809,0.0,0.0,0.0
1777316390.3126006,0.83,0.34,0.77,0.055,0.127,9.809,-0.01,0.0,-0.01
1777316390.3226283,0.83,0.34,0.77,0.053,0.127,9.81,0.0,-0.01,-0.01
1777316390.3325994,0.83,0.34,0.77,0.055,0.132,9.809,-0.01,0.0,0.0
1777316390.3426323,0.83,0.34,0.77,0.051,0.135,9.809,-0.01,0.0,0.0
1777316390.3525982,0.83,0.34,0.77,0.05,0.132,9.809,-0.01,0.0,0.0
1777316390.3625965,0.83,0.34,0.77,0.054,0.135,9.81,-0.01,0.0,0.0
1777316390.3726008,0.83,0.34,0.77,0.055,0.134,9.81,-0.01,-0.01,0.0
1777316390.3825812,0.83,0.34,0.77,0.054,0.135,9.809,-0.01,-0.01,0.0
1777316390.392628,0.83,0.34,0.77,0.05,0.135,9.809,-0.01,-0.01,0.0
1777316390.4026256,0.83,0.34,0.77,0.053,0.132,9.809,-0.01,0.0,0.0
1777316390.4126139,0.82,0.34,0.77,0.053,0.134,9.808,-0.01,-0.01,0.0
1777316390.4226172,0.82,0.34,0.77,0.054,0.132,9.806,-0.01,0.0,0.0
1777316390.4326174,0.82,0.34,0.77,0.053,0.132,9.805,-0.01,-0.01,0.0
1777316390.4426165,0.82,0.34,0.77,0.05,0.129,9.806,-0.01,-0.01,0.0
1777316390.4526165,0.82,0.34,0.77,0.054,0.134,9.808,-0.01,-0.01,0.0
1777316390.462652,0.82,0.34,0.77,0.053,0.131,9.808,-0.01,-0.01,0.0
1777316390.4726079,0.82,0.34,0.77,0.049,0.131,9.805,0.0,0.0,0.0
1777316390.4826188,0.82,0.34,0.77,0.049,0.128,9.806,-0.01,-0.01,0.0
1777316390.4926128,0.82,0.34,0.77,0.057,0.132,9.808,-0.01,-0.01,0.0
1777316390.5025644,0.82,0.34,0.77,0.06,0.128,9.808,-0.01,-0.01,0.0
1777316390.5125997,0.82,0.34,0.76,0.06,0.126,9.804,-0.01,0.0,0.0
1777316390.5226352,0.82,0.34,0.76,0.059,0.126,9.805,-0.01,-0.01,0.0
1777316390.5326285,0.82,0.34,0.76,0.059,0.129,9.806,-0.01,-0.01,0.0
1777316390.5425782,0.82,0.34,0.76,0.066,0.131,9.808,-0.01,0.0,0.0
1777316390.552622,0.82,0.34,0.76,0.061,0.137,9.809,-0.01,0.0,0.0
1777316390.5625842,0.82,0.34,0.77,0.057,0.133,9.808,-0.01,0.0,-0.01
1777316390.5726209,0.82,0.34,0.77,0.054,0.132,9.808,0.0,0.0,-0.01
1777316390.5825968,0.82,0.34,0.77,0.051,0.132,9.808,-0.01,-0.01,0.0
1777316390.592626,0.82,0.34,0.76,0.047,0.135,9.809,-0.01,0.0,0.0
1777316390.6025753,0.82,0.34,0.77,0.044,0.135,9.809,-0.01,0.0,0.0
1777316390.6126103,0.82,0.34,0.77,0.044,0.138,9.809,-0.01,0.0,-0.01
1777316390.6225612,0.82,0.33,0.77,0.048,0.133,9.808,-0.01,0.0,0.0
1777316390.632613,0.82,0.33,0.76,0.048,0.135,9.808,-0.01,0.0,-0.01
1777316390.6425543,0.82,0.33,0.77,0.048,0.134,9.809,-0.01,-0.01,-0.01
1777316390.6525578,0.82,0.33,0.77,0.056,0.132,9.809,-0.01,0.0,-0.01
1777316390.662587,0.82,0.33,0.76,0.054,0.131,9.809,-0.01,0.0,0.0
1777316390.672535,0.82,0.34,0.76,0.057,0.131,9.809,-0.01,0.0,0.0
1777316390.6825671,0.82,0.34,0.76,0.06,0.131,9.804,-0.01,-0.01,0.0
1777316390.6925864,0.82,0.34,0.76,0.06,0.131,9.802,-0.01,0.0,0.0
1777316390.7025516,0.82,0.34,0.76,0.059,0.134,9.804,-0.01,0.0,0.0
1777316390.7125902,0.82,0.34,0.76,0.055,0.135,9.803,-0.01,0.0,-0.01
1777316390.7225928,0.82,0.34,0.76,0.056,0.131,9.805,-0.01,-0.01,-0.01
1777316390.7325563,0.82,0.34,0.76,0.055,0.129,9.806,-0.01,-0.01,0.0
1777316390.7425885,0.82,0.34,0.76,0.056,0.129,9.808,-0.01,-0.01,0.0
1777316390.7517507,0.82,0.34,0.76,0.063,0.128,9.808,0.0,0.0,0.0
1777316390.7625875,0.82,0.34,0.76,0.062,0.132,9.809,-0.01,-0.01,-0.01
1777316390.7725546,0.82,0.34,0.76,0.062,0.135,9.809,-0.01,0.0,0.0
1777316390.7825742,0.82,0.34,0.76,0.068,0.137,9.809,-0.01,0.0,0.0
1777316390.7925425,0.82,0.34,0.77,0.068,0.135,9.809,-0.01,0.0,0.0
1777316390.8017285,0.82,0.34,0.76,0.063,0.133,9.809,-0.01,-0.01,-0.01
1777316390.8125591,0.82,0.34,0.76,0.061,0.134,9.805,-0.01,-0.01,0.0
1777316390.8225713,0.82,0.34,0.76,0.062,0.131,9.806,-0.01,0.0,0.0
1777316390.8317509,0.82,0.34,0.76,0.059,0.134,9.808,0.0,0.0,-0.01
1777316390.842571,0.82,0.34,0.77,0.054,0.135,9.808,-0.01,0.0,-0.01
1777316390.8517387,0.82,0.34,0.77,0.057,0.133,9.806,0.0,-0.01,0.0
1777316390.8625603,0.82,0.34,0.77,0.063,0.134,9.805,-0.01,0.0,0.0
1777316390.8725429,0.82,0.34,0.77,0.061,0.137,9.806,-0.01,-0.01,-0.01
1777316390.8825753,0.82,0.34,0.77,0.056,0.135,9.808,0.0,0.0,-0.01
1777316390.8925421,0.82,0.34,0.77,0.055,0.133,9.808,-0.01,0.0,0.0
1777316390.9017394,0.82,0.34,0.77,0.055,0.134,9.809,-0.01,-0.01,0.0
1777316390.912569,0.82,0.34,0.77,0.056,0.131,9.809,0.0,-0.01,0.0
1777316390.9217224,0.82,0.34,0.77,0.054,0.132,9.809,-0.01,-0.01,0.0
1777316390.9317627,0.82,0.34,0.77,0.055,0.129,9.809,-0.01,0.0,0.0
1777316390.9417129,0.82,0.34,0.77,0.053,0.128,9.808,-0.01,0.0,0.0
1777316390.9517233,0.82,0.34,0.77,0.057,0.127,9.808,-0.01,0.0,0.0
1777316390.9616888,0.82,0.34,0.76,0.061,0.125,9.809,-0.01,0.0,0.0
1777316390.9717252,0.82,0.34,0.76,0.059,0.123,9.809,-0.01,0.0,0.0
1777316390.982562,0.82,0.34,0.76,0.057,0.125,9.809,0.0,-0.01,-0.01
1777316390.9917274,0.82,0.34,0.76,0.06,0.129,9.81,-0.01,0.0,-0.01
1777316391.0017083,0.82,0.34,0.76,0.059,0.127,9.806,-0.01,-0.01,0.0
1777316391.0117233,0.82,0.34,0.76,0.06,0.126,9.805,-0.01,-0.01,0.0
1777316391.0217073,0.82,0.34,0.76,0.061,0.123,9.806,-0.01,0.0,-0.01
1777316391.0317032,0.82,0.34,0.76,0.059,0.121,9.808,-0.01,0.0,0.0
1777316391.0417192,0.82,0.34,0.76,0.056,0.123,9.806,0.0,0.0,0.0
1777316391.051723,0.82,0.34,0.76,0.055,0.12,9.805,-0.01,-0.01,0.0
1777316391.0617094,0.82,0.34,0.76,0.06,0.12,9.806,-0.01,0.0,0.0
1777316391.0717247,0.82,0.34,0.76,0.065,0.12,9.808,-0.01,-0.01,0.0
1777316391.0817075,0.82,0.34,0.76,0.063,0.12,9.809,-0.01,-0.01,-0.01
1777316391.0917282,0.82,0.34,0.76,0.061,0.122,9.809,-0.01,-0.01,0.0
1777316391.1017094,0.82,0.34,0.76,0.065,0.123,9.809,-0.01,0.0,-0.01
1777316391.1116936,0.82,0.34,0.76,0.061,0.125,9.809,-0.01,-0.01,0.0
1777316391.1216848,0.82,0.34,0.76,0.06,0.129,9.81,-0.01,-0.01,-0.01
1777316391.1317136,0.82,0.34,0.76,0.063,0.123,9.81,-0.01,0.0,0.0
1777316391.1417317,0.82,0.34,0.76,0.061,0.131,9.81,0.0,0.0,0.0
1777316391.1517074,0.82,0.34,0.76,0.059,0.132,9.81,0.0,0.0,0.0
1777316391.1616628,0.82,0.34,0.76,0.054,0.135,9.805,0.0,0.0,-0.01
1777316391.1716764,0.82,0.34,0.76,0.053,0.139,9.805,0.0,0.0,0.0
1777316391.18165,0.82,0.34,0.76,0.05,0.137,9.806,0.0,-0.01,-0.01
1777316391.1916673,0.82,0.34,0.76,0.051,0.133,9.806,-0.01,0.0,0.0
1777316391.2016587,0.82,0.34,0.76,0.051,0.133,9.808,-0.01,0.0,-0.01
1777316391.2117147,0.82,0.34,0.76,0.051,0.134,9.808,-0.01,0.0,-0.01
1777316391.2216723,0.82,0.34,0.76,0.055,0.133,9.809,0.0,-0.01,0.0
1777316391.2316782,0.82,0.34,0.76,0.057,0.139,9.806,-0.01,-0.01,-0.01
1777316391.2417023,0.82,0.34,0.76,0.06,0.134,9.806,-0.01,0.0,-0.01
1777316391.2516668,0.82,0.34,0.76,0.059,0.133,9.808,-0.01,0.0,0.0
1777316391.2616823,0.82,0.34,0.76,0.053,0.131,9.808,0.0,-0.01,0.0
1777316391.2716744,0.82,0.34,0.76,0.05,0.132,9.806,-0.01,0.0,-0.01
1777316391.2816918,0.82,0.34,0.76,0.049,0.137,9.805,-0.01,0.0,0.0
1777316391.2916603,0.82,0.34,0.76,0.049,0.138,9.8,-0.01,0.0,-0.01
1777316391.3016756,0.82,0.34,0.76,0.057,0.137,9.799,0.0,0.0,0.0
1777316391.311688,0.82,0.34,0.76,0.059,0.137,9.802,-0.01,0.0,0.0
1777316391.3216739,0.82,0.34,0.76,0.06,0.139,9.804,0.0,-0.01,-0.01
1777316391.3316288,0.82,0.34,0.77,0.062,0.139,9.805,-0.01,0.0,-0.01
1777316391.3416765,0.82,0.34,0.76,0.061,0.137,9.803,-0.01,-0.01,-0.01
1777316391.3516572,0.82,0.34,0.76,0.057,0.131,9.805,-0.01,0.0,0.0
1777316391.361661,0.82,0.34,0.76,0.054,0.133,9.806,-0.01,-0.01,0.0
1777316391.3716307,0.82,0.34,0.76,0.053,0.133,9.802,0.0,0.0,0.0
1777316391.3816612,0.82,0.34,0.76,0.055,0.133,9.799,-0.01,0.0,-0.01
1777316391.3916552,0.82,0.34,0.76,0.049,0.133,9.802,-0.01,-0.01,0.0
1777316391.401658,0.82,0.34,0.77,0.051,0.134,9.803,-0.01,-0.01,-0.01
1777316391.4116778,0.82,0.34,0.77,0.051,0.131,9.804,-0.01,0.0,0.0
1777316391.4217088,0.82,0.34,0.76,0.054,0.134,9.806,0.0,-0.01,0.0
1777316391.4316444,0.82,0.34,0.77,0.051,0.135,9.808,-0.01,0.0,0.0
1777316391.4416788,0.82,0.34,0.77,0.047,0.131,9.808,-0.01,0.0,0.0
1777316391.4516437,0.82,0.34,0.76,0.046,0.132,9.808,-0.01,-0.01,0.0
1777316391.4616938,0.82,0.34,0.77,0.05,0.131,9.809,-0.01,0.0,0.0
1777316391.4716437,0.82,0.34,0.76,0.053,0.132,9.809,-0.01,0.0,-0.01
1777316391.4816651,0.82,0.34,0.76,0.054,0.131,9.809,-0.01,0.0,0.0
1777316391.4916513,0.82,0.34,0.76,0.054,0.135,9.81,-0.01,0.0,0.0
1777316391.501681,0.82,0.34,0.76,0.054,0.129,9.809,-0.01,-0.01,-0.01
1777316391.511646,0.82,0.34,0.76,0.055,0.126,9.809,-0.01,0.0,-0.01
1777316391.52165,0.82,0.34,0.76,0.059,0.129,9.81,-0.01,-0.01,-0.01
1777316391.5316305,0.82,0.34,0.76,0.059,0.134,9.81,-0.01,-0.01,0.0
1777316391.5416512,0.82,0.34,0.76,0.056,0.133,9.81,-0.01,-0.01,0.0
1777316391.5516338,0.82,0.34,0.76,0.055,0.133,9.809,-0.01,0.0,-0.01
1777316391.5616553,0.82,0.34,0.76,0.054,0.135,9.809,0.0,0.0,0.0
1777316391.5716484,0.82,0.34,0.76,0.05,0.139,9.806,-0.01,-0.01,0.0
1777316391.5816505,0.82,0.34,0.77,0.053,0.14,9.806,-0.01,0.0,0.0
1777316391.591649,0.82,0.34,0.77,0.055,0.139,9.804,0.0,0.0,0.0
1777316391.6020582,0.82,0.34,0.77,0.054,0.138,9.805,0.0,0.0,-0.01
1777316391.6120377,0.82,0.34,0.77,0.054,0.133,9.806,-0.01,-0.01,0.0
1777316391.6220396,0.82,0.34,0.77,0.051,0.129,9.804,0.0,-0.01,0.0
1777316391.6316433,0.82,0.34,0.77,0.046,0.133,9.806,-0.01,-0.01,-0.01
1777316391.6416473,0.82,0.34,0.77,0.049,0.133,9.805,-0.01,-0.01,0.0
1777316391.6515803,0.82,0.34,0.77,0.053,0.133,9.806,0.0,0.0,0.0
1777316391.6616082,0.82,0.34,0.77,0.054,0.131,9.808,-0.01,0.0,0.0
1777316391.6716387,0.82,0.34,0.77,0.05,0.131,9.808,-0.01,-0.01,0.0
1777316391.6816285,0.82,0.34,0.77,0.053,0.125,9.808,-0.01,0.0,-0.01
1777316391.6916392,0.82,0.34,0.77,0.047,0.128,9.804,0.0,0.0,0.0
1777316391.701612,0.82,0.34,0.77,0.048,0.131,9.806,0.0,-0.01,-0.01
1777316391.711781,0.82,0.34,0.77,0.05,0.128,9.805,-0.01,0.0,0.0
1777316391.7216098,0.82,0.34,0.76,0.053,0.129,9.804,-0.01,0.0,-0.01
1777316391.7317712,0.82,0.33,0.77,0.054,0.131,9.805,-0.01,0.0,-0.01
1777316391.7416303,0.82,0.34,0.76,0.051,0.125,9.806,-0.01,0.0,-0.01
1777316391.7515938,0.82,0.34,0.76,0.049,0.127,9.805,-0.01,-0.01,0.0
1777316391.761647,0.82,0.34,0.76,0.056,0.123,9.806,-0.01,-0.01,0.0
1777316391.7715805,0.82,0.34,0.76,0.057,0.122,9.808,0.0,0.0,0.0
1777316391.7816133,0.82,0.34,0.76,0.063,0.127,9.805,-0.01,0.0,0.0
1777316391.7915783,0.82,0.34,0.76,0.066,0.125,9.806,-0.01,-0.01,0.0
1777316391.801596,0.82,0.34,0.76,0.069,0.122,9.808,0.0,0.0,0.0
1777316391.8115952,0.82,0.34,0.76,0.066,0.125,9.797,-0.01,-0.01,-0.01
1777316391.8215659,0.82,0.34,0.76,0.06,0.128,9.793,-0.01,0.0,-0.01
1777316391.8315969,0.82,0.34,0.76,0.054,0.133,9.797,-0.01,0.0,0.0
1777316391.8416226,0.82,0.34,0.76,0.061,0.134,9.8,-0.01,0.0,0.0
1777316391.8515801,0.82,0.34,0.76,0.057,0.131,9.803,-0.01,-0.01,0.0
1777316391.8607724,0.82,0.34,0.76,0.055,0.135,9.805,-0.01,0.0,-0.01
1777316391.8715823,0.82,0.34,0.76,0.062,0.134,9.804,-0.01,0.0,0.0
1777316391.880749,0.82,0.34,0.76,0.06,0.129,9.805,-0.01,-0.01,0.0
1777316391.8915894,0.82,0.34,0.76,0.059,0.129,9.806,-0.01,-0.01,0.0
1777316391.9016004,0.82,0.34,0.76,0.054,0.129,9.806,-0.01,0.0,0.0
1777316391.9107652,0.82,0.34,0.76,0.057,0.127,9.808,-0.01,0.0,0.0
1777316391.921607,0.82,0.34,0.76,0.061,0.127,9.809,-0.01,-0.01,0.0
1777316391.930793,0.82,0.34,0.76,0.056,0.132,9.809,-0.01,0.0,0.0
1777316391.9407597,0.82,0.34,0.76,0.053,0.129,9.809,-0.01,-0.01,-0.01
1777316391.9515831,0.82,0.34,0.76,0.051,0.127,9.809,-0.01,0.0,-0.01
1777316391.9607797,0.82,0.34,0.76,0.054,0.126,9.81,-0.01,-0.01,-0.01
1777316391.971583,0.82,0.34,0.76,0.053,0.126,9.81,-0.01,0.0,0.0
1777316391.9807506,0.82,0.34,0.76,0.05,0.123,9.81,-0.01,-0.01,0.0
1777316391.9915757,0.82,0.34,0.76,0.054,0.125,9.81,-0.01,0.0,0.0
1777316392.0007508,0.82,0.34,0.76,0.055,0.121,9.806,-0.01,0.0,-0.01
1777316392.0107412,0.82,0.34,0.76,0.054,0.126,9.804,0.0,0.0,0.0
1777316392.021589,0.82,0.34,0.76,0.057,0.129,9.804,-0.01,0.0,0.0
1777316392.0307279,0.82,0.34,0.76,0.053,0.126,9.803,0.0,-0.01,-0.01
1777316392.0415883,0.82,0.34,0.76,0.056,0.126,9.803,-0.01,0.0,0.0
1777316392.0507557,0.82,0.34,0.76,0.057,0.131,9.802,-0.01,0.0,0.0
1777316392.0607283,0.82,0.34,0.76,0.056,0.132,9.803,-0.01,0.0,0.0
1777316392.0707269,0.82,0.34,0.76,0.061,0.134,9.805,0.0,-0.01,-0.01
1777316392.0807664,0.82,0.34,0.76,0.061,0.135,9.804,-0.01,0.0,-0.01
1777316392.0907266,0.82,0.34,0.76,0.059,0.135,9.806,-0.01,0.0,-0.01
1777316392.1007316,0.82,0.34,0.76,0.057,0.134,9.804,-0.01,-0.01,-0.01
1777316392.1107485,0.82,0.34,0.76,0.053,0.137,9.804,-0.01,-0.01,0.0
1777316392.120727,0.82,0.34,0.76,0.055,0.134,9.805,-0.01,-0.01,-0.01
1777316392.1307442,0.82,0.34,0.76,0.054,0.14,9.803,-0.01,0.0,0.0
1777316392.1407175,0.82,0.34,0.76,0.05,0.135,9.805,0.0,0.0,0.0
1777316392.1507552,0.82,0.34,0.76,0.054,0.131,9.806,-0.01,0.0,-0.01
1777316392.1607318,0.82,0.34,0.76,0.062,0.123,9.808,0.0,-0.01,-0.01
1777316392.1707604,0.82,0.34,0.76,0.055,0.122,9.8,-0.01,-0.01,0.0
1777316392.1807168,0.82,0.34,0.76,0.049,0.127,9.803,-0.01,0.0,0.0
1777316392.1907132,0.82,0.34,0.76,0.046,0.133,9.805,-0.01,0.0,0.0
1777316392.200703,0.82,0.34,0.76,0.05,0.14,9.806,-0.01,-0.01,0.0
1777316392.210711,0.82,0.34,0.76,0.047,0.141,9.808,-0.01,-0.01,0.0
1777316392.2206998,0.82,0.34,0.76,0.049,0.141,9.808,-0.01,0.0,0.0
1777316392.230711,0.82,0.34,0.76,0.048,0.137,9.806,-0.01,0.0,0.0
1777316392.2406836,0.82,0.34,0.76,0.05,0.133,9.806,0.0,-0.01,0.0
1777316392.250709,0.82,0.34,0.76,0.048,0.137,9.806,-0.01,-0.01,0.0
1777316392.2607012,0.82,0.34,0.76,0.049,0.133,9.808,-0.01,-0.01,0.0
1777316392.27073,0.82,0.34,0.76,0.059,0.127,9.808,-0.01,0.0,0.0
1777316392.2807345,0.82,0.34,0.76,0.06,0.125,9.808,-0.01,-0.01,-0.01
1777316392.2907317,0.82,0.34,0.76,0.055,0.126,9.808,0.0,0.0,0.0
1777316392.3007026,0.82,0.34,0.76,0.053,0.129,9.809,-0.01,-0.01,0.0
1777316392.3107126,0.81,0.34,0.76,0.051,0.131,9.808,-0.01,0.0,0.0
1777316392.3206906,0.81,0.34,0.76,0.057,0.132,9.808,0.0,-0.01,0.0
1777316392.3307467,0.81,0.34,0.76,0.054,0.133,9.809,-0.01,0.0,-0.01
1777316392.3406608,0.82,0.34,0.76,0.06,0.129,9.809,-0.01,0.0,-0.01
1777316392.3507118,0.82,0.34,0.76,0.057,0.127,9.809,-0.01,0.0,-0.01
1777316392.360658,0.81,0.34,0.76,0.054,0.134,9.809,-0.01,0.0,0.0
1777316392.370659,0.82,0.34,0.76,0.059,0.133,9.81,0.0,0.0,0.0
1777316392.3807182,0.82,0.34,0.76,0.055,0.137,9.81,0.0,0.0,-0.01
1777316392.3906617,0.82,0.34,0.76,0.053,0.139,9.809,-0.01,0.0,-0.01
1777316392.40066,0.82,0.34,0.76,0.049,0.138,9.809,-0.01,0.0,-0.01
1777316392.4106739,0.81,0.33,0.76,0.05,0.138,9.806,-0.01,0.0,0.0
1777316392.4206395,0.81,0.33,0.76,0.053,0.14,9.808,-0.01,0.0,0.0
1777316392.4306755,0.81,0.33,0.76,0.055,0.139,9.808,-0.01,0.0,0.0
1777316392.4406908,0.81,0.34,0.76,0.055,0.14,9.809,0.0,-0.01,-0.01
1777316392.450675,0.81,0.34,0.77,0.06,0.139,9.809,0.0,-0.01,0.0
1777316392.4606876,0.81,0.34,0.77,0.057,0.139,9.809,-0.01,-0.01,0.0
1777316392.470696,0.81,0.34,0.77,0.05,0.139,9.809,-0.01,-0.01,-0.01
1777316392.4806426,0.81,0.34,0.77,0.048,0.138,9.805,0.0,-0.01,0.0
1777316392.4906907,0.81,0.34,0.77,0.049,0.139,9.806,-0.01,-0.01,0.0
1777316392.5006742,0.81,0.34,0.77,0.048,0.139,9.808,-0.01,-0.01,-0.01
1777316392.510675,0.81,0.34,0.77,0.047,0.137,9.808,-0.01,0.0,0.0
1777316392.5206428,0.81,0.34,0.77,0.053,0.135,9.809,-0.01,0.0,0.0
1777316392.5307784,0.81,0.34,0.77,0.054,0.135,9.809,-0.01,-0.01,-0.01
1777316392.5408325,0.81,0.34,0.77,0.05,0.135,9.809,-0.01,-0.01,0.0
1777316392.5506608,0.81,0.34,0.77,0.055,0.134,9.803,-0.01,0.0,0.0
1777316392.560707,0.81,0.34,0.77,0.056,0.131,9.799,-0.01,0.0,-0.01
1777316392.5706632,0.81,0.34,0.77,0.056,0.134,9.798,0.0,-0.01,0.0
1777316392.580704,0.81,0.34,0.77,0.053,0.131,9.799,-0.01,0.0,0.0
1777316392.5906587,0.81,0.34,0.77,0.056,0.131,9.8,-0.01,0.0,0.0
1777316392.600696,0.81,0.34,0.77,0.057,0.138,9.799,-0.01,-0.01,0.0
1777316392.6106632,0.81,0.34,0.77,0.049,0.139,9.799,0.0,-0.01,0.0
1777316392.6206617,0.81,0.34,0.77,0.053,0.134,9.802,0.0,0.0,0.0
1777316392.6310563,0.81,0.34,0.77,0.048,0.129,9.804,0.0,0.0,0.0
1777316392.6406672,0.81,0.34,0.77,0.047,0.132,9.805,-0.01,0.0,-0.01
1777316392.650653,0.81,0.34,0.77,0.051,0.134,9.805,0.0,-0.01,-0.01
1777316392.6606739,0.81,0.34,0.77,0.055,0.126,9.805,-0.01,-0.01,0.0
1777316392.670673,0.81,0.34,0.77,0.061,0.125,9.806,-0.01,-0.01,-0.01
1777316392.6806502,0.81,0.34,0.77,0.06,0.119,9.798,-0.01,-0.01,0.0
1777316392.6906717,0.81,0.34,0.77,0.054,0.117,9.802,-0.01,-0.01,0.0
1777316392.7006845,0.81,0.34,0.77,0.053,0.117,9.803,-0.01,0.0,0.0
1777316392.7106755,0.81,0.34,0.77,0.055,0.115,9.804,-0.01,0.0,0.0
1777316392.720673,0.81,0.34,0.76,0.054,0.12,9.8,0.0,0.0,-0.01
1777316392.7306762,0.81,0.34,0.77,0.05,0.123,9.799,-0.01,-0.01,0.0
1777316392.7406375,0.81,0.34,0.77,0.051,0.126,9.802,-0.01,-0.01,0.0
1777316392.7506692,0.81,0.34,0.77,0.059,0.126,9.803,0.0,-0.01,0.0
1777316392.7606826,0.81,0.34,0.77,0.061,0.127,9.804,0.0,-0.01,0.0
1777316392.7706585,0.81,0.34,0.77,0.059,0.131,9.806,-0.01,0.0,0.0
1777316392.7806726,0.81,0.34,0.77,0.061,0.128,9.808,-0.01,0.0,0.0
1777316392.7906723,0.81,0.34,0.77,0.055,0.127,9.808,-0.01,-0.01,-0.01
1777316392.8006725,0.81,0.34,0.77,0.059,0.125,9.809,0.0,0.0,-0.01
1777316392.8106751,0.81,0.34,0.76,0.056,0.123,9.809,-0.01,-0.01,0.0
1777316392.8206418,0.81,0.34,0.76,0.057,0.125,9.809,-0.01,-0.01,0.0
1777316392.830676,0.81,0.34,0.76,0.065,0.127,9.809,0.0,0.0,-0.01
1777316392.8406265,0.81,0.34,0.76,0.063,0.129,9.809,-0.01,0.0,0.0
1777316392.8506422,0.81,0.34,0.76,0.056,0.131,9.809,-0.01,0.0,0.0
1777316392.8606071,0.81,0.34,0.76,0.055,0.126,9.809,-0.01,0.0,0.0
1777316392.870642,0.81,0.34,0.76,0.053,0.128,9.808,-0.01,0.0,-0.01
1777316392.8806298,0.81,0.34,0.76,0.057,0.129,9.809,-0.01,0.0,-0.01
1777316392.8906775,0.81,0.34,0.76,0.059,0.133,9.809,-0.01,-0.01,-0.01
1777316392.9006414,0.81,0.34,0.76,0.059,0.133,9.809,-0.01,-0.01,0.0
1777316392.9106107,0.81,0.34,0.76,0.06,0.129,9.809,0.0,-0.01,0.0
1777316392.9206264,0.81,0.34,0.76,0.061,0.125,9.81,0.0,0.0,0.0
1777316392.9306116,0.81,0.34,0.76,0.059,0.127,9.81,-0.01,0.0,-0.01
1777316392.9406426,0.81,0.34,0.76,0.056,0.126,9.809,-0.01,-0.01,-0.01
1777316392.9507515,0.81,0.34,0.76,0.054,0.128,9.802,-0.01,-0.01,-0.01
1777316392.9606345,0.81,0.34,0.76,0.053,0.128,9.804,-0.01,-0.01,0.0
1777316392.9706228,0.81,0.34,0.76,0.049,0.128,9.804,0.0,0.0,0.0
1777316392.9805982,0.81,0.34,0.76,0.053,0.135,9.804,-0.01,0.0,0.0
1777316392.9906301,0.81,0.34,0.76,0.056,0.139,9.805,0.0,0.0,-0.01
1777316392.9998085,0.81,0.34,0.76,0.06,0.135,9.803,0.0,-0.01,-0.01
1777316393.0106258,0.81,0.34,0.76,0.061,0.125,9.802,-0.01,-0.01,0.0
1777316393.0198042,0.81,0.34,0.76,0.057,0.122,9.796,0.0,0.0,0.0
1777316393.0306125,0.81,0.34,0.76,0.053,0.122,9.799,0.0,0.0,0.0
1777316393.0406458,0.81,0.34,0.76,0.053,0.127,9.802,-0.01,-0.01,0.0
1777316393.0506113,0.81,0.34,0.76,0.055,0.126,9.804,-0.01,0.0,0.0
1777316393.059789,0.81,0.34,0.76,0.055,0.123,9.805,-0.01,0.0,-0.01
1777316393.0706105,0.81,0.34,0.76,0.051,0.123,9.803,-0.01,-0.01,0.0
1777316393.0805938,0.81,0.34,0.76,0.047,0.123,9.798,-0.01,-0.01,0.0
1777316393.0906246,0.81,0.34,0.76,0.044,0.131,9.802,-0.01,0.0,0.0
1777316393.0997922,0.81,0.34,0.76,0.048,0.131,9.803,0.0,0.0,-0.01
1777316393.1106102,0.81,0.34,0.76,0.042,0.129,9.804,-0.01,0.0,0.0
1777316393.1197891,0.81,0.34,0.76,0.046,0.131,9.803,-0.01,-0.01,0.0
1777316393.1306102,0.81,0.34,0.76,0.047,0.137,9.803,-0.01,0.0,0.0
1777316393.1397808,0.81,0.34,0.76,0.05,0.135,9.803,-0.01,-0.01,0.0
1777316393.1506083,0.81,0.34,0.76,0.05,0.137,9.804,-0.01,-0.01,0.0
1777316393.1597748,0.81,0.34,0.76,0.054,0.132,9.804,-0.01,-0.01,0.0
1777316393.1706107,0.81,0.34,0.76,0.055,0.132,9.805,-0.01,-0.01,0.0
1777316393.180598,0.81,0.34,0.76,0.056,0.131,9.806,-0.01,-0.01,-0.01
1777316393.189759,0.81,0.34,0.76,0.056,0.137,9.808,-0.01,0.0,0.0
1777316393.1998014,0.81,0.34,0.76,0.057,0.134,9.806,-0.01,-0.01,0.0
1777316393.2097597,0.81,0.34,0.76,0.06,0.131,9.806,-0.01,-0.01,0.0
1777316393.2197785,0.81,0.34,0.76,0.056,0.126,9.808,-0.01,0.0,0.0
1777316393.2297618,0.81,0.34,0.76,0.059,0.133,9.808,-0.01,-0.01,-0.01
1777316393.2397852,0.81,0.34,0.76,0.06,0.134,9.809,-0.01,-0.01,-0.01
1777316393.2498043,0.81,0.34,0.76,0.059,0.133,9.806,0.0,-0.01,0.0
1777316393.2598853,0.81,0.34,0.76,0.055,0.131,9.808,-0.01,-0.01,0.0
1777316393.2698045,0.81,0.34,0.76,0.05,0.131,9.805,-0.01,0.0,0.0
1777316393.279777,0.81,0.34,0.76,0.051,0.134,9.806,-0.01,-0.01,0.0
1777316393.2897902,0.81,0.34,0.76,0.056,0.138,9.808,0.0,0.0,-0.01
1777316393.2997456,0.81,0.34,0.76,0.061,0.139,9.809,-0.01,0.0,0.0
1777316393.3097184,0.81,0.34,0.76,0.06,0.134,9.809,-0.01,0.0,0.0
1777316393.3198965,0.81,0.34,0.76,0.059,0.132,9.809,0.0,0.0,0.0
1777316393.3297503,0.81,0.34,0.76,0.061,0.131,9.809,-0.01,0.0,0.0
1777316393.339899,0.81,0.34,0.76,0.057,0.128,9.81,-0.01,-0.01,0.0
1777316393.349749,0.81,0.34,0.76,0.053,0.132,9.81,-0.01,0.0,0.0
1777316393.3598838,0.81,0.34,0.76,0.049,0.132,9.805,-0.01,0.0,-0.01
1777316393.3697417,0.81,0.34,0.76,0.051,0.134,9.805,-0.01,-0.01,-0.01
1777316393.3798897,0.81,0.34,0.76,0.057,0.134,9.8,-0.01,0.0,-0.01
1777316393.3897383,0.81,0.34,0.76,0.055,0.132,9.803,-0.01,-0.01,0.0
1777316393.3999033,0.81,0.34,0.76,0.056,0.131,9.804,-0.01,-0.01,0.0
1777316393.4097202,0.81,0.34,0.76,0.059,0.128,9.805,-0.01,0.0,0.0
1777316393.4196906,0.81,0.34,0.76,0.056,0.125,9.806,-0.01,-0.01,-0.01
1777316393.429706,0.81,0.34,0.76,0.054,0.125,9.808,0.0,0.0,-0.01
1777316393.4398403,0.81,0.34,0.76,0.054,0.122,9.808,-0.01,0.0,-0.01
1777316393.4497042,0.81,0.34,0.76,0.049,0.132,9.809,0.0,-0.01,0.0
1777316393.4598236,0.81,0.34,0.76,0.05,0.133,9.809,-0.01,-0.01,-0.01
1777316393.469832,0.81,0.34,0.76,0.054,0.132,9.805,-0.01,0.0,-0.01
1777316393.4798417,0.81,0.34,0.76,0.05,0.129,9.806,-0.01,0.0,-0.01
1777316393.4897206,0.81,0.34,0.76,0.055,0.131,9.808,-0.01,-0.01,-0.01
1777316393.4996722,0.81,0.34,0.76,0.049,0.129,9.809,-0.01,0.0,-0.01
1777316393.5096989,0.81,0.34,0.76,0.049,0.133,9.809,-0.01,0.0,0.0
1777316393.5197191,0.81,0.34,0.76,0.054,0.128,9.809,-0.01,0.0,0.0
1777316393.529685,0.81,0.34,0.76,0.054,0.128,9.809,-0.01,0.0,0.0
1777316393.539707,0.81,0.33,0.76,0.053,0.127,9.81,-0.01,0.0,0.0
1777316393.5496836,0.81,0.33,0.76,0.057,0.133,9.81,-0.01,0.0,-0.01
1777316393.5596917,0.81,0.33,0.76,0.061,0.135,9.808,0.0,0.0,-0.01
1777316393.5696974,0.81,0.34,0.76,0.061,0.135,9.809,-0.01,0.0,-0.01
1777316393.5797,0.81,0.34,0.76,0.062,0.133,9.806,-0.01,0.0,0.0
1777316393.5896657,0.81,0.34,0.76,0.067,0.137,9.808,0.0,-0.01,0.0
1777316393.599737,0.81,0.34,0.76,0.063,0.134,9.808,-0.01,0.0,-0.01
1777316393.6096911,0.81,0.34,0.76,0.061,0.128,9.809,-0.01,0.0,0.0
1777316393.6196792,0.81,0.33,0.76,0.06,0.131,9.806,-0.01,0.0,0.0
1777316393.6297174,0.81,0.34,0.76,0.054,0.135,9.808,0.0,0.0,0.0
1777316393.639669,0.81,0.33,0.76,0.053,0.134,9.808,0.0,-0.01,0.0
1777316393.649887,0.81,0.33,0.76,0.054,0.127,9.806,-0.01,-0.01,0.0
1777316393.6596892,0.81,0.34,0.76,0.057,0.132,9.803,-0.01,0.0,-0.01
1777316393.669674,0.81,0.34,0.76,0.057,0.135,9.805,-0.01,-0.01,0.0
1777316393.679692,0.81,0.34,0.76,0.061,0.135,9.806,-0.01,-0.01,-0.01
1777316393.6896684,0.81,0.34,0.76,0.065,0.135,9.806,0.0,0.0,0.0
1777316393.6996887,0.81,0.34,0.76,0.065,0.138,9.808,-0.01,0.0,-0.01
1777316393.7097256,0.81,0.34,0.76,0.055,0.132,9.804,-0.01,0.0,0.0
1777316393.7196782,0.81,0.34,0.76,0.059,0.129,9.805,-0.01,0.0,0.0
1777316393.7297175,0.81,0.34,0.76,0.059,0.131,9.806,0.0,-0.01,0.0
1777316393.739676,0.81,0.34,0.76,0.056,0.138,9.805,-0.01,-0.01,0.0
1777316393.7496889,0.81,0.34,0.76,0.059,0.134,9.806,-0.01,-0.01,-0.01
1777316393.7596774,0.81,0.34,0.77,0.056,0.137,9.803,0.0,0.0,0.0
1777316393.7697155,0.81,0.34,0.77,0.057,0.134,9.805,0.0,0.0,0.0
1777316393.7796793,0.81,0.34,0.77,0.062,0.134,9.806,-0.01,0.0,0.0
1777316393.7896957,0.81,0.34,0.77,0.057,0.138,9.806,0.0,-0.01,-0.01
1777316393.799692,0.81,0.34,0.77,0.06,0.133,9.806,-0.01,-0.01,0.0
1777316393.8096735,0.81,0.34,0.77,0.061,0.128,9.808,-0.01,-0.01,0.0
1777316393.8196762,0.81,0.34,0.76,0.061,0.132,9.808,-0.01,0.0,-0.01
1777316393.8296897,0.81,0.34,0.77,0.056,0.134,9.806,-0.01,-0.01,-0.01
1777316393.8396554,0.81,0.34,0.77,0.055,0.135,9.802,0.0,0.0,-0.01
1777316393.849687,0.81,0.34,0.77,0.051,0.138,9.803,-0.01,-0.01,-0.01
1777316393.8596795,0.81,0.34,0.77,0.053,0.135,9.802,-0.01,-0.01,0.0
1777316393.869657,0.81,0.34,0.77,0.062,0.132,9.798,-0.01,0.0,0.0
1777316393.8796835,0.81,0.34,0.77,0.061,0.133,9.797,-0.01,-0.01,-0.01
1777316393.8897011,0.81,0.34,0.77,0.061,0.132,9.8,0.0,-0.01,-0.01
1777316393.8996637,0.81,0.34,0.77,0.059,0.129,9.803,0.0,-0.01,-0.01
1777316393.9097073,0.81,0.34,0.77,0.059,0.126,9.8,0.0,-0.01,0.0
1777316393.9196978,0.81,0.34,0.77,0.054,0.129,9.802,0.0,-0.01,0.0
1777316393.929697,0.81,0.34,0.77,0.05,0.133,9.804,-0.01,-0.01,0.0
1777316393.9396749,0.81,0.34,0.77,0.049,0.129,9.805,-0.01,0.0,0.0
1777316393.9496982,0.81,0.34,0.77,0.051,0.129,9.803,-0.01,0.0,-0.01
1777316393.959658,0.81,0.34,0.77,0.05,0.127,9.805,-0.01,-0.01,-0.01
1777316393.969707,0.81,0.34,0.77,0.049,0.126,9.806,-0.01,-0.01,-0.01
1777316393.9797094,0.81,0.34,0.77,0.049,0.126,9.803,-0.01,-0.01,-0.01
1777316393.990072,0.81,0.34,0.77,0.054,0.126,9.805,-0.01,-0.01,0.0
1777316393.999643,0.81,0.34,0.77,0.057,0.122,9.8,-0.01,0.0,-0.01
1777316394.009667,0.81,0.34,0.77,0.062,0.132,9.799,0.0,0.0,-0.01
1777316394.019634,0.81,0.34,0.77,0.06,0.134,9.802,-0.01,0.0,-0.01
1777316394.0296497,0.81,0.34,0.77,0.06,0.129,9.804,0.0,0.0,-0.01
1777316394.0396142,0.81,0.34,0.77,0.06,0.129,9.805,-0.01,-0.01,0.0
1777316394.0496368,0.81,0.34,0.77,0.061,0.126,9.805,-0.01,0.0,0.0
1777316394.0596495,0.81,0.34,0.77,0.059,0.126,9.806,0.0,0.0,0.0
1777316394.0696738,0.81,0.34,0.77,0.054,0.132,9.805,0.0,-0.01,0.0
1777316394.0796852,0.81,0.34,0.77,0.053,0.134,9.806,0.0,0.0,0.0
1777316394.0896537,0.81,0.34,0.77,0.05,0.137,9.808,0.0,-0.01,-0.01
1777316394.099666,0.81,0.34,0.77,0.05,0.139,9.808,-0.01,0.0,0.0
1777316394.1096349,0.81,0.34,0.77,0.056,0.137,9.805,-0.01,0.0,-0.01
1777316394.1196654,0.81,0.34,0.77,0.057,0.134,9.805,-0.01,0.0,0.0
1777316394.1296546,0.81,0.34,0.77,0.053,0.133,9.806,-0.01,-0.01,0.0
1777316394.1396656,0.81,0.34,0.77,0.054,0.132,9.806,0.0,0.0,0.0
1777316394.1496384,0.81,0.34,0.77,0.054,0.128,9.804,-0.01,0.0,0.0
1777316394.1596844,0.81,0.34,0.77,0.053,0.125,9.806,-0.01,0.0,0.0
1777316394.1696422,0.81,0.34,0.77,0.054,0.125,9.804,-0.01,0.0,-0.01
1777316394.1788213,0.81,0.34,0.77,0.053,0.127,9.805,-0.01,0.0,-0.01
1777316394.1896346,0.81,0.34,0.77,0.051,0.131,9.804,-0.01,0.0,-0.01
1777316394.1987936,0.81,0.34,0.77,0.05,0.134,9.799,-0.01,0.0,0.0
1777316394.20967,0.81,0.34,0.77,0.055,0.132,9.802,-0.01,-0.01,0.0
1777316394.2188125,0.81,0.34,0.77,0.059,0.134,9.804,0.0,-0.01,-0.01
1777316394.2288043,0.81,0.34,0.77,0.06,0.131,9.805,-0.01,-0.01,0.0
1777316394.2388132,0.81,0.34,0.77,0.06,0.128,9.806,-0.01,0.0,0.0
1777316394.2496524,0.81,0.34,0.77,0.059,0.131,9.806,-0.01,0.0,0.0
1777316394.2587826,0.81,0.34,0.77,0.054,0.128,9.798,-0.01,0.0,-0.01
1777316394.268803,0.81,0.34,0.77,0.051,0.127,9.8,-0.01,0.0,-0.01
1777316394.2788064,0.81,0.34,0.77,0.051,0.127,9.803,-0.01,0.0,0.0
1777316394.2887995,0.81,0.34,0.77,0.055,0.123,9.805,-0.01,-0.01,-0.01
1777316394.2988348,0.81,0.34,0.77,0.057,0.123,9.805,-0.01,-0.01,0.0
1777316394.3087878,0.81,0.34,0.77,0.053,0.128,9.806,-0.01,0.0,0.0
1777316394.3187623,0.81,0.34,0.77,0.051,0.127,9.803,0.0,-0.01,0.0
1777316394.3296385,0.81,0.34,0.77,0.053,0.129,9.804,0.0,0.0,-0.01
1777316394.3387864,0.81,0.34,0.77,0.053,0.133,9.806,-0.01,-0.01,0.0
1777316394.348808,0.81,0.34,0.77,0.056,0.138,9.806,0.0,0.0,-0.01
1777316394.358763,0.81,0.34,0.77,0.055,0.133,9.805,-0.01,0.0,0.0
1777316394.368786,0.81,0.34,0.77,0.059,0.131,9.806,-0.01,-0.01,0.0
1777316394.3787627,0.81,0.34,0.77,0.055,0.131,9.808,0.0,0.0,0.0
1777316394.3887978,0.81,0.34,0.77,0.054,0.133,9.808,0.0,-0.01,0.0
1777316394.3987658,0.81,0.34,0.77,0.055,0.126,9.799,-0.01,-0.01,0.0
1777316394.4087956,0.81,0.34,0.77,0.057,0.127,9.8,-0.01,0.0,0.0
1777316394.4187412,0.81,0.34,0.77,0.06,0.129,9.803,0.0,0.0,0.0
1777316394.4287844,0.81,0.34,0.77,0.061,0.129,9.803,0.0,-0.01,0.0
1777316394.4387565,0.81,0.34,0.77,0.06,0.129,9.8,-0.01,-0.01,0.0
1777316394.4487736,0.8,0.34,0.77,0.06,0.126,9.803,0.0,-0.01,0.0
1777316394.4587495,0.8,0.34,0.77,0.056,0.123,9.804,-0.01,-0.01,0.0
1777316394.4687743,0.8,0.34,0.77,0.055,0.128,9.805,-0.01,-0.01,0.0
1777316394.4787393,0.8,0.34,0.77,0.051,0.128,9.806,0.0,-0.01,0.0
1777316394.4887815,0.8,0.34,0.77,0.053,0.127,9.808,0.0,0.0,0.0
1777316394.498757,0.8,0.34,0.77,0.054,0.127,9.809,0.0,-0.01,0.0
1777316394.508734,0.8,0.34,0.77,0.056,0.126,9.803,0.0,-0.01,-0.01
1777316394.518744,0.8,0.34,0.77,0.056,0.127,9.802,-0.01,0.0,0.0
1777316394.5287142,0.81,0.34,0.77,0.056,0.127,9.799,-0.01,-0.01,0.0
1777316394.538709,0.8,0.34,0.77,0.054,0.126,9.803,-0.01,-0.01,-0.01
1777316394.5533712,0.81,0.34,0.77,0.053,0.129,9.804,-0.01,-0.01,0.0
1777316394.5764542,0.8,0.34,0.77,0.053,0.134,9.799,-0.01,-0.01,0.0
1777316394.5859616,0.8,0.34,0.77,0.048,0.131,9.796,-0.01,-0.01,0.0
1777316394.5943794,0.8,0.34,0.77,0.047,0.125,9.799,-0.01,0.0,0.0
1777316394.6005912,0.8,0.34,0.77,0.047,0.126,9.803,-0.01,0.0,0.0
1777316394.605565,0.8,0.34,0.77,0.051,0.125,9.804,0.0,-0.01,0.0
1777316394.6107237,0.8,0.34,0.77,0.049,0.128,9.806,-0.01,0.0,-0.01
1777316394.620622,0.8,0.34,0.77,0.05,0.132,9.803,-0.01,-0.01,0.0
1777316394.629043,0.8,0.34,0.77,0.051,0.134,9.803,-0.01,-0.01,0.0
1777316394.6387784,0.8,0.34,0.77,0.05,0.135,9.805,-0.01,0.0,0.0
1777316394.649127,0.8,0.34,0.77,0.059,0.132,9.806,-0.01,-0.01,0.0
1777316394.6597316,0.8,0.34,0.77,0.056,0.131,9.804,-0.01,0.0,0.0
1777316394.6693358,0.8,0.34,0.77,0.055,0.131,9.802,-0.01,0.0,0.0
1777316394.6787298,0.8,0.34,0.77,0.057,0.122,9.802,0.0,0.0,0.0
1777316394.6892831,0.8,0.34,0.77,0.057,0.122,9.796,0.0,-0.01,0.0
1777316394.7002804,0.8,0.34,0.76,0.056,0.122,9.798,-0.01,0.0,0.0
1777316394.7095065,0.8,0.34,0.76,0.056,0.128,9.8,-0.01,0.0,-0.01
1777316394.7188795,0.8,0.34,0.77,0.054,0.132,9.802,-0.01,-0.01,0.0
1777316394.728746,0.8,0.34,0.77,0.063,0.131,9.802,0.0,-0.01,0.0
1777316394.7389162,0.8,0.34,0.77,0.062,0.134,9.803,0.0,0.0,-0.01
1777316394.7488356,0.8,0.34,0.77,0.061,0.135,9.802,-0.01,-0.01,0.0
1777316394.7598586,0.8,0.34,0.77,0.055,0.128,9.802,-0.01,0.0,-0.01
1777316394.7694902,0.8,0.34,0.77,0.055,0.126,9.803,-0.01,0.0,0.0
1777316394.7797468,0.8,0.34,0.77,0.057,0.126,9.802,-0.01,0.0,0.0
1777316394.7894125,0.8,0.34,0.77,0.061,0.129,9.803,0.0,-0.01,0.0
1777316394.8004973,0.8,0.34,0.77,0.055,0.134,9.804,0.0,-0.01,0.0
1777316394.810047,0.8,0.34,0.77,0.054,0.138,9.805,-0.01,-0.01,-0.01
1777316394.819557,0.8,0.34,0.77,0.055,0.139,9.804,-0.01,-0.01,-0.01
1777316394.8298132,0.8,0.34,0.77,0.05,0.141,9.802,0.0,0.0,0.0
1777316394.839906,0.8,0.34,0.77,0.05,0.139,9.804,-0.01,0.0,0.0
1777316394.8491144,0.8,0.34,0.77,0.053,0.137,9.805,0.0,0.0,0.0
1777316394.8591628,0.8,0.34,0.77,0.05,0.132,9.804,-0.01,-0.01,-0.01
1777316394.8687122,0.8,0.34,0.77,0.054,0.135,9.8,-0.01,0.0,0.0
1777316394.8787503,0.8,0.34,0.77,0.056,0.133,9.799,-0.01,0.0,0.0
1777316394.8887117,0.8,0.34,0.77,0.055,0.131,9.802,-0.01,0.0,0.0
1777316394.899116,0.8,0.34,0.77,0.055,0.128,9.804,0.0,0.0,0.0
1777316394.9098725,0.8,0.34,0.77,0.055,0.129,9.804,0.0,0.0,-0.01
1777316394.9187295,0.8,0.34,0.77,0.055,0.131,9.805,0.0,0.0,0.0
1777316394.9293704,0.8,0.34,0.77,0.057,0.128,9.806,-0.01,-0.01,0.0
1777316394.9387224,0.8,0.34,0.77,0.063,0.132,9.808,-0.01,0.0,-0.01
1777316394.9488094,0.8,0.34,0.77,0.066,0.131,9.806,0.0,-0.01,-0.01
1777316394.959694,0.8,0.34,0.77,0.062,0.131,9.805,-0.01,-0.01,0.0
1777316394.9687173,0.8,0.34,0.77,0.06,0.126,9.803,0.0,-0.01,-0.01
1777316394.97872,0.8,0.34,0.77,0.06,0.126,9.804,-0.01,0.0,-0.01
1777316394.9886837,0.8,0.34,0.77,0.06,0.123,9.802,-0.01,-0.01,-0.01
1777316394.998879,0.8,0.34,0.77,0.059,0.123,9.8,-0.01,-0.01,-0.01
1777316395.00926,0.8,0.34,0.77,0.057,0.122,9.799,0.0,-0.01,-0.01
1777316395.0188797,0.8,0.34,0.77,0.061,0.126,9.8,-0.01,-0.01,0.0
1777316395.0286846,0.8,0.34,0.77,0.061,0.129,9.803,-0.01,-0.01,-0.01
1777316395.0387373,0.8,0.34,0.77,0.062,0.132,9.805,-0.01,-0.01,-0.01
1777316395.0488915,0.8,0.34,0.77,0.063,0.129,9.806,-0.01,-0.01,0.0
1777316395.0587232,0.8,0.34,0.77,0.063,0.125,9.808,-0.01,0.0,0.0
1777316395.0689292,0.8,0.34,0.77,0.059,0.126,9.808,-0.01,0.0,0.0
1777316395.0787249,0.8,0.34,0.77,0.063,0.129,9.809,0.0,0.0,-0.01
1777316395.0886862,0.8,0.34,0.77,0.061,0.128,9.805,-0.01,0.0,-0.01
1777316395.0987275,0.8,0.34,0.77,0.062,0.131,9.805,0.0,-0.01,-0.01
1777316395.1087096,0.8,0.34,0.77,0.062,0.127,9.797,-0.01,-0.01,-0.01
1777316395.1186917,0.8,0.34,0.77,0.063,0.128,9.798,-0.01,-0.01,-0.01
1777316395.1287239,0.8,0.34,0.77,0.063,0.135,9.802,0.0,-0.01,0.0
1777316395.1388385,0.8,0.34,0.77,0.062,0.135,9.803,-0.01,0.0,0.0
1777316395.1487222,0.8,0.34,0.77,0.063,0.137,9.802,-0.01,-0.01,0.0
1777316395.1587753,0.8,0.34,0.77,0.063,0.134,9.803,-0.01,0.0,0.0
1777316395.1702707,0.8,0.34,0.77,0.057,0.133,9.802,-0.01,0.0,-0.01
1777316395.1809266,0.8,0.34,0.77,0.053,0.127,9.803,0.0,0.0,0.0
1777316395.197568,0.8,0.34,0.77,0.054,0.125,9.804,-0.01,0.0,0.0
1777316395.2012846,0.8,0.34,0.77,0.059,0.129,9.798,-0.01,-0.01,0.0
1777316395.21083,0.8,0.34,0.77,0.059,0.131,9.792,-0.01,0.0,0.0
1777316395.2228575,0.8,0.34,0.77,0.055,0.125,9.796,-0.01,-0.01,-0.01
1777316395.2286744,0.8,0.34,0.77,0.056,0.122,9.799,0.0,0.0,-0.01
1777316395.2386622,0.8,0.34,0.77,0.059,0.129,9.803,-0.01,-0.01,0.0
1777316395.2478466,0.8,0.34,0.77,0.062,0.129,9.8,-0.01,0.0,-0.01
1777316395.2586653,0.8,0.34,0.77,0.063,0.126,9.803,-0.01,0.0,0.0
1777316395.2686832,0.8,0.34,0.77,0.055,0.129,9.799,-0.01,0.0,0.0
1777316395.2786841,0.8,0.34,0.77,0.05,0.128,9.798,0.0,0.0,0.0
1777316395.2886395,0.8,0.34,0.77,0.049,0.127,9.799,-0.01,-0.01,0.0
1777316395.2978334,0.8,0.34,0.77,0.048,0.125,9.802,-0.01,-0.01,0.0
1777316395.3086395,0.8,0.34,0.77,0.047,0.127,9.804,-0.01,-0.01,0.0
1777316395.3178482,0.8,0.34,0.77,0.047,0.132,9.805,-0.01,-0.01,0.0
1777316395.3286314,0.8,0.34,0.77,0.049,0.135,9.806,-0.01,0.0,0.0
1777316395.3378043,0.8,0.34,0.77,0.05,0.135,9.808,-0.01,0.0,-0.01
1777316395.3486314,0.8,0.34,0.77,0.056,0.137,9.808,-0.01,-0.01,0.0
1777316395.3577867,0.8,0.34,0.77,0.059,0.135,9.808,-0.01,0.0,0.0
1777316395.3677168,0.8,0.34,0.77,0.054,0.139,9.799,0.0,0.0,0.0
1777316395.3790424,0.8,0.34,0.77,0.048,0.137,9.802,-0.01,0.0,0.0
1777316395.388648,0.8,0.34,0.77,0.044,0.129,9.804,0.0,0.0,0.0
1777316395.3977644,0.8,0.34,0.77,0.047,0.125,9.805,-0.01,0.0,0.0
1777316395.4086287,0.8,0.34,0.77,0.048,0.125,9.802,0.0,-0.01,-0.01
1777316395.4186466,0.8,0.34,0.77,0.048,0.125,9.802,0.0,0.0,0.0
1777316395.427755,0.8,0.34,0.77,0.056,0.125,9.804,0.0,-0.01,0.0
1777316395.4377556,0.8,0.34,0.77,0.053,0.127,9.805,0.0,-0.01,0.0
1777316395.447806,0.8,0.34,0.77,0.055,0.128,9.806,0.0,0.0,-0.01
1777316395.4577627,0.8,0.34,0.77,0.056,0.127,9.803,-0.01,0.0,0.0
1777316395.4677775,0.8,0.34,0.77,0.054,0.131,9.805,-0.01,0.0,0.0
1777316395.4789941,0.8,0.34,0.77,0.051,0.131,9.806,-0.01,0.0,0.0
1777316395.487766,0.8,0.34,0.77,0.051,0.128,9.808,0.0,0.0,0.0
1777316395.4977553,0.8,0.34,0.77,0.054,0.128,9.808,0.0,0.0,0.0
1777316395.5077555,0.8,0.34,0.77,0.054,0.134,9.808,0.0,-0.01,0.0
1777316395.5177584,0.8,0.34,0.77,0.053,0.135,9.809,-0.01,0.0,0.0
1777316395.5277498,0.8,0.34,0.77,0.057,0.135,9.809,-0.01,-0.01,0.0
1777316395.5377371,0.8,0.34,0.77,0.065,0.134,9.809,0.0,0.0,0.0
1777316395.5477486,0.8,0.34,0.77,0.067,0.135,9.808,0.0,0.0,0.0
1777316395.5577598,0.8,0.34,0.77,0.062,0.138,9.808,-0.01,0.0,0.0
1777316395.5677557,0.8,0.34,0.77,0.062,0.139,9.809,-0.01,-0.01,-0.01
1777316395.5777283,0.8,0.34,0.78,0.057,0.138,9.806,-0.01,-0.01,-0.01
1777316395.5877652,0.8,0.34,0.78,0.055,0.128,9.806,0.0,-0.01,0.0
1777316395.5977285,0.8,0.34,0.77,0.056,0.133,9.808,-0.01,-0.01,-0.01
1777316395.607752,0.8,0.34,0.77,0.055,0.133,9.803,-0.01,0.0,-0.01
1777316395.6177492,0.8,0.34,0.78,0.054,0.135,9.798,-0.01,-0.01,-0.01
1777316395.6277516,0.8,0.34,0.78,0.055,0.135,9.8,0.0,0.0,0.0
1777316395.637742,0.8,0.34,0.78,0.055,0.139,9.802,-0.01,0.0,-0.01
1777316395.6477504,0.8,0.34,0.78,0.053,0.138,9.804,-0.01,-0.01,0.0
1777316395.6577063,0.8,0.34,0.78,0.054,0.128,9.805,-0.01,0.0,-0.01
1777316395.6677554,0.8,0.34,0.78,0.05,0.131,9.806,0.0,0.0,0.0
1777316395.677687,0.8,0.34,0.78,0.047,0.132,9.8,0.0,0.0,-0.01
1777316395.6877298,0.8,0.34,0.78,0.047,0.133,9.799,-0.01,0.0,-0.01
1777316395.6978805,0.8,0.34,0.78,0.047,0.132,9.797,-0.01,-0.01,-0.01
1777316395.707737,0.8,0.34,0.78,0.049,0.128,9.8,-0.01,-0.01,0.0
1777316395.7177303,0.8,0.34,0.78,0.054,0.129,9.803,0.0,-0.01,-0.01
1777316395.7277234,0.8,0.34,0.78,0.053,0.132,9.803,0.0,-0.01,0.0
1777316395.7377102,0.8,0.34,0.78,0.057,0.129,9.803,0.0,-0.01,0.0
1777316395.7477183,0.8,0.34,0.78,0.06,0.131,9.804,-0.01,0.0,0.0
1777316395.757716,0.8,0.34,0.78,0.062,0.131,9.806,0.0,0.0,0.0
1777316395.7676961,0.8,0.34,0.78,0.06,0.131,9.803,0.0,0.0,-0.01
1777316395.7777164,0.8,0.34,0.78,0.055,0.129,9.8,-0.01,0.0,-0.01
1777316395.7877018,0.8,0.34,0.78,0.057,0.129,9.802,-0.01,0.0,-0.01
1777316395.7977083,0.8,0.34,0.78,0.054,0.123,9.799,0.0,0.0,-0.01
1777316395.8077207,0.8,0.34,0.78,0.055,0.122,9.799,0.0,0.0,0.0
1777316395.8177283,0.8,0.34,0.78,0.056,0.129,9.802,0.0,0.0,0.0
1777316395.8276885,0.8,0.34,0.78,0.06,0.128,9.803,0.0,0.0,0.0
1777316395.8377051,0.8,0.34,0.78,0.061,0.131,9.804,-0.01,-0.01,0.0
1777316395.8477273,0.8,0.34,0.78,0.066,0.135,9.804,0.0,0.0,0.0
1777316395.857684,0.8,0.34,0.78,0.066,0.135,9.805,-0.01,0.0,0.0
1777316395.8676991,0.8,0.34,0.78,0.067,0.135,9.806,0.0,0.0,0.0
1777316395.877718,0.8,0.34,0.78,0.061,0.137,9.799,-0.01,0.0,0.0
1777316395.8876886,0.8,0.34,0.78,0.06,0.132,9.8,-0.01,0.0,0.0
1777316395.8977177,0.8,0.34,0.78,0.055,0.128,9.796,-0.01,0.0,-0.01
1777316395.9076824,0.8,0.34,0.78,0.056,0.121,9.798,-0.01,0.0,-0.01
1777316395.9177165,0.8,0.34,0.78,0.062,0.121,9.8,0.0,-0.01,-0.01
1777316395.9276679,0.8,0.34,0.78,0.06,0.127,9.802,0.0,-0.01,0.0
1777316395.9377012,0.8,0.34,0.78,0.062,0.127,9.799,0.0,-0.01,0.0
1777316395.9476638,0.8,0.34,0.78,0.061,0.122,9.802,-0.01,-0.01,-0.01
1777316395.9577134,0.8,0.34,0.78,0.06,0.123,9.804,0.0,0.0,-0.01
1777316395.9677272,0.8,0.34,0.78,0.061,0.123,9.802,0.0,0.0,0.0
1777316395.9777052,0.8,0.34,0.78,0.056,0.126,9.802,-0.01,0.0,0.0
1777316395.98769,0.8,0.34,0.78,0.059,0.125,9.804,0.0,0.0,0.0
1777316395.9976935,0.8,0.34,0.78,0.059,0.12,9.802,0.0,0.0,0.0
1777316396.0077415,0.8,0.34,0.78,0.054,0.117,9.799,0.0,0.0,-0.01
1777316396.0177226,0.8,0.34,0.78,0.053,0.117,9.803,0.0,-0.01,-0.01
1777316396.0278027,0.8,0.34,0.78,0.056,0.125,9.802,-0.01,-0.01,0.0
1777316396.0377018,0.8,0.34,0.78,0.063,0.131,9.804,-0.01,-0.01,0.0
1777316396.0477033,0.8,0.34,0.78,0.066,0.128,9.805,0.0,-0.01,-0.01
1777316396.0576618,0.8,0.34,0.78,0.068,0.123,9.804,-0.01,0.0,-0.01
1777316396.0676968,0.8,0.34,0.78,0.066,0.122,9.798,-0.01,0.0,0.0
1777316396.0776632,0.8,0.34,0.78,0.059,0.126,9.8,-0.01,-0.01,-0.01
1777316396.0876997,0.8,0.34,0.78,0.059,0.127,9.803,0.0,0.0,0.0
1777316396.0976546,0.8,0.34,0.78,0.056,0.127,9.805,-0.01,-0.01,-0.01
1777316396.107716,0.8,0.34,0.78,0.053,0.125,9.806,-0.01,-0.01,-0.01
1777316396.1177063,0.8,0.34,0.78,0.056,0.126,9.803,0.0,-0.01,-0.01
1777316396.127705,0.8,0.34,0.78,0.056,0.125,9.805,0.0,-0.01,0.0
1777316396.1376734,0.8,0.34,0.78,0.063,0.121,9.806,-0.01,-0.01,-0.01
1777316396.1476636,0.8,0.34,0.78,0.066,0.121,9.808,-0.01,0.0,0.0
1777316396.1576936,0.8,0.34,0.78,0.063,0.119,9.808,0.0,-0.01,0.0
1777316396.1677012,0.8,0.34,0.77,0.062,0.117,9.806,0.0,0.0,0.0
1777316396.177668,0.8,0.34,0.77,0.06,0.119,9.797,-0.01,0.0,0.0
1777316396.187656,0.8,0.34,0.77,0.063,0.12,9.796,-0.01,-0.01,-0.01
1777316396.1976652,0.8,0.34,0.77,0.065,0.125,9.799,0.0,-0.01,-0.01
1777316396.207666,0.8,0.34,0.77,0.066,0.123,9.802,-0.01,0.0,-0.01
1777316396.2177052,0.8,0.34,0.77,0.063,0.131,9.798,-0.01,-0.01,0.0
1777316396.2276905,0.8,0.34,0.77,0.061,0.135,9.8,-0.01,-0.01,0.0
1777316396.2377203,0.8,0.34,0.77,0.056,0.133,9.803,-0.01,0.0,0.0
1777316396.2476723,0.8,0.34,0.77,0.06,0.129,9.804,-0.01,0.0,0.0
1777316396.2576962,0.8,0.34,0.77,0.06,0.127,9.8,0.0,-0.01,0.0
1777316396.2677116,0.8,0.34,0.77,0.062,0.129,9.798,-0.01,0.0,0.0
1777316396.2776778,0.8,0.34,0.77,0.061,0.128,9.792,0.0,0.0,-0.01
1777316396.2877977,0.8,0.34,0.77,0.056,0.126,9.796,0.0,-0.01,0.0
1777316396.2977362,0.8,0.34,0.77,0.049,0.128,9.797,0.0,0.0,0.0
1777316396.307677,0.8,0.34,0.77,0.05,0.129,9.799,-0.01,0.0,0.0
1777316396.317656,0.8,0.34,0.78,0.049,0.133,9.798,-0.01,-0.01,-0.01
1777316396.3276794,0.8,0.34,0.77,0.047,0.129,9.797,0.0,-0.01,-0.01
1777316396.3376982,0.8,0.34,0.77,0.055,0.126,9.798,-0.01,-0.01,-0.01
1777316396.3476703,0.8,0.34,0.77,0.056,0.126,9.797,-0.01,0.0,-0.01
1777316396.357721,0.8,0.34,0.77,0.062,0.125,9.8,0.0,-0.01,0.0
1777316396.3676665,0.8,0.34,0.77,0.065,0.128,9.803,-0.01,0.0,0.0
1777316396.3776977,0.8,0.34,0.77,0.069,0.129,9.805,0.0,0.0,0.0
1777316396.387717,0.8,0.35,0.77,0.061,0.134,9.8,-0.01,0.0,0.0
1777316396.3968604,0.8,0.34,0.78,0.061,0.135,9.803,-0.01,0.0,0.0
1777316396.407671,0.8,0.34,0.78,0.059,0.135,9.804,0.0,0.0,-0.01
1777316396.4168491,0.8,0.34,0.78,0.057,0.131,9.802,-0.01,0.0,-0.01
1777316396.4276795,0.8,0.34,0.77,0.057,0.128,9.803,-0.01,-0.01,0.0
1777316396.4376652,0.8,0.34,0.77,0.057,0.132,9.804,-0.01,0.0,-0.01
1777316396.4467716,0.8,0.34,0.77,0.063,0.133,9.803,-0.01,0.0,-0.01
1777316396.457685,0.8,0.35,0.77,0.063,0.132,9.797,-0.01,-0.01,-0.01
1777316396.4676673,0.8,0.35,0.77,0.066,0.128,9.8,-0.01,-0.01,-0.01
1777316396.4767904,0.8,0.35,0.77,0.066,0.128,9.803,-0.01,-0.01,0.0
1777316396.4876816,0.8,0.35,0.77,0.069,0.128,9.802,-0.01,-0.01,0.0
1777316396.4968364,0.8,0.35,0.77,0.067,0.132,9.802,-0.01,0.0,0.0
1777316396.5068173,0.8,0.35,0.77,0.062,0.134,9.797,-0.01,0.0,0.0
1777316396.5168025,0.8,0.35,0.77,0.061,0.133,9.793,-0.01,-0.01,0.0
1777316396.5276976,0.8,0.35,0.77,0.062,0.132,9.793,-0.01,-0.01,-0.01
1777316396.5367825,0.8,0.35,0.77,0.059,0.131,9.798,-0.01,-0.01,-0.01
1777316396.5468302,0.8,0.35,0.77,0.055,0.132,9.793,0.0,-0.01,-0.01
1777316396.556802,0.8,0.35,0.77,0.059,0.133,9.798,-0.01,-0.01,-0.01
1777316396.5668793,0.8,0.35,0.77,0.055,0.135,9.802,-0.01,-0.01,-0.01
1777316396.5767553,0.8,0.35,0.77,0.057,0.133,9.804,0.0,-0.01,-0.01
1777316396.5876608,0.8,0.35,0.77,0.054,0.132,9.8,-0.01,0.0,-0.01
1777316396.596759,0.8,0.35,0.77,0.051,0.131,9.803,0.0,0.0,-0.01
1777316396.6068125,0.8,0.35,0.77,0.047,0.127,9.805,0.0,0.0,0.0
1777316396.61675,0.8,0.35,0.77,0.048,0.128,9.805,-0.01,-0.01,0.0
1777316396.6267943,0.8,0.35,0.77,0.044,0.129,9.806,-0.01,-0.01,-0.01
1777316396.637685,0.8,0.35,0.77,0.044,0.132,9.805,-0.01,-0.01,-0.01
1777316396.6467872,0.8,0.35,0.77,0.044,0.135,9.806,-0.01,0.0,0.0
1777316396.656792,0.8,0.35,0.77,0.049,0.135,9.805,-0.01,0.0,-0.01
1777316396.6667848,0.8,0.35,0.77,0.048,0.135,9.803,-0.01,0.0,-0.01
1777316396.6767616,0.8,0.34,0.77,0.048,0.132,9.803,0.0,-0.01,0.0
1777316396.686772,0.8,0.35,0.77,0.055,0.128,9.8,-0.01,0.0,0.0
1777316396.696782,0.8,0.35,0.77,0.056,0.129,9.8,0.0,-0.01,0.0
1777316396.7067957,0.8,0.35,0.77,0.053,0.129,9.8,-0.01,-0.01,-0.01
1777316396.7167695,0.8,0.34,0.77,0.049,0.131,9.803,-0.01,-0.01,0.0
1777316396.7267668,0.8,0.34,0.77,0.048,0.133,9.802,-0.01,0.0,0.0
1777316396.7367358,0.8,0.34,0.77,0.051,0.132,9.804,-0.01,-0.01,0.0
1777316396.7468028,0.8,0.34,0.77,0.054,0.131,9.799,-0.01,0.0,0.0
1777316396.7567408,0.8,0.34,0.77,0.056,0.125,9.803,0.0,-0.01,-0.01
1777316396.7667773,0.8,0.35,0.77,0.06,0.125,9.804,0.0,0.0,-0.01
1777316396.7767537,0.8,0.35,0.77,0.062,0.129,9.804,-0.01,-0.01,0.0
1777316396.7867875,0.8,0.34,0.77,0.063,0.131,9.805,-0.01,0.0,0.0
1777316396.7967424,0.8,0.34,0.77,0.057,0.131,9.806,-0.01,0.0,0.0
1777316396.8067708,0.8,0.34,0.77,0.056,0.131,9.808,0.0,-0.01,0.0
1777316396.8167858,0.8,0.34,0.77,0.057,0.134,9.805,0.0,0.0,0.0
1777316396.826763,0.8,0.34,0.77,0.056,0.133,9.806,-0.01,0.0,-0.01
1777316396.8367736,0.8,0.34,0.77,0.055,0.125,9.804,0.0,0.0,-0.01
1777316396.846739,0.8,0.34,0.77,0.053,0.127,9.802,0.0,-0.01,0.0
1777316396.8568883,0.8,0.34,0.77,0.055,0.128,9.8,0.0,-0.01,0.0
1777316396.8667831,0.8,0.34,0.77,0.056,0.131,9.802,0.0,0.0,0.0
1777316396.8767407,0.8,0.34,0.78,0.059,0.129,9.796,-0.01,-0.01,0.0
1777316396.8867555,0.8,0.35,0.77,0.065,0.127,9.799,0.0,-0.01,0.0
1777316396.8967416,0.8,0.35,0.77,0.059,0.126,9.802,-0.01,0.0,0.0
1777316396.9067652,0.8,0.34,0.77,0.056,0.126,9.804,-0.01,0.0,-0.01
1777316396.916735,0.8,0.34,0.77,0.054,0.123,9.805,0.0,0.0,0.0
1777316396.9267685,0.8,0.34,0.77,0.054,0.123,9.8,0.0,0.0,-0.01
1777316396.9367733,0.8,0.34,0.77,0.054,0.126,9.802,0.0,0.0,0.0
1777316396.9467332,0.8,0.34,0.77,0.054,0.129,9.804,0.0,-0.01,0.0
1777316396.956747,0.8,0.34,0.77,0.055,0.129,9.805,-0.01,0.0,0.0
1777316396.9667501,0.8,0.34,0.77,0.057,0.129,9.806,-0.01,0.0,-0.01
1777316396.9767132,0.8,0.34,0.77,0.061,0.127,9.803,-0.01,-0.01,0.0
1777316396.986743,0.8,0.34,0.77,0.06,0.128,9.804,-0.01,0.0,-0.01
1777316396.9967363,0.8,0.34,0.77,0.063,0.129,9.805,-0.01,0.0,-0.01
1777316397.006771,0.8,0.34,0.77,0.065,0.132,9.806,0.0,0.0,0.0
1777316397.0167658,0.8,0.34,0.77,0.065,0.127,9.805,0.0,0.0,0.0
1777316397.026729,0.8,0.34,0.77,0.065,0.127,9.806,-0.01,0.0,0.0
1777316397.036789,0.8,0.34,0.77,0.062,0.123,9.805,-0.01,-0.01,0.0
1777316397.046981,0.8,0.34,0.77,0.066,0.127,9.805,0.0,0.0,-0.01
1777316397.056751,0.8,0.34,0.77,0.068,0.127,9.806,0.0,0.0,0.0
1777316397.0667195,0.8,0.34,0.77,0.061,0.131,9.8,0.0,-0.01,0.0
1777316397.0767555,0.8,0.34,0.78,0.061,0.132,9.802,-0.01,0.0,0.0
1777316397.086743,0.8,0.34,0.78,0.061,0.129,9.804,0.0,0.0,0.0
1777316397.0967202,0.8,0.34,0.77,0.063,0.132,9.805,0.0,0.0,0.0
1777316397.1067674,0.8,0.34,0.78,0.068,0.128,9.806,-0.01,0.0,0.0
1777316397.1167555,0.8,0.34,0.78,0.066,0.126,9.805,0.0,0.0,-0.01
1777316397.126732,0.8,0.35,0.78,0.066,0.132,9.806,-0.01,-0.01,-0.01
1777316397.136707,0.8,0.35,0.78,0.063,0.132,9.806,-0.01,-0.01,0.0
1777316397.14676,0.8,0.35,0.78,0.063,0.128,9.808,0.0,-0.01,0.0
1777316397.1567297,0.8,0.35,0.78,0.06,0.132,9.805,-0.01,0.0,-0.01
1777316397.16673,0.8,0.35,0.78,0.054,0.133,9.8,-0.01,-0.01,-0.01
1777316397.1768246,0.8,0.34,0.78,0.051,0.133,9.803,0.0,0.0,0.0
1777316397.186749,0.8,0.34,0.78,0.056,0.133,9.803,-0.01,-0.01,-0.01
1777316397.1967468,0.8,0.34,0.78,0.056,0.132,9.805,-0.01,-0.01,-0.01
1777316397.2067075,0.8,0.34,0.78,0.06,0.129,9.806,0.0,0.0,0.0
1777316397.216747,0.8,0.34,0.78,0.06,0.127,9.803,-0.01,-0.01,0.0
1777316397.2267513,0.8,0.35,0.78,0.059,0.129,9.804,-0.01,0.0,0.0
1777316397.2367432,0.79,0.35,0.78,0.056,0.128,9.803,0.0,-0.01,0.0
1777316397.2467008,0.79,0.34,0.78,0.049,0.123,9.805,-0.01,-0.01,0.0
1777316397.2567527,0.79,0.34,0.78,0.049,0.127,9.806,0.0,-0.01,0.0
1777316397.2667675,0.79,0.34,0.78,0.055,0.125,9.799,0.0,0.0,0.0
1777316397.2767136,0.8,0.34,0.77,0.06,0.127,9.803,-0.01,0.0,0.0
1777316397.2867427,0.79,0.34,0.78,0.056,0.127,9.804,-0.01,0.0,0.0
1777316397.2967136,0.8,0.34,0.77,0.065,0.125,9.805,0.0,0.0,-0.01
1777316397.306711,0.8,0.34,0.77,0.059,0.123,9.806,-0.01,0.0,0.0
1777316397.3167112,0.8,0.34,0.77,0.061,0.126,9.808,-0.01,-0.01,0.0
1777316397.3267505,0.79,0.34,0.78,0.06,0.135,9.809,0.0,-0.01,-0.01
1777316397.3367293,0.79,0.35,0.78,0.059,0.132,9.803,0.0,-0.01,0.0
1777316397.3467066,0.79,0.35,0.78,0.061,0.131,9.803,-0.01,0.0,0.0
1777316397.3567326,0.79,0.35,0.78,0.056,0.129,9.805,-0.01,-0.01,-0.01
1777316397.366674,0.79,0.35,0.78,0.053,0.128,9.806,0.0,-0.01,-0.01
1777316397.376717,0.79,0.35,0.78,0.053,0.133,9.808,0.0,-0.01,0.0
1777316397.3867295,0.79,0.34,0.78,0.053,0.126,9.804,0.0,-0.01,0.0
1777316397.3967452,0.79,0.35,0.78,0.059,0.129,9.805,0.0,0.0,0.0
1777316397.4066985,0.79,0.35,0.78,0.06,0.127,9.806,-0.01,0.0,0.0
1777316397.4167342,0.79,0.35,0.78,0.059,0.126,9.808,0.0,-0.01,0.0
1777316397.426689,0.79,0.35,0.78,0.057,0.126,9.808,-0.01,0.0,0.0
1777316397.4367073,0.79,0.35,0.78,0.056,0.122,9.804,0.0,0.0,0.0
1777316397.4467685,0.79,0.35,0.77,0.056,0.122,9.806,-0.01,0.0,0.0
1777316397.4566922,0.8,0.34,0.77,0.059,0.128,9.806,0.0,0.0,0.0
1777316397.4667213,0.8,0.34,0.77,0.063,0.127,9.806,-0.01,0.0,0.0
1777316397.4766939,0.79,0.35,0.78,0.054,0.129,9.808,0.0,0.0,0.0
1777316397.4867458,0.79,0.34,0.78,0.053,0.132,9.808,0.0,-0.01,-0.01
1777316397.4966764,0.79,0.34,0.78,0.055,0.134,9.809,-0.01,0.0,0.0
1777316397.5067096,0.79,0.35,0.78,0.06,0.134,9.809,0.0,0.0,-0.01
1777316397.5158384,0.79,0.35,0.78,0.06,0.128,9.808,0.0,-0.01,0.0
1777316397.5266957,0.79,0.35,0.78,0.056,0.122,9.806,-0.01,0.0,0.0
1777316397.5367062,0.79,0.34,0.78,0.05,0.122,9.806,-0.01,0.0,0.0
1777316397.5466826,0.79,0.34,0.78,0.048,0.12,9.808,0.0,0.0,-0.01
1777316397.5567183,0.8,0.34,0.77,0.046,0.121,9.803,-0.01,0.0,-0.01
1777316397.5666816,0.8,0.34,0.77,0.046,0.121,9.802,0.0,-0.01,0.0
1777316397.5758433,0.8,0.34,0.77,0.055,0.129,9.804,-0.01,0.0,-0.01
1777316397.5858653,0.8,0.34,0.77,0.06,0.132,9.805,0.0,0.0,0.0
1777316397.5967112,0.8,0.34,0.77,0.057,0.129,9.806,0.0,-0.01,0.0
1777316397.6058376,0.8,0.34,0.77,0.061,0.123,9.804,0.0,0.0,-0.01
1777316397.615769,0.8,0.34,0.77,0.059,0.128,9.803,0.0,-0.01,0.0
1777316397.6258469,0.8,0.34,0.77,0.055,0.132,9.804,-0.01,0.0,-0.01
1777316397.6366937,0.8,0.34,0.77,0.057,0.132,9.805,-0.01,-0.01,-0.01
1777316397.645836,0.8,0.34,0.77,0.061,0.127,9.806,-0.01,-0.01,0.0
1777316397.6566796,0.8,0.34,0.77,0.06,0.128,9.803,-0.01,0.0,0.0
1777316397.6658356,0.8,0.34,0.77,0.057,0.131,9.802,0.0,0.0,0.0
1777316397.6758318,0.8,0.34,0.77,0.051,0.131,9.8,0.0,0.0,-0.01
1777316397.6858437,0.8,0.34,0.77,0.054,0.134,9.802,-0.01,-0.01,-0.01
1777316397.6957715,0.8,0.34,0.77,0.054,0.135,9.804,-0.01,0.0,-0.01
1777316397.7058196,0.8,0.34,0.77,0.057,0.134,9.805,-0.01,0.0,0.0
1777316397.7158237,0.8,0.34,0.77,0.059,0.135,9.806,-0.01,0.0,-0.01
1777316397.726683,0.8,0.34,0.77,0.061,0.132,9.808,-0.01,-0.01,0.0
1777316397.735844,0.8,0.34,0.77,0.056,0.133,9.806,-0.01,-0.01,0.0
1777316397.74584,0.8,0.34,0.77,0.053,0.129,9.806,0.0,0.0,-0.01
1777316397.7562065,0.8,0.34,0.77,0.051,0.127,9.808,-0.01,0.0,-0.01
1777316397.7658362,0.8,0.34,0.77,0.051,0.126,9.808,-0.01,0.0,0.0
1777316397.775817,0.8,0.34,0.77,0.047,0.126,9.809,-0.01,0.0,0.0
1777316397.7858407,0.8,0.34,0.77,0.043,0.128,9.8,0.0,0.0,-0.01
1777316397.7957964,0.8,0.34,0.77,0.049,0.126,9.8,-0.01,0.0,0.0
1777316397.8058136,0.8,0.34,0.77,0.048,0.131,9.802,0.0,0.0,0.0
1777316397.8157942,0.8,0.34,0.77,0.051,0.129,9.804,-0.01,0.0,0.0
1777316397.8257651,0.8,0.34,0.77,0.05,0.129,9.805,0.0,0.0,0.0
1777316397.835825,0.8,0.34,0.77,0.05,0.127,9.806,0.0,-0.01,0.0
1777316397.8457825,0.8,0.34,0.77,0.053,0.128,9.808,-0.01,0.0,-0.01
1777316397.8558104,0.8,0.34,0.77,0.051,0.132,9.809,0.0,0.0,-0.01
1777316397.8658092,0.8,0.34,0.77,0.049,0.132,9.809,-0.01,0.0,0.0
1777316397.8757894,0.8,0.34,0.77,0.051,0.135,9.802,-0.01,-0.01,0.0
1777316397.8857794,0.8,0.34,0.77,0.053,0.133,9.8,-0.01,0.0,0.0
1777316397.8957858,0.8,0.34,0.77,0.051,0.129,9.803,-0.01,0.0,-0.01
1777316397.906116,0.8,0.34,0.77,0.053,0.128,9.805,0.0,0.0,0.0
1777316397.9160829,0.8,0.34,0.77,0.053,0.132,9.804,0.0,-0.01,0.0
1777316397.9257903,0.8,0.34,0.77,0.056,0.131,9.805,0.0,-0.01,0.0
1777316397.9357576,0.8,0.34,0.77,0.051,0.131,9.806,-0.01,0.0,0.0
1777316397.945784,0.8,0.34,0.77,0.05,0.132,9.805,0.0,-0.01,0.0
1777316397.9557884,0.8,0.34,0.77,0.048,0.134,9.806,0.0,0.0,0.0
1777316397.9657607,0.8,0.34,0.77,0.047,0.131,9.808,-0.01,0.0,0.0
1777316397.9757545,0.8,0.34,0.77,0.049,0.123,9.808,-0.01,0.0,-0.01
1777316397.9857693,0.8,0.34,0.77,0.051,0.126,9.809,-0.01,-0.01,-0.01
1777316397.9957716,0.8,0.34,0.77,0.054,0.125,9.809,0.0,-0.01,-0.01
1777316398.0057724,0.8,0.34,0.77,0.051,0.121,9.809,0.0,0.0,0.0
1777316398.0157623,0.8,0.34,0.77,0.055,0.126,9.804,-0.01,0.0,-0.01
1777316398.0257714,0.8,0.34,0.77,0.056,0.126,9.803,-0.01,-0.01,0.0
1777316398.0357628,0.8,0.34,0.77,0.054,0.128,9.805,0.0,0.0,-0.01
1777316398.0457604,0.8,0.34,0.77,0.05,0.131,9.806,0.0,0.0,0.0
1777316398.0557709,0.8,0.34,0.77,0.053,0.137,9.806,-0.01,-0.01,0.0
1777316398.065785,0.8,0.34,0.77,0.055,0.135,9.802,-0.01,0.0,-0.01
1777316398.0757947,0.8,0.34,0.77,0.055,0.134,9.8,-0.01,-0.01,0.0
1777316398.0857847,0.8,0.34,0.77,0.063,0.133,9.803,0.0,0.0,0.0
1777316398.0957422,0.8,0.34,0.77,0.06,0.125,9.802,0.0,0.0,-0.01
1777316398.1057656,0.8,0.34,0.77,0.059,0.121,9.798,0.0,0.0,-0.01
1777316398.1157444,0.8,0.34,0.77,0.056,0.123,9.8,-0.01,0.0,0.0
1777316398.1257749,0.8,0.34,0.77,0.051,0.128,9.803,-0.01,0.0,0.0
1777316398.1357405,0.8,0.33,0.77,0.049,0.132,9.805,-0.01,-0.01,0.0
1777316398.1457534,0.8,0.33,0.77,0.047,0.133,9.804,-0.01,0.0,-0.01
1777316398.1557705,0.8,0.33,0.77,0.048,0.134,9.805,0.0,0.0,0.0
1777316398.1657462,0.8,0.33,0.77,0.053,0.133,9.806,0.0,0.0,0.0
1777316398.1757705,0.8,0.33,0.77,0.049,0.137,9.803,-0.01,0.0,0.0
1777316398.1858058,0.8,0.33,0.77,0.047,0.139,9.802,-0.01,0.0,0.0
1777316398.1957726,0.8,0.33,0.77,0.049,0.139,9.804,0.0,-0.01,0.0
1777316398.2057438,0.8,0.33,0.77,0.059,0.139,9.805,0.0,0.0,-0.01
1777316398.2157536,0.8,0.33,0.77,0.057,0.139,9.8,-0.01,0.0,-0.01
1777316398.2257605,0.8,0.33,0.77,0.055,0.141,9.802,-0.01,0.0,-0.01
1777316398.2357862,0.8,0.33,0.77,0.056,0.132,9.804,-0.01,-0.01,-0.01
1777316398.2457328,0.8,0.33,0.77,0.063,0.132,9.805,0.0,0.0,-0.01
1777316398.2557669,0.8,0.33,0.77,0.062,0.128,9.806,0.0,0.0,-0.01
1777316398.265726,0.8,0.33,0.77,0.062,0.127,9.803,0.0,-0.01,-0.01
1777316398.2757568,0.8,0.33,0.77,0.059,0.126,9.804,0.0,-0.01,-0.01
1777316398.285775,0.8,0.33,0.77,0.06,0.133,9.805,-0.01,0.0,-0.01
1777316398.295759,0.8,0.34,0.77,0.059,0.132,9.806,0.0,-0.01,0.0
1777316398.3057845,0.8,0.34,0.77,0.059,0.133,9.808,-0.01,-0.01,0.0
1777316398.3157575,0.8,0.34,0.77,0.062,0.132,9.808,-0.01,0.0,0.0
1777316398.3257883,0.8,0.34,0.77,0.061,0.131,9.809,-0.01,-0.01,0.0
1777316398.3357692,0.8,0.34,0.77,0.057,0.133,9.808,-0.01,0.0,0.0
1777316398.3457296,0.8,0.34,0.77,0.056,0.138,9.809,0.0,-0.01,0.0
1777316398.3557713,0.8,0.34,0.77,0.057,0.132,9.809,-0.01,-0.01,0.0
1777316398.365762,0.8,0.34,0.77,0.056,0.125,9.809,-0.01,-0.01,0.0
1777316398.3757675,0.8,0.34,0.77,0.057,0.123,9.806,0.0,0.0,0.0
1777316398.3857405,0.8,0.34,0.77,0.063,0.126,9.808,-0.01,-0.01,0.0
1777316398.3957593,0.8,0.34,0.77,0.063,0.132,9.808,0.0,-0.01,0.0
1777316398.4057827,0.79,0.34,0.77,0.067,0.134,9.809,0.0,0.0,0.0
1777316398.4157677,0.79,0.34,0.77,0.067,0.128,9.809,-0.01,-0.01,0.0
1777316398.425741,0.79,0.34,0.77,0.068,0.128,9.809,0.0,0.0,0.0
1777316398.4357297,0.79,0.34,0.77,0.061,0.128,9.806,0.0,0.0,-0.01
1777316398.4457335,0.79,0.34,0.77,0.055,0.126,9.808,0.0,0.0,0.0
1777316398.4557707,0.79,0.34,0.77,0.059,0.12,9.808,0.0,-0.01,0.0
1777316398.4657214,0.79,0.34,0.77,0.061,0.125,9.809,-0.01,-0.01,-0.01
1777316398.475734,0.79,0.34,0.77,0.065,0.129,9.809,-0.01,0.0,-0.01
1777316398.4857574,0.79,0.34,0.77,0.063,0.127,9.809,0.0,0.0,-0.01
1777316398.4957304,0.79,0.34,0.77,0.066,0.129,9.809,-0.01,0.0,0.0
1777316398.5057778,0.79,0.34,0.77,0.066,0.128,9.81,-0.01,0.0,0.0
1777316398.5157318,0.79,0.34,0.77,0.067,0.131,9.81,-0.01,0.0,0.0
1777316398.5257673,0.79,0.34,0.77,0.061,0.128,9.81,0.0,-0.01,-0.01
1777316398.5357258,0.79,0.34,0.77,0.057,0.129,9.81,0.0,0.0,-0.01
1777316398.5457368,0.79,0.34,0.77,0.055,0.126,9.81,-0.01,-0.01,0.0
1777316398.5557187,0.79,0.34,0.77,0.053,0.128,9.808,-0.01,0.0,0.0
1777316398.5657365,0.79,0.34,0.77,0.048,0.131,9.809,-0.01,0.0,0.0
1777316398.5757174,0.79,0.34,0.77,0.048,0.132,9.809,0.0,-0.01,-0.01
1777316398.585874,0.79,0.34,0.77,0.044,0.129,9.809,-0.01,-0.01,0.0
1777316398.5957398,0.79,0.34,0.77,0.043,0.128,9.81,-0.01,-0.01,-0.01
1777316398.6057582,0.79,0.34,0.77,0.051,0.127,9.805,0.0,0.0,-0.01
1777316398.61575,0.79,0.34,0.77,0.05,0.123,9.806,0.0,-0.01,-0.01
1777316398.625716,0.79,0.34,0.77,0.056,0.123,9.808,-0.01,0.0,-0.01
1777316398.6357074,0.79,0.34,0.77,0.056,0.12,9.808,0.0,-0.01,0.0
1777316398.645765,0.79,0.34,0.76,0.056,0.117,9.809,-0.01,0.0,0.0
1777316398.6557336,0.79,0.34,0.76,0.051,0.114,9.809,-0.01,-0.01,0.0
1777316398.6648574,0.79,0.34,0.76,0.049,0.121,9.809,0.0,0.0,-0.01
1777316398.675728,0.79,0.34,0.76,0.057,0.123,9.81,-0.01,0.0,0.0
1777316398.6848578,0.79,0.34,0.76,0.062,0.132,9.809,-0.01,0.0,-0.01
1777316398.6957204,0.79,0.34,0.76,0.066,0.129,9.808,-0.01,-0.01,0.0
1777316398.7048602,0.79,0.34,0.76,0.063,0.132,9.805,-0.01,0.0,0.0
1777316398.7157018,0.79,0.34,0.76,0.061,0.129,9.806,-0.01,0.0,0.0
1777316398.72495,0.79,0.34,0.76,0.062,0.134,9.806,-0.01,-0.01,0.0
1777316398.7348795,0.79,0.34,0.77,0.066,0.132,9.808,0.0,0.0,0.0
1777316398.7457285,0.79,0.34,0.76,0.06,0.129,9.809,0.0,0.0,-0.01
1777316398.7548041,0.79,0.34,0.76,0.06,0.126,9.809,-0.01,0.0,-0.01
1777316398.7657273,0.79,0.34,0.76,0.06,0.125,9.809,-0.01,0.0,0.0
1777316398.774868,0.79,0.34,0.76,0.056,0.122,9.809,-0.01,0.0,-0.01
1777316398.7848494,0.79,0.34,0.76,0.061,0.123,9.81,-0.01,-0.01,0.0
1777316398.7948773,0.79,0.34,0.76,0.059,0.122,9.81,0.0,-0.01,0.0
1777316398.8048377,0.79,0.34,0.76,0.06,0.128,9.81,0.0,-0.01,0.0
1777316398.8148515,0.79,0.34,0.76,0.054,0.129,9.808,-0.01,-0.01,0.0
1777316398.8248339,0.79,0.34,0.76,0.055,0.123,9.808,-0.01,-0.01,0.0
1777316398.8348618,0.79,0.34,0.76,0.05,0.127,9.808,-0.01,0.0,0.0
1777316398.8448389,0.79,0.34,0.76,0.044,0.128,9.809,-0.01,0.0,0.0
1777316398.8548443,0.79,0.34,0.76,0.042,0.126,9.809,0.0,0.0,-0.01
1777316398.8648524,0.79,0.34,0.76,0.041,0.123,9.809,-0.01,0.0,-0.01
1777316398.874787,0.79,0.34,0.76,0.041,0.123,9.81,0.0,-0.01,-0.01
1777316398.8848474,0.79,0.34,0.76,0.047,0.123,9.809,-0.01,-0.01,0.0
1777316398.8948426,0.79,0.34,0.76,0.05,0.123,9.81,-0.01,-0.01,0.0
1777316398.9048274,0.79,0.34,0.76,0.055,0.129,9.81,-0.01,-0.01,0.0
1777316398.914858,0.79,0.34,0.76,0.061,0.128,9.81,0.0,-0.01,-0.01
1777316398.924826,0.79,0.34,0.76,0.057,0.126,9.81,-0.01,-0.01,0.0
1777316398.934831,0.79,0.34,0.76,0.059,0.129,9.81,-0.01,-0.01,0.0
1777316398.9449897,0.79,0.34,0.76,0.055,0.128,9.81,-0.01,0.0,-0.01
1777316398.954869,0.79,0.34,0.76,0.055,0.132,9.81,-0.01,0.0,0.0
1777316398.964923,0.79,0.34,0.76,0.059,0.133,9.81,-0.01,-0.01,0.0
1777316398.9748402,0.79,0.34,0.76,0.06,0.134,9.81,-0.01,-0.01,-0.01
1777316398.9848082,0.79,0.34,0.76,0.062,0.133,9.81,0.0,-0.01,0.0
1777316398.994997,0.79,0.34,0.76,0.062,0.127,9.809,0.0,0.0,0.0
1777316399.0047998,0.79,0.34,0.76,0.062,0.129,9.806,0.0,0.0,0.0
1777316399.0148199,0.79,0.34,0.76,0.068,0.131,9.802,0.0,0.0,-0.01
1777316399.024832,0.79,0.34,0.76,0.067,0.132,9.804,0.0,0.0,0.0
1777316399.0347855,0.79,0.34,0.76,0.067,0.131,9.805,0.0,0.0,0.0
1777316399.044819,0.79,0.34,0.76,0.065,0.133,9.805,-0.01,0.0,-0.01
1777316399.0547893,0.79,0.34,0.76,0.056,0.137,9.806,-0.01,0.0,0.0
1777316399.0648007,0.79,0.34,0.76,0.055,0.138,9.806,-0.01,0.0,0.0
1777316399.0747752,0.79,0.34,0.76,0.05,0.133,9.808,-0.01,0.0,0.0
1777316399.084792,0.79,0.34,0.76,0.053,0.132,9.808,-0.01,0.0,0.0
1777316399.094785,0.79,0.34,0.76,0.053,0.131,9.805,-0.01,-0.01,0.0
1777316399.104807,0.79,0.34,0.76,0.051,0.129,9.802,-0.01,-0.01,0.0
1777316399.1147816,0.79,0.34,0.76,0.051,0.126,9.804,-0.01,-0.01,0.0
1777316399.1248107,0.79,0.34,0.76,0.051,0.129,9.805,-0.01,0.0,-0.01
1777316399.1347966,0.79,0.34,0.76,0.05,0.133,9.806,-0.01,0.0,-0.01
1777316399.1448278,0.79,0.34,0.76,0.056,0.133,9.808,0.0,0.0,-0.01
1777316399.1548135,0.79,0.34,0.76,0.056,0.129,9.809,0.0,0.0,0.0
1777316399.1648102,0.79,0.34,0.76,0.059,0.131,9.809,-0.01,0.0,0.0
1777316399.1748302,0.79,0.34,0.76,0.06,0.132,9.809,-0.01,-0.01,0.0
1777316399.1848078,0.79,0.34,0.76,0.06,0.135,9.809,-0.01,-0.01,0.0
1777316399.1950548,0.79,0.34,0.76,0.059,0.132,9.805,-0.01,-0.01,0.0
1777316399.2047997,0.79,0.34,0.76,0.057,0.128,9.806,-0.01,0.0,-0.01
1777316399.2147768,0.79,0.34,0.76,0.062,0.126,9.808,-0.01,-0.01,-0.01
1777316399.2247772,0.79,0.34,0.76,0.061,0.127,9.809,-0.01,0.0,0.0
1777316399.2348044,0.79,0.34,0.76,0.066,0.132,9.808,0.0,0.0,0.0
1777316399.2447762,0.78,0.34,0.76,0.066,0.128,9.808,0.0,-0.01,-0.01
1777316399.254765,0.78,0.34,0.76,0.065,0.128,9.809,0.0,-0.01,0.0
1777316399.2647772,0.78,0.34,0.76,0.062,0.129,9.809,-0.01,-0.01,0.0
1777316399.274774,0.78,0.34,0.76,0.055,0.132,9.809,-0.01,0.0,-0.01
1777316399.2847445,0.78,0.34,0.76,0.051,0.129,9.81,-0.01,-0.01,0.0
1777316399.2947981,0.78,0.34,0.76,0.051,0.131,9.81,-0.01,-0.01,0.0
1777316399.304769,0.78,0.34,0.76,0.055,0.134,9.81,-0.01,-0.01,0.0
1777316399.3148005,0.78,0.34,0.76,0.061,0.139,9.81,0.0,-0.01,0.0
1777316399.324775,0.78,0.34,0.76,0.059,0.135,9.81,0.0,0.0,-0.01
1777316399.334796,0.78,0.34,0.76,0.056,0.137,9.81,-0.01,0.0,-0.01
1777316399.344779,0.78,0.34,0.76,0.054,0.131,9.81,-0.01,0.0,0.0
1777316399.354785,0.78,0.34,0.76,0.054,0.128,9.81,-0.01,-0.01,-0.01
1777316399.364792,0.78,0.34,0.76,0.056,0.125,9.81,-0.01,0.0,-0.01
1777316399.3747866,0.78,0.34,0.76,0.051,0.122,9.81,-0.01,-0.01,0.0
1777316399.384781,0.78,0.34,0.76,0.047,0.127,9.809,-0.01,-0.01,-0.01
1777316399.394782,0.79,0.34,0.76,0.046,0.131,9.809,-0.01,0.0,-0.01
1777316399.4048305,0.79,0.34,0.76,0.053,0.132,9.808,-0.01,0.0,-0.01
1777316399.4148118,0.79,0.34,0.76,0.055,0.129,9.809,0.0,-0.01,-0.01
1777316399.4247954,0.79,0.34,0.76,0.053,0.132,9.809,-0.01,-0.01,0.0
1777316399.4347656,0.78,0.34,0.76,0.049,0.126,9.809,-0.01,0.0,-0.01
1777316399.4447768,0.78,0.34,0.76,0.048,0.128,9.809,0.0,0.0,0.0
1777316399.4547956,0.78,0.34,0.76,0.049,0.128,9.81,-0.01,0.0,0.0
1777316399.4647925,0.78,0.34,0.76,0.048,0.129,9.81,0.0,0.0,0.0
1777316399.4748,0.78,0.34,0.76,0.048,0.133,9.81,-0.01,0.0,-0.01
1777316399.4847977,0.78,0.34,0.76,0.05,0.133,9.81,0.0,0.0,0.0
1777316399.4947472,0.78,0.34,0.76,0.053,0.134,9.81,0.0,0.0,-0.01
1777316399.5047607,0.78,0.34,0.76,0.057,0.134,9.81,0.0,0.0,0.0
1777316399.5148108,0.78,0.34,0.76,0.055,0.135,9.81,-0.01,-0.01,0.0
1777316399.5248003,0.78,0.34,0.76,0.061,0.134,9.808,0.0,0.0,0.0
1777316399.5347857,0.78,0.34,0.76,0.062,0.125,9.806,-0.01,0.0,-0.01
1777316399.5448005,0.78,0.34,0.76,0.062,0.129,9.808,-0.01,-0.01,0.0
1777316399.554767,0.78,0.34,0.76,0.062,0.138,9.809,-0.01,0.0,0.0
1777316399.564891,0.78,0.34,0.76,0.062,0.138,9.805,-0.01,-0.01,-0.01
1777316399.574745,0.78,0.34,0.76,0.061,0.138,9.8,-0.01,-0.01,0.0
1777316399.5847526,0.78,0.34,0.76,0.059,0.137,9.803,0.0,-0.01,0.0
1777316399.594799,0.78,0.34,0.76,0.054,0.141,9.804,-0.01,0.0,0.0
1777316399.6047497,0.78,0.34,0.76,0.049,0.143,9.806,-0.01,0.0,0.0
1777316399.614752,0.78,0.34,0.76,0.055,0.143,9.808,-0.01,0.0,-0.01
1777316399.6247761,0.78,0.34,0.76,0.054,0.138,9.808,-0.01,0.0,-0.01
1777316399.63481,0.78,0.34,0.76,0.054,0.133,9.809,0.0,-0.01,0.0
1777316399.6448958,0.78,0.34,0.76,0.055,0.133,9.809,-0.01,-0.01,0.0
1777316399.654806,0.78,0.34,0.76,0.049,0.134,9.809,0.0,-0.01,0.0
1777316399.6647568,0.78,0.34,0.76,0.055,0.131,9.809,0.0,0.0,0.0
1777316399.674803,0.78,0.34,0.76,0.056,0.129,9.806,-0.01,-0.01,-0.01
1777316399.6847613,0.78,0.34,0.76,0.062,0.129,9.806,0.0,0.0,0.0
1777316399.6947532,0.78,0.34,0.76,0.068,0.128,9.808,-0.01,-0.01,0.0
1777316399.7047641,0.78,0.34,0.76,0.068,0.127,9.809,-0.01,0.0,-0.01
1777316399.7147264,0.78,0.34,0.76,0.066,0.125,9.809,0.0,0.0,-0.01
1777316399.7247417,0.78,0.34,0.76,0.06,0.123,9.809,-0.01,0.0,0.0
1777316399.7347364,0.78,0.34,0.76,0.056,0.131,9.809,0.0,-0.01,0.0
1777316399.744733,0.78,0.34,0.76,0.06,0.134,9.81,0.0,-0.01,0.0
1777316399.754761,0.78,0.34,0.76,0.062,0.132,9.81,-0.01,0.0,0.0
1777316399.7639124,0.78,0.34,0.76,0.065,0.125,9.81,0.0,0.0,-0.01
1777316399.7747138,0.78,0.34,0.76,0.061,0.129,9.81,0.0,-0.01,0.0
1777316399.7848263,0.78,0.34,0.76,0.062,0.129,9.81,-0.01,0.0,0.0
1777316399.7947514,0.78,0.34,0.76,0.062,0.128,9.81,-0.01,-0.01,0.0
1777316399.8038702,0.78,0.34,0.76,0.059,0.127,9.81,-0.01,0.0,0.0
1777316399.8147256,0.78,0.34,0.76,0.053,0.129,9.81,-0.01,-0.01,-0.01
1777316399.824723,0.78,0.34,0.76,0.051,0.127,9.81,-0.01,-0.01,0.0
1777316399.83386,0.78,0.34,0.76,0.055,0.126,9.81,-0.01,0.0,-0.01
1777316399.8447428,0.78,0.34,0.76,0.054,0.125,9.81,-0.01,-0.01,0.0
1777316399.853961,0.78,0.34,0.76,0.056,0.121,9.81,0.0,0.0,-0.01
1777316399.8647447,0.78,0.34,0.76,0.054,0.125,9.81,0.0,0.0,-0.01
1777316399.8739157,0.78,0.34,0.76,0.054,0.127,9.81,0.0,-0.01,-0.01
1777316399.8838928,0.78,0.34,0.76,0.053,0.127,9.805,-0.01,-0.01,-0.01
1777316399.8947582,0.78,0.34,0.76,0.051,0.125,9.806,-0.01,0.0,0.0
1777316399.903802,0.78,0.34,0.76,0.053,0.126,9.806,0.0,0.0,0.0
1777316399.9138677,0.78,0.34,0.76,0.053,0.125,9.806,-0.01,-0.01,0.0
1777316399.9238765,0.78,0.34,0.76,0.055,0.129,9.808,-0.01,-0.01,0.0
1777316399.9338775,0.78,0.34,0.76,0.051,0.126,9.808,-0.01,0.0,0.0
