timestamp,yaw,pitch,roll,accel_x,accel_y,accel_z,gyro_x,gyro_y,gyro_z
1777316574.6754744,-0.1,0.34,0.73,0.057,0.121,9.743,-0.01,0.0,0.0
1777316574.686052,-0.1,0.34,0.73,0.057,0.125,9.735,-0.01,0.0,-0.01
1777316574.695591,-0.1,0.34,0.73,0.056,0.121,9.745,0.0,-0.01,-0.01
1777316574.7055607,-0.1,0.34,0.73,0.054,0.125,9.754,-0.01,0.0,-0.01
1777316574.7155988,-0.1,0.34,0.73,0.047,0.122,9.757,-0.01,-0.01,-0.01
1777316574.7254736,-0.1,0.34,0.73,0.055,0.117,9.751,0.0,0.0,0.0
1777316574.7354617,-0.1,0.34,0.73,0.059,0.125,9.75,0.0,0.0,-0.01
1777316574.7454588,-0.1,0.34,0.73,0.062,0.123,9.757,-0.01,-0.01,0.0
1777316574.755461,-0.1,0.34,0.73,0.062,0.125,9.756,0.0,0.0,-0.01
1777316574.7654712,-0.1,0.34,0.73,0.06,0.121,9.749,-0.01,0.0,0.0
1777316574.7755747,-0.1,0.34,0.73,0.061,0.12,9.742,0.0,0.0,-0.01
1777316574.7854764,-0.1,0.34,0.73,0.056,0.113,9.748,0.0,0.0,-0.01
1777316574.7958343,-0.1,0.34,0.72,0.055,0.123,9.748,-0.01,0.0,0.0
1777316574.805452,-0.1,0.34,0.73,0.059,0.131,9.753,-0.01,0.0,0.0
1777316574.8154542,-0.1,0.34,0.73,0.06,0.128,9.75,0.0,0.0,0.0
1777316574.8254359,-0.1,0.34,0.73,0.061,0.127,9.754,-0.01,0.0,-0.01
1777316574.8354506,-0.1,0.34,0.73,0.059,0.127,9.757,0.0,0.0,0.0
1777316574.8454306,-0.1,0.34,0.73,0.06,0.128,9.759,-0.01,-0.01,0.0
1777316574.8554587,-0.1,0.34,0.73,0.059,0.128,9.751,-0.01,0.0,-0.01
1777316574.8654568,-0.1,0.34,0.73,0.06,0.127,9.753,-0.01,0.0,0.0
1777316574.8754728,-0.1,0.34,0.73,0.051,0.125,9.754,0.0,0.0,0.0
1777316574.8854368,-0.1,0.33,0.73,0.047,0.127,9.757,0.0,0.0,0.0
1777316574.89546,-0.1,0.33,0.73,0.046,0.127,9.753,-0.01,0.0,0.0
1777316574.905433,-0.1,0.33,0.73,0.048,0.12,9.76,-0.01,-0.01,0.0
1777316574.915479,-0.1,0.33,0.73,0.047,0.116,9.754,-0.01,0.0,-0.01
1777316574.9254558,-0.1,0.33,0.73,0.048,0.114,9.756,0.0,-0.01,0.0
1777316574.935498,-0.1,0.33,0.72,0.057,0.113,9.755,-0.01,0.0,0.0
1777316574.9454472,-0.1,0.33,0.72,0.053,0.115,9.762,-0.01,0.0,0.0
1777316574.9554548,-0.1,0.33,0.72,0.05,0.121,9.759,-0.01,0.0,0.0
1777316574.965443,-0.1,0.33,0.72,0.054,0.12,9.754,0.0,-0.01,-0.01
1777316574.9754725,-0.1,0.33,0.72,0.049,0.115,9.756,0.0,0.0,-0.01
1777316574.9854448,-0.1,0.33,0.72,0.05,0.113,9.754,0.0,0.0,-0.01
1777316574.9954545,-0.1,0.33,0.72,0.049,0.109,9.755,-0.01,0.0,0.0
1777316575.0054226,-0.1,0.33,0.72,0.055,0.116,9.755,0.0,-0.01,0.0
1777316575.0154495,-0.1,0.33,0.72,0.057,0.12,9.754,-0.01,0.0,-0.01
1777316575.0254364,-0.1,0.33,0.72,0.061,0.121,9.749,0.0,-0.01,-0.01
1777316575.035445,-0.1,0.34,0.72,0.06,0.121,9.753,0.0,0.0,0.0
1777316575.0454478,-0.1,0.34,0.72,0.062,0.127,9.768,-0.01,-0.01,0.0
1777316575.055461,-0.1,0.34,0.72,0.062,0.125,9.769,-0.01,0.0,0.0
1777316575.0646296,-0.1,0.34,0.72,0.054,0.12,9.769,0.0,0.0,0.0
1777316575.0754466,-0.1,0.33,0.72,0.049,0.125,9.779,0.0,-0.01,0.0
1777316575.0854318,-0.1,0.33,0.72,0.054,0.123,9.769,-0.01,0.0,-0.01
1777316575.0954466,-0.1,0.34,0.72,0.051,0.115,9.761,0.0,0.0,0.0
1777316575.1046243,-0.1,0.33,0.72,0.049,0.116,9.754,-0.01,-0.01,0.0
1777316575.1154425,-0.1,0.33,0.72,0.05,0.11,9.75,-0.01,0.0,0.0
1777316575.1246035,-0.1,0.33,0.72,0.056,0.111,9.75,0.0,0.0,-0.01
1777316575.1354349,-0.1,0.34,0.72,0.066,0.119,9.759,0.0,0.0,-0.01
1777316575.1454704,-0.1,0.34,0.72,0.062,0.12,9.768,0.0,-0.01,0.0
1777316575.154586,-0.1,0.34,0.72,0.057,0.123,9.76,0.0,0.0,0.0
1777316575.1646216,-0.1,0.33,0.72,0.056,0.123,9.762,-0.01,0.0,0.0
1777316575.1746054,-0.1,0.33,0.72,0.053,0.12,9.766,0.0,0.0,-0.01
1777316575.1846216,-0.1,0.33,0.72,0.047,0.121,9.768,0.0,0.0,-0.01
1777316575.1954684,-0.1,0.33,0.72,0.046,0.116,9.76,0.0,0.0,-0.01
1777316575.2046156,-0.1,0.33,0.72,0.047,0.121,9.754,0.0,0.0,-0.01
1777316575.2146444,-0.1,0.33,0.72,0.05,0.127,9.759,-0.01,0.0,0.0
1777316575.224688,-0.1,0.33,0.72,0.047,0.123,9.756,-0.01,-0.01,0.0
1777316575.2355857,-0.1,0.33,0.72,0.044,0.127,9.757,0.0,0.0,-0.01
1777316575.2445865,-0.1,0.33,0.72,0.047,0.128,9.756,-0.01,0.0,-0.01
1777316575.254555,-0.1,0.33,0.72,0.055,0.122,9.759,0.0,-0.01,0.0
1777316575.2645872,-0.1,0.33,0.72,0.062,0.123,9.766,-0.01,0.0,0.0
1777316575.274542,-0.1,0.33,0.72,0.061,0.125,9.766,-0.01,0.0,0.0
1777316575.2845886,-0.1,0.33,0.72,0.054,0.122,9.767,-0.01,0.0,0.0
1777316575.2945457,-0.1,0.33,0.72,0.044,0.119,9.76,-0.01,0.0,-0.01
1777316575.3045847,-0.1,0.33,0.72,0.043,0.116,9.753,-0.01,0.0,-0.01
1777316575.3145857,-0.1,0.33,0.71,0.044,0.116,9.754,-0.01,-0.01,-0.01
1777316575.3245537,-0.1,0.33,0.71,0.043,0.119,9.763,-0.01,0.0,0.0
1777316575.3345704,-0.1,0.33,0.72,0.057,0.121,9.761,-0.01,0.0,0.0
1777316575.3445582,-0.1,0.33,0.71,0.061,0.117,9.761,0.0,0.0,0.0
1777316575.3545852,-0.1,0.33,0.71,0.071,0.119,9.756,-0.01,-0.01,0.0
1777316575.364527,-0.1,0.33,0.71,0.061,0.119,9.762,-0.01,0.0,0.0
1777316575.3745408,-0.1,0.33,0.71,0.061,0.12,9.759,0.0,0.0,0.0
1777316575.3845668,-0.1,0.33,0.71,0.05,0.121,9.757,-0.01,0.0,0.0
1777316575.3945572,-0.1,0.33,0.71,0.048,0.121,9.754,0.0,0.0,-0.01
1777316575.404543,-0.1,0.33,0.71,0.047,0.125,9.757,0.0,-0.01,0.0
1777316575.4145892,-0.1,0.33,0.71,0.048,0.128,9.761,-0.01,-0.01,0.0
1777316575.4245398,-0.1,0.33,0.72,0.059,0.127,9.76,0.0,-0.01,0.0
1777316575.4345412,-0.1,0.34,0.72,0.069,0.127,9.76,0.0,-0.01,0.0
1777316575.4445395,-0.1,0.34,0.72,0.067,0.127,9.762,-0.01,-0.01,0.0
1777316575.4545743,-0.1,0.34,0.72,0.069,0.122,9.759,0.0,0.0,-0.01
1777316575.4645505,-0.1,0.34,0.72,0.065,0.121,9.763,0.0,0.0,-0.01
1777316575.4745576,-0.1,0.33,0.72,0.056,0.125,9.754,-0.01,0.0,0.0
1777316575.4845273,-0.1,0.33,0.72,0.049,0.131,9.747,0.0,0.0,0.0
1777316575.4945474,-0.1,0.33,0.72,0.042,0.127,9.748,0.0,0.0,-0.01
1777316575.5045152,-0.1,0.33,0.72,0.042,0.123,9.759,0.0,0.0,-0.01
1777316575.5145593,-0.1,0.33,0.72,0.034,0.12,9.762,0.0,-0.01,-0.01
1777316575.524501,-0.1,0.33,0.72,0.046,0.123,9.76,0.0,0.0,0.0
1777316575.5345423,-0.1,0.33,0.72,0.05,0.119,9.764,-0.01,-0.01,0.0
1777316575.5445006,-0.1,0.33,0.72,0.062,0.12,9.759,-0.01,0.0,0.0
1777316575.554545,-0.1,0.33,0.72,0.057,0.122,9.763,-0.01,0.0,0.0
1777316575.5645456,-0.1,0.33,0.72,0.059,0.122,9.749,0.0,0.0,0.0
1777316575.5745068,-0.1,0.33,0.72,0.046,0.123,9.748,-0.01,0.0,0.0
1777316575.584501,-0.1,0.33,0.72,0.044,0.125,9.739,-0.01,0.0,-0.01
1777316575.594528,-0.1,0.32,0.72,0.037,0.12,9.741,0.0,0.0,-0.01
1777316575.6045063,-0.1,0.32,0.72,0.037,0.116,9.751,-0.01,0.0,0.0
1777316575.6145475,-0.1,0.32,0.72,0.044,0.117,9.755,-0.01,-0.01,0.0
1777316575.6245692,-0.1,0.32,0.72,0.05,0.119,9.759,0.0,0.0,0.0
1777316575.6345525,-0.1,0.32,0.71,0.05,0.117,9.767,-0.01,-0.01,-0.01
1777316575.644517,-0.1,0.33,0.71,0.054,0.117,9.775,-0.01,0.0,-0.01
1777316575.6545486,-0.1,0.33,0.71,0.059,0.122,9.775,0.0,0.0,0.0
1777316575.6645172,-0.1,0.33,0.72,0.062,0.122,9.774,0.0,0.0,0.0
1777316575.6745172,-0.1,0.33,0.72,0.057,0.122,9.77,0.0,0.0,0.0
1777316575.6845508,-0.1,0.32,0.72,0.049,0.122,9.761,-0.01,0.0,0.0
1777316575.694522,-0.1,0.32,0.72,0.047,0.122,9.757,0.0,0.0,0.0
1777316575.7045212,-0.1,0.32,0.72,0.046,0.125,9.763,0.0,-0.01,0.0
1777316575.7145064,-0.1,0.32,0.72,0.04,0.126,9.764,-0.01,0.0,0.0
1777316575.72452,-0.1,0.32,0.72,0.049,0.119,9.766,0.0,0.0,-0.01
1777316575.7345235,-0.1,0.32,0.71,0.051,0.114,9.769,-0.01,-0.01,0.0
1777316575.7445202,-0.1,0.32,0.71,0.043,0.121,9.77,0.0,-0.01,0.0
1777316575.754494,-0.1,0.32,0.72,0.048,0.126,9.769,0.0,-0.01,0.0
1777316575.7645178,-0.1,0.32,0.72,0.05,0.123,9.778,0.0,-0.01,0.0
1777316575.7744923,-0.1,0.32,0.72,0.047,0.131,9.775,0.0,0.0,-0.01
1777316575.7845194,-0.1,0.32,0.72,0.05,0.132,9.766,0.0,0.0,-0.01
1777316575.7945225,-0.1,0.32,0.72,0.053,0.127,9.766,0.0,0.0,0.0
1777316575.8045068,-0.1,0.32,0.72,0.049,0.127,9.772,-0.01,0.0,0.0
1777316575.8145282,-0.1,0.32,0.72,0.049,0.128,9.768,-0.01,0.0,0.0
1777316575.8244903,-0.1,0.32,0.72,0.053,0.127,9.767,0.0,0.0,0.0
1777316575.8345249,-0.1,0.32,0.72,0.05,0.126,9.766,0.0,0.0,0.0
1777316575.8444736,-0.1,0.32,0.72,0.057,0.123,9.76,0.0,0.0,-0.01
1777316575.854528,-0.1,0.32,0.72,0.063,0.128,9.759,0.0,-0.01,-0.01
1777316575.864491,-0.1,0.33,0.72,0.073,0.132,9.761,-0.01,-0.01,0.0
1777316575.874527,-0.11,0.33,0.72,0.071,0.125,9.762,-0.01,0.0,0.0
1777316575.884482,-0.11,0.33,0.72,0.062,0.126,9.755,0.0,0.0,0.0
1777316575.8944957,-0.11,0.33,0.72,0.057,0.127,9.759,-0.01,0.0,0.0
1777316575.9044611,-0.1,0.33,0.72,0.056,0.127,9.754,0.0,0.0,-0.01
1777316575.9145124,-0.1,0.33,0.72,0.047,0.125,9.761,-0.01,0.0,-0.01
1777316575.9244912,-0.1,0.32,0.72,0.051,0.126,9.763,-0.01,-0.01,-0.01
1777316575.934512,-0.11,0.33,0.72,0.053,0.125,9.768,0.0,0.0,0.0
1777316575.9444726,-0.11,0.33,0.72,0.059,0.121,9.774,-0.01,-0.01,0.0
1777316575.9545124,-0.11,0.33,0.72,0.061,0.12,9.778,-0.01,0.0,0.0
1777316575.964463,-0.1,0.33,0.72,0.059,0.117,9.779,0.0,0.0,0.0
1777316575.9744968,-0.1,0.33,0.72,0.059,0.114,9.775,0.0,0.0,-0.01
1777316575.9844615,-0.11,0.33,0.72,0.062,0.116,9.774,-0.01,0.0,0.0
1777316575.9944763,-0.11,0.33,0.72,0.061,0.119,9.767,-0.01,0.0,0.0
1777316576.0036228,-0.11,0.33,0.72,0.059,0.116,9.757,0.0,0.0,0.0
1777316576.0144417,-0.11,0.33,0.71,0.057,0.116,9.764,0.0,0.0,0.0
1777316576.024479,-0.11,0.33,0.71,0.061,0.12,9.759,-0.01,0.0,0.0
1777316576.0344498,-0.11,0.33,0.71,0.051,0.116,9.755,0.0,0.0,-0.01
1777316576.0444794,-0.11,0.33,0.71,0.056,0.125,9.75,-0.01,0.0,-0.01
1777316576.0544446,-0.11,0.33,0.72,0.047,0.123,9.759,0.0,-0.01,0.0
1777316576.0644608,-0.11,0.33,0.72,0.054,0.132,9.751,0.0,0.0,0.0
1777316576.073625,-0.11,0.33,0.72,0.054,0.134,9.755,0.0,-0.01,0.0
1777316576.084464,-0.11,0.33,0.72,0.062,0.135,9.75,-0.01,0.0,0.0
1777316576.0936308,-0.11,0.33,0.72,0.053,0.129,9.761,-0.01,0.0,0.0
1777316576.1045146,-0.11,0.33,0.72,0.057,0.131,9.761,-0.01,0.0,0.0
1777316576.1136293,-0.11,0.33,0.72,0.056,0.129,9.767,0.0,0.0,0.0
1777316576.1236382,-0.11,0.33,0.72,0.057,0.135,9.762,-0.01,-0.01,0.0
1777316576.1344697,-0.11,0.33,0.72,0.06,0.137,9.772,-0.01,0.0,0.0
1777316576.143628,-0.11,0.33,0.72,0.059,0.134,9.768,-0.01,0.0,0.0
1777316576.1536412,-0.11,0.33,0.72,0.055,0.129,9.776,-0.01,-0.01,-0.01
1777316576.1644664,-0.11,0.33,0.72,0.049,0.123,9.774,-0.01,0.0,-0.01
1777316576.1736326,-0.11,0.32,0.72,0.048,0.116,9.775,-0.01,0.0,-0.01
1777316576.1836405,-0.11,0.32,0.71,0.047,0.121,9.768,-0.01,0.0,-0.01
1777316576.1936374,-0.11,0.32,0.72,0.047,0.128,9.766,-0.01,0.0,0.0
1777316576.2036364,-0.11,0.32,0.72,0.057,0.125,9.759,-0.01,0.0,-0.01
1777316576.213612,-0.11,0.32,0.72,0.051,0.127,9.753,-0.01,-0.01,0.0
1777316576.2236273,-0.11,0.32,0.72,0.049,0.132,9.75,-0.01,0.0,-0.01
1777316576.2336254,-0.11,0.32,0.72,0.049,0.125,9.749,0.0,0.0,0.0
1777316576.2436457,-0.11,0.32,0.72,0.048,0.117,9.753,-0.01,0.0,0.0
1777316576.2536407,-0.11,0.32,0.71,0.046,0.122,9.753,-0.01,0.0,0.0
1777316576.2636237,-0.11,0.32,0.72,0.049,0.126,9.749,-0.01,0.0,0.0
1777316576.2736433,-0.11,0.32,0.72,0.051,0.127,9.754,0.0,-0.01,-0.01
1777316576.28362,-0.11,0.32,0.72,0.054,0.121,9.756,-0.01,0.0,0.0
1777316576.2935884,-0.11,0.32,0.71,0.054,0.121,9.756,-0.01,-0.01,0.0
1777316576.3036451,-0.11,0.32,0.72,0.057,0.122,9.756,-0.01,0.0,0.0
1777316576.313641,-0.11,0.32,0.72,0.053,0.122,9.757,0.0,0.0,0.0
1777316576.323611,-0.11,0.32,0.71,0.06,0.128,9.757,-0.01,-0.01,0.0
1777316576.3336349,-0.11,0.32,0.72,0.061,0.127,9.762,-0.01,0.0,0.0
1777316576.3435884,-0.11,0.32,0.72,0.057,0.127,9.755,0.0,0.0,0.0
1777316576.353598,-0.11,0.32,0.72,0.051,0.132,9.754,-0.01,0.0,-0.01
1777316576.3635597,-0.11,0.32,0.72,0.057,0.131,9.748,0.0,0.0,0.0
1777316576.3735962,-0.11,0.32,0.72,0.049,0.129,9.751,0.0,0.0,-0.01
1777316576.3835793,-0.11,0.32,0.72,0.055,0.131,9.751,0.0,-0.01,0.0
1777316576.3935747,-0.11,0.32,0.72,0.056,0.134,9.762,-0.01,0.0,0.0
1777316576.403579,-0.11,0.33,0.72,0.061,0.137,9.756,0.0,0.0,0.0
1777316576.4135678,-0.11,0.33,0.72,0.065,0.137,9.764,-0.01,0.0,0.0
1777316576.423594,-0.11,0.33,0.72,0.069,0.14,9.757,0.0,-0.01,-0.01
1777316576.4335675,-0.11,0.33,0.73,0.062,0.145,9.756,-0.01,0.0,0.0
1777316576.4435577,-0.11,0.33,0.73,0.06,0.14,9.755,0.0,-0.01,-0.01
1777316576.4535544,-0.11,0.33,0.73,0.057,0.131,9.748,-0.01,0.0,0.0
1777316576.4635525,-0.11,0.33,0.73,0.056,0.127,9.759,0.0,0.0,0.0
1777316576.4735577,-0.11,0.33,0.73,0.057,0.129,9.767,-0.01,0.0,0.0
1777316576.4835544,-0.11,0.33,0.72,0.05,0.125,9.762,0.0,-0.01,0.0
1777316576.4935594,-0.11,0.32,0.72,0.053,0.123,9.755,-0.01,0.0,-0.01
1777316576.5035553,-0.11,0.32,0.73,0.055,0.126,9.76,0.0,0.0,-0.01
1777316576.5135574,-0.11,0.33,0.73,0.054,0.128,9.763,0.0,0.0,0.0
1777316576.5235238,-0.11,0.33,0.73,0.054,0.128,9.762,0.0,0.0,0.0
1777316576.533566,-0.11,0.32,0.73,0.054,0.129,9.757,-0.01,0.0,0.0
1777316576.5435297,-0.11,0.32,0.73,0.057,0.125,9.761,-0.01,0.0,-0.01
1777316576.553591,-0.11,0.33,0.73,0.054,0.117,9.766,0.0,0.0,-0.01
1777316576.5635405,-0.11,0.32,0.72,0.057,0.12,9.768,0.0,-0.01,0.0
1777316576.573579,-0.11,0.33,0.72,0.063,0.121,9.767,-0.01,0.0,0.0
1777316576.5835392,-0.11,0.33,0.72,0.061,0.125,9.762,0.0,-0.01,0.0
1777316576.5935419,-0.11,0.33,0.72,0.065,0.125,9.751,-0.01,0.0,0.0
1777316576.6035786,-0.11,0.33,0.72,0.06,0.121,9.764,-0.01,0.0,0.0
1777316576.6135583,-0.11,0.33,0.72,0.059,0.119,9.768,-0.01,0.0,-0.01
1777316576.6235769,-0.11,0.33,0.72,0.059,0.116,9.768,0.0,0.0,-0.01
1777316576.6335456,-0.11,0.33,0.72,0.055,0.116,9.764,-0.01,0.0,0.0
1777316576.6435423,-0.11,0.33,0.72,0.053,0.116,9.768,-0.01,0.0,0.0
1777316576.6535487,-0.11,0.33,0.72,0.059,0.113,9.778,-0.01,-0.01,0.0
1777316576.6635823,-0.11,0.33,0.72,0.065,0.114,9.774,-0.01,0.0,0.0
1777316576.673545,-0.11,0.33,0.72,0.062,0.117,9.778,0.0,0.0,-0.01
1777316576.6835434,-0.11,0.33,0.72,0.063,0.12,9.768,0.0,0.0,0.0
1777316576.6935751,-0.11,0.33,0.72,0.054,0.123,9.772,0.0,-0.01,0.0
1777316576.703542,-0.11,0.33,0.72,0.06,0.129,9.766,-0.01,0.0,0.0
1777316576.7135546,-0.11,0.33,0.72,0.057,0.131,9.775,-0.01,-0.01,0.0
1777316576.7235463,-0.11,0.33,0.72,0.056,0.134,9.766,-0.01,0.0,0.0
1777316576.7335505,-0.11,0.33,0.72,0.051,0.129,9.761,-0.01,-0.01,0.0
1777316576.7435439,-0.11,0.33,0.72,0.056,0.122,9.756,-0.01,0.0,0.0
1777316576.7535174,-0.11,0.33,0.72,0.053,0.125,9.761,0.0,0.0,0.0
1777316576.763547,-0.11,0.33,0.72,0.06,0.127,9.764,-0.01,-0.01,-0.01
1777316576.7735488,-0.11,0.33,0.72,0.061,0.129,9.767,-0.01,-0.01,-0.01
1777316576.7835467,-0.11,0.33,0.72,0.06,0.128,9.761,0.0,0.0,0.0
1777316576.7935503,-0.11,0.33,0.72,0.057,0.133,9.77,-0.01,-0.01,0.0
1777316576.8035443,-0.11,0.33,0.72,0.059,0.128,9.764,0.0,0.0,0.0
1777316576.8135147,-0.11,0.33,0.72,0.056,0.126,9.77,0.0,-0.01,0.0
1777316576.8235023,-0.11,0.34,0.72,0.066,0.122,9.764,-0.01,0.0,-0.01
1777316576.8335521,-0.11,0.34,0.72,0.06,0.117,9.761,0.0,-0.01,-0.01
1777316576.8435144,-0.11,0.34,0.72,0.061,0.12,9.764,0.0,-0.01,0.0
1777316576.8535516,-0.11,0.34,0.72,0.06,0.123,9.762,-0.01,-0.01,0.0
1777316576.8635163,-0.11,0.34,0.72,0.065,0.12,9.757,0.0,0.0,-0.01
1777316576.873485,-0.11,0.34,0.72,0.057,0.122,9.76,-0.01,-0.01,-0.01
1777316576.8835156,-0.11,0.34,0.72,0.063,0.125,9.757,-0.01,0.0,0.0
1777316576.893537,-0.11,0.34,0.72,0.067,0.125,9.762,0.0,0.0,0.0
1777316576.9034834,-0.11,0.34,0.72,0.066,0.128,9.761,0.0,0.0,0.0
1777316576.9135194,-0.11,0.34,0.72,0.053,0.132,9.766,-0.01,0.0,0.0
1777316576.923485,-0.11,0.34,0.72,0.057,0.128,9.756,0.0,0.0,-0.01
1777316576.9335043,-0.11,0.34,0.72,0.053,0.131,9.757,-0.01,0.0,0.0
1777316576.9434857,-0.11,0.34,0.72,0.059,0.134,9.761,-0.01,0.0,0.0
1777316576.9534843,-0.11,0.34,0.72,0.05,0.131,9.77,0.0,0.0,0.0
1777316576.9626553,-0.11,0.34,0.72,0.055,0.135,9.762,-0.01,0.0,-0.01
1777316576.9734802,-0.11,0.34,0.72,0.055,0.128,9.769,-0.01,0.0,0.0
1777316576.9826636,-0.11,0.34,0.72,0.053,0.126,9.761,-0.01,-0.01,0.0
1777316576.9934838,-0.11,0.34,0.72,0.051,0.131,9.768,-0.01,0.0,0.0
1777316577.0034993,-0.11,0.34,0.73,0.057,0.133,9.764,0.0,0.0,0.0
1777316577.012665,-0.11,0.34,0.73,0.055,0.132,9.77,-0.01,0.0,0.0
1777316577.0234866,-0.11,0.34,0.73,0.059,0.132,9.769,0.0,0.0,0.0
1777316577.0334897,-0.11,0.34,0.73,0.05,0.125,9.775,-0.01,-0.01,-0.01
1777316577.043506,-0.11,0.34,0.73,0.051,0.12,9.768,0.0,0.0,-0.01
1777316577.0526688,-0.11,0.34,0.72,0.049,0.121,9.768,0.0,0.0,0.0
1777316577.0626485,-0.11,0.33,0.72,0.051,0.122,9.776,-0.01,-0.01,0.0
1777316577.0734904,-0.11,0.34,0.72,0.049,0.116,9.779,-0.01,0.0,-0.01
1777316577.0826478,-0.11,0.33,0.72,0.054,0.117,9.773,0.0,-0.01,0.0
1777316577.093493,-0.11,0.34,0.72,0.057,0.119,9.764,-0.01,0.0,0.0
1777316577.103482,-0.11,0.34,0.72,0.053,0.119,9.759,-0.01,-0.01,0.0
1777316577.112658,-0.11,0.34,0.72,0.056,0.12,9.753,-0.01,0.0,0.0
1777316577.1226423,-0.11,0.33,0.72,0.05,0.125,9.762,0.0,-0.01,0.0
1777316577.1334946,-0.11,0.33,0.72,0.053,0.127,9.759,-0.01,0.0,0.0
1777316577.1426702,-0.11,0.33,0.72,0.046,0.126,9.755,0.0,-0.01,0.0
1777316577.1534965,-0.11,0.33,0.72,0.048,0.132,9.755,0.0,0.0,0.0
1777316577.1626482,-0.11,0.33,0.72,0.042,0.129,9.764,-0.01,-0.01,-0.01
1777316577.1734717,-0.11,0.33,0.72,0.048,0.126,9.768,0.0,0.0,0.0
1777316577.1826305,-0.11,0.33,0.72,0.048,0.127,9.773,0.0,0.0,0.0
1777316577.192652,-0.11,0.33,0.72,0.056,0.132,9.76,-0.01,0.0,0.0
1777316577.2026286,-0.11,0.33,0.72,0.062,0.129,9.766,0.0,0.0,0.0
1777316577.212703,-0.11,0.33,0.73,0.062,0.131,9.773,-0.01,0.0,-0.01
1777316577.2226512,-0.11,0.33,0.73,0.061,0.132,9.763,0.0,0.0,-0.01
1777316577.232643,-0.11,0.33,0.72,0.056,0.129,9.762,0.0,0.0,0.0
1777316577.2426262,-0.11,0.33,0.72,0.051,0.125,9.763,-0.01,-0.01,0.0
1777316577.2526371,-0.11,0.33,0.72,0.056,0.119,9.757,-0.01,0.0,0.0
1777316577.2626374,-0.11,0.33,0.72,0.055,0.121,9.757,0.0,-0.01,0.0
1777316577.2726917,-0.11,0.33,0.72,0.05,0.127,9.757,-0.01,0.0,-0.01
1777316577.282628,-0.11,0.33,0.72,0.053,0.131,9.759,-0.01,-0.01,-0.01
1777316577.2933404,-0.11,0.33,0.72,0.057,0.131,9.751,0.0,0.0,-0.01
1777316577.302614,-0.11,0.33,0.72,0.05,0.129,9.76,-0.01,-0.01,0.0
1777316577.3125875,-0.11,0.33,0.72,0.051,0.128,9.764,-0.01,0.0,0.0
1777316577.322604,-0.11,0.33,0.72,0.05,0.132,9.768,-0.01,0.0,0.0
1777316577.3326323,-0.11,0.33,0.73,0.053,0.132,9.764,-0.01,0.0,0.0
1777316577.3425925,-0.11,0.33,0.72,0.047,0.129,9.761,0.0,0.0,-0.01
1777316577.3525898,-0.11,0.33,0.72,0.053,0.132,9.754,-0.01,0.0,-0.01
1777316577.3626175,-0.11,0.33,0.73,0.048,0.127,9.762,-0.01,0.0,0.0
1777316577.372591,-0.11,0.33,0.73,0.053,0.129,9.761,0.0,-0.01,0.0
1777316577.382604,-0.11,0.33,0.73,0.05,0.129,9.761,0.0,0.0,0.0
1777316577.3925917,-0.11,0.33,0.73,0.053,0.128,9.755,0.0,0.0,-0.01
1777316577.402596,-0.11,0.33,0.73,0.057,0.134,9.761,0.0,0.0,0.0
1777316577.412592,-0.11,0.33,0.73,0.053,0.132,9.763,-0.01,-0.01,0.0
1777316577.422588,-0.11,0.33,0.73,0.047,0.134,9.755,-0.01,0.0,0.0
1777316577.432588,-0.11,0.33,0.73,0.047,0.129,9.76,-0.01,0.0,-0.01
1777316577.4426024,-0.11,0.33,0.73,0.047,0.117,9.768,-0.01,0.0,0.0
1777316577.4525917,-0.11,0.33,0.72,0.05,0.117,9.775,0.0,-0.01,0.0
1777316577.4625907,-0.11,0.32,0.72,0.054,0.117,9.778,-0.01,0.0,0.0
1777316577.4725769,-0.11,0.32,0.72,0.056,0.113,9.775,0.0,0.0,0.0
1777316577.482589,-0.11,0.33,0.72,0.051,0.117,9.781,-0.01,0.0,0.0
1777316577.4925964,-0.11,0.33,0.72,0.062,0.116,9.786,-0.01,-0.01,-0.01
1777316577.502577,-0.11,0.33,0.72,0.059,0.119,9.782,0.0,-0.01,0.0
1777316577.5125935,-0.11,0.33,0.72,0.061,0.126,9.769,-0.01,0.0,0.0
1777316577.5225625,-0.11,0.33,0.72,0.061,0.122,9.773,0.0,0.0,0.0
1777316577.5325358,-0.11,0.33,0.72,0.055,0.117,9.77,-0.01,-0.01,0.0
1777316577.5425768,-0.12,0.33,0.72,0.053,0.114,9.768,-0.01,0.0,0.0
1777316577.5525975,-0.12,0.33,0.72,0.047,0.114,9.772,0.0,0.0,0.0
1777316577.562548,-0.11,0.33,0.72,0.047,0.12,9.767,-0.01,0.0,0.0
1777316577.5725522,-0.11,0.33,0.72,0.046,0.117,9.768,-0.01,0.0,-0.01
1777316577.5825956,-0.11,0.33,0.72,0.05,0.121,9.768,0.0,-0.01,0.0
1777316577.5925465,-0.12,0.33,0.71,0.055,0.12,9.775,-0.01,-0.01,0.0
1777316577.60256,-0.12,0.33,0.71,0.059,0.116,9.773,-0.01,-0.01,0.0
1777316577.612552,-0.12,0.33,0.71,0.056,0.121,9.767,0.0,0.0,0.0
1777316577.6225657,-0.12,0.33,0.71,0.06,0.126,9.763,-0.01,-0.01,0.0
1777316577.632577,-0.11,0.33,0.72,0.055,0.122,9.768,0.0,0.0,-0.01
1777316577.6425524,-0.12,0.33,0.71,0.057,0.123,9.762,0.0,-0.01,0.0
1777316577.6525805,-0.12,0.33,0.72,0.057,0.121,9.766,-0.01,0.0,0.0
1777316577.6625645,-0.12,0.33,0.72,0.057,0.127,9.767,0.0,0.0,0.0
1777316577.672564,-0.12,0.33,0.71,0.054,0.121,9.767,-0.01,0.0,0.0
1777316577.6825638,-0.11,0.33,0.71,0.051,0.121,9.764,-0.01,-0.01,-0.01
1777316577.692564,-0.11,0.33,0.71,0.048,0.117,9.768,0.0,0.0,-0.01
1777316577.7025647,-0.11,0.33,0.71,0.056,0.12,9.762,0.0,0.0,0.0
1777316577.7125304,-0.12,0.33,0.71,0.059,0.128,9.77,-0.01,0.0,0.0
1777316577.7225525,-0.12,0.33,0.72,0.063,0.128,9.761,0.0,0.0,0.0
1777316577.7325675,-0.12,0.33,0.71,0.065,0.126,9.769,-0.01,0.0,0.0
1777316577.7425783,-0.11,0.33,0.71,0.061,0.126,9.767,-0.01,-0.01,-0.01
1777316577.7525687,-0.11,0.33,0.71,0.053,0.127,9.764,-0.01,0.0,-0.01
1777316577.7625651,-0.11,0.33,0.71,0.048,0.129,9.759,-0.01,0.0,0.0
1777316577.7725694,-0.11,0.33,0.71,0.044,0.125,9.755,-0.01,0.0,0.0
1777316577.7825372,-0.11,0.32,0.71,0.043,0.116,9.76,-0.01,0.0,0.0
1777316577.79257,-0.12,0.32,0.71,0.043,0.121,9.761,-0.01,0.0,0.0
1777316577.802515,-0.11,0.32,0.71,0.05,0.123,9.769,0.0,0.0,0.0
1777316577.8125687,-0.11,0.32,0.71,0.053,0.114,9.76,0.0,0.0,-0.01
1777316577.8225183,-0.11,0.32,0.71,0.056,0.113,9.755,0.0,0.0,-0.01
1777316577.8325455,-0.12,0.32,0.71,0.055,0.119,9.766,-0.01,0.0,0.0
1777316577.8425221,-0.12,0.32,0.71,0.05,0.121,9.763,-0.01,0.0,0.0
1777316577.8525383,-0.12,0.32,0.71,0.056,0.122,9.754,0.0,0.0,0.0
1777316577.8625019,-0.11,0.32,0.71,0.059,0.121,9.761,-0.01,0.0,-0.01
1777316577.8725212,-0.12,0.32,0.71,0.057,0.121,9.755,0.0,0.0,0.0
1777316577.8824887,-0.12,0.32,0.71,0.056,0.125,9.757,-0.01,0.0,0.0
1777316577.8925226,-0.12,0.32,0.71,0.053,0.122,9.753,-0.01,0.0,0.0
1777316577.9025388,-0.12,0.32,0.71,0.059,0.117,9.747,0.0,0.0,-0.01
1777316577.9125047,-0.12,0.32,0.71,0.067,0.116,9.755,0.0,0.0,-0.01
1777316577.9225287,-0.12,0.33,0.71,0.065,0.12,9.759,0.0,0.0,0.0
1777316577.9325051,-0.12,0.33,0.71,0.068,0.131,9.754,-0.01,0.0,0.0
1777316577.9425237,-0.12,0.33,0.71,0.062,0.129,9.754,0.0,0.0,0.0
1777316577.9525068,-0.12,0.33,0.71,0.061,0.132,9.76,-0.01,0.0,-0.01
1777316577.9617002,-0.11,0.33,0.71,0.048,0.131,9.769,-0.01,0.0,-0.01
1777316577.9725246,-0.11,0.32,0.71,0.053,0.123,9.757,0.0,0.0,-0.01
1777316577.98254,-0.11,0.33,0.71,0.05,0.12,9.757,0.0,0.0,0.0
1777316577.9925053,-0.11,0.33,0.71,0.059,0.119,9.756,-0.01,-0.01,0.0
1777316578.0025196,-0.11,0.33,0.71,0.054,0.114,9.763,0.0,0.0,0.0
1777316578.0116942,-0.11,0.33,0.71,0.063,0.114,9.762,0.0,0.0,-0.01
1777316578.0225239,-0.11,0.33,0.71,0.055,0.109,9.762,-0.01,0.0,-0.01
1777316578.0325043,-0.11,0.33,0.71,0.066,0.111,9.747,-0.01,0.0,-0.01
1777316578.0416749,-0.11,0.33,0.71,0.055,0.114,9.76,-0.01,0.0,0.0
1777316578.0525033,-0.11,0.32,0.71,0.056,0.123,9.755,-0.01,0.0,0.0
1777316578.0616868,-0.11,0.33,0.71,0.042,0.126,9.751,0.0,0.0,-0.01
1777316578.071673,-0.11,0.32,0.71,0.053,0.127,9.759,-0.01,-0.01,-0.01
1777316578.0816712,-0.11,0.33,0.71,0.046,0.121,9.763,-0.01,0.0,-0.01
1777316578.0916903,-0.11,0.32,0.71,0.048,0.123,9.761,0.0,-0.01,0.0
1777316578.1016448,-0.11,0.33,0.71,0.048,0.129,9.763,-0.01,0.0,0.0
1777316578.112486,-0.11,0.32,0.71,0.057,0.131,9.764,-0.01,-0.01,0.0
1777316578.1216471,-0.11,0.33,0.71,0.05,0.135,9.769,-0.01,0.0,-0.01
1777316578.131644,-0.11,0.32,0.71,0.05,0.137,9.772,0.0,-0.01,-0.01
1777316578.1416712,-0.11,0.32,0.71,0.05,0.129,9.77,-0.01,0.0,-0.01
1777316578.15166,-0.11,0.32,0.71,0.051,0.131,9.772,0.0,-0.01,0.0
1777316578.1616454,-0.11,0.32,0.71,0.051,0.132,9.77,-0.01,0.0,0.0
1777316578.171663,-0.11,0.32,0.71,0.043,0.126,9.77,0.0,-0.01,0.0
1777316578.181646,-0.11,0.32,0.71,0.042,0.125,9.774,-0.01,0.0,0.0
1777316578.1916661,-0.11,0.32,0.71,0.049,0.121,9.776,-0.01,-0.01,-0.01
1777316578.2016463,-0.11,0.32,0.71,0.053,0.12,9.776,0.0,0.0,-0.01
1777316578.2116556,-0.11,0.32,0.71,0.057,0.123,9.772,0.0,-0.01,0.0
1777316578.221659,-0.11,0.33,0.71,0.066,0.122,9.774,-0.01,-0.01,0.0
1777316578.2316365,-0.11,0.33,0.71,0.061,0.12,9.77,0.0,-0.01,-0.01
1777316578.2416782,-0.11,0.33,0.71,0.066,0.12,9.762,0.0,0.0,-0.01
1777316578.2516353,-0.11,0.33,0.71,0.054,0.119,9.76,0.0,0.0,0.0
1777316578.2616773,-0.11,0.33,0.71,0.06,0.125,9.75,-0.01,0.0,0.0
1777316578.271607,-0.11,0.33,0.71,0.053,0.122,9.757,-0.01,0.0,0.0
1777316578.2816367,-0.11,0.32,0.71,0.048,0.122,9.757,-0.01,0.0,-0.01
1777316578.2916334,-0.11,0.32,0.71,0.038,0.121,9.766,-0.01,0.0,-0.01
1777316578.301658,-0.11,0.32,0.71,0.041,0.12,9.761,-0.01,-0.01,0.0
1777316578.311618,-0.11,0.32,0.71,0.049,0.123,9.767,0.0,0.0,0.0
1777316578.3216288,-0.11,0.32,0.71,0.06,0.127,9.767,-0.01,-0.01,0.0
1777316578.3316472,-0.11,0.33,0.71,0.059,0.131,9.769,-0.01,0.0,0.0
1777316578.341618,-0.11,0.33,0.71,0.065,0.133,9.772,0.0,0.0,-0.01
1777316578.3516548,-0.11,0.33,0.71,0.059,0.132,9.77,-0.01,0.0,-0.01
1777316578.361613,-0.11,0.33,0.71,0.059,0.126,9.756,-0.01,0.0,-0.01
1777316578.3716407,-0.11,0.33,0.71,0.053,0.125,9.761,0.0,0.0,0.0
1777316578.381631,-0.11,0.32,0.71,0.051,0.129,9.761,-0.01,0.0,0.0
1777316578.391601,-0.11,0.32,0.71,0.043,0.126,9.763,0.0,0.0,0.0
1777316578.4016116,-0.11,0.32,0.71,0.054,0.123,9.761,0.0,-0.01,-0.01
1777316578.4115994,-0.11,0.33,0.71,0.051,0.121,9.767,-0.01,-0.01,-0.01
1777316578.4216084,-0.11,0.33,0.71,0.057,0.125,9.761,0.0,-0.01,0.0
1777316578.4316146,-0.11,0.33,0.71,0.061,0.128,9.767,-0.01,-0.01,0.0
1777316578.4416368,-0.11,0.33,0.71,0.068,0.133,9.759,-0.01,-0.01,0.0
1777316578.4515638,-0.11,0.33,0.71,0.065,0.135,9.756,-0.01,0.0,0.0
1777316578.46159,-0.11,0.33,0.71,0.061,0.139,9.756,-0.01,0.0,-0.01
1777316578.4715884,-0.11,0.33,0.71,0.051,0.14,9.759,0.0,0.0,-0.01
1777316578.4816144,-0.11,0.33,0.71,0.054,0.132,9.748,0.0,0.0,-0.01
1777316578.4915981,-0.11,0.33,0.71,0.047,0.131,9.75,-0.01,-0.01,0.0
1777316578.501563,-0.11,0.33,0.71,0.054,0.137,9.744,-0.01,0.0,0.0
1777316578.5115867,-0.11,0.33,0.71,0.054,0.137,9.751,-0.01,0.0,0.0
1777316578.521594,-0.11,0.33,0.71,0.057,0.133,9.761,0.0,0.0,-0.01
1777316578.5316265,-0.11,0.33,0.71,0.059,0.126,9.767,-0.01,0.0,-0.01
1777316578.5416133,-0.11,0.33,0.71,0.062,0.123,9.768,-0.01,-0.01,-0.01
1777316578.5515745,-0.11,0.33,0.71,0.072,0.123,9.774,-0.01,0.0,0.0
1777316578.5616193,-0.11,0.34,0.71,0.072,0.123,9.773,-0.01,-0.01,0.0
1777316578.5715714,-0.11,0.34,0.71,0.069,0.127,9.769,0.0,-0.01,0.0
1777316578.5816262,-0.11,0.34,0.71,0.063,0.129,9.763,0.0,0.0,0.0
1777316578.5916023,-0.11,0.33,0.71,0.053,0.123,9.759,-0.01,0.0,-0.01
1777316578.6015859,-0.11,0.33,0.71,0.047,0.123,9.75,-0.01,0.0,-0.01
1777316578.6115832,-0.11,0.33,0.71,0.04,0.12,9.755,-0.01,-0.01,0.0
1777316578.6216056,-0.11,0.33,0.71,0.042,0.122,9.761,-0.01,-0.01,0.0
1777316578.63158,-0.11,0.33,0.71,0.048,0.125,9.759,0.0,-0.01,-0.01
1777316578.6415544,-0.11,0.33,0.71,0.056,0.119,9.764,0.0,0.0,-0.01
1777316578.6515853,-0.11,0.33,0.71,0.055,0.119,9.766,-0.01,-0.01,-0.01
1777316578.6615899,-0.11,0.33,0.71,0.059,0.126,9.763,-0.01,0.0,0.0
1777316578.671583,-0.11,0.33,0.71,0.054,0.127,9.764,0.0,0.0,0.0
1777316578.6815727,-0.11,0.33,0.71,0.046,0.128,9.766,-0.01,0.0,0.0
1777316578.6915867,-0.11,0.32,0.71,0.044,0.122,9.76,-0.01,0.0,-0.01
1777316578.7015886,-0.11,0.32,0.71,0.04,0.115,9.767,-0.01,-0.01,-0.01
1777316578.711566,-0.11,0.32,0.71,0.047,0.114,9.768,0.0,0.0,-0.01
1777316578.7215948,-0.11,0.32,0.71,0.055,0.117,9.775,-0.01,0.0,0.0
1777316578.7315576,-0.11,0.33,0.71,0.062,0.126,9.766,-0.01,-0.01,0.0
1777316578.7415977,-0.11,0.33,0.71,0.068,0.128,9.76,-0.01,0.0,0.0
1777316578.751584,-0.11,0.33,0.71,0.072,0.126,9.769,-0.01,0.0,-0.01
1777316578.76154,-0.11,0.33,0.71,0.063,0.125,9.767,-0.01,0.0,-0.01
1777316578.771557,-0.11,0.33,0.71,0.065,0.128,9.766,0.0,0.0,0.0
1777316578.7815256,-0.11,0.33,0.71,0.063,0.128,9.756,-0.01,0.0,0.0
1777316578.7915542,-0.11,0.33,0.71,0.059,0.121,9.756,-0.01,0.0,0.0
1777316578.8016005,-0.11,0.33,0.71,0.054,0.122,9.759,0.0,0.0,0.0
1777316578.8115644,-0.11,0.33,0.71,0.061,0.121,9.764,0.0,0.0,-0.01
1777316578.821599,-0.11,0.33,0.71,0.057,0.113,9.766,0.0,0.0,0.0
1777316578.8315501,-0.11,0.33,0.71,0.063,0.119,9.761,-0.01,0.0,0.0
1777316578.8415768,-0.11,0.33,0.71,0.068,0.12,9.762,-0.01,0.0,0.0
1777316578.8515224,-0.11,0.33,0.71,0.071,0.123,9.762,-0.01,0.0,0.0
1777316578.8615603,-0.11,0.33,0.71,0.065,0.122,9.766,-0.01,0.0,0.0
1777316578.8715243,-0.11,0.33,0.71,0.063,0.129,9.761,-0.01,0.0,0.0
1777316578.8815596,-0.11,0.33,0.71,0.057,0.126,9.763,-0.01,0.0,0.0
1777316578.8915212,-0.11,0.33,0.71,0.056,0.127,9.754,-0.01,0.0,-0.01
1777316578.9015605,-0.11,0.33,0.71,0.049,0.125,9.767,0.0,0.0,0.0
1777316578.9115417,-0.11,0.33,0.71,0.054,0.125,9.77,-0.01,0.0,-0.01
1777316578.9215574,-0.11,0.33,0.71,0.056,0.126,9.775,0.0,0.0,0.0
1777316578.9315119,-0.11,0.33,0.71,0.06,0.126,9.769,0.0,0.0,0.0
1777316578.9415488,-0.11,0.33,0.71,0.063,0.128,9.769,-0.01,0.0,0.0
1777316578.9507167,-0.11,0.33,0.71,0.065,0.123,9.762,0.0,-0.01,0.0
1777316578.9615445,-0.11,0.33,0.71,0.061,0.122,9.767,-0.01,0.0,0.0
1777316578.9707077,-0.11,0.33,0.71,0.059,0.122,9.763,-0.01,0.0,0.0
1777316578.9815288,-0.11,0.33,0.71,0.056,0.122,9.764,-0.01,0.0,0.0
1777316578.9915113,-0.11,0.33,0.71,0.054,0.128,9.759,-0.01,-0.01,0.0
1777316579.0018759,-0.11,0.33,0.71,0.048,0.126,9.768,-0.01,0.0,0.0
1777316579.011525,-0.11,0.33,0.71,0.055,0.129,9.764,-0.01,-0.01,-0.01
1777316579.0206866,-0.11,0.33,0.71,0.057,0.126,9.766,0.0,0.0,0.0
1777316579.0315318,-0.11,0.33,0.71,0.056,0.125,9.767,-0.01,-0.01,0.0
1777316579.0406878,-0.11,0.33,0.71,0.062,0.122,9.766,-0.01,0.0,0.0
1777316579.0515282,-0.11,0.33,0.71,0.056,0.125,9.769,0.0,0.0,0.0
1777316579.0606868,-0.11,0.33,0.71,0.06,0.133,9.762,-0.01,0.0,0.0
1777316579.0706851,-0.11,0.33,0.71,0.054,0.128,9.757,-0.01,0.0,-0.01
1777316579.0815089,-0.11,0.33,0.71,0.051,0.123,9.761,-0.01,0.0,0.0
1777316579.0906894,-0.11,0.33,0.71,0.051,0.12,9.773,-0.01,0.0,0.0
1777316579.1015136,-0.11,0.33,0.71,0.051,0.119,9.766,-0.01,0.0,0.0
1777316579.1106625,-0.11,0.33,0.71,0.047,0.121,9.767,-0.01,-0.01,0.0
1777316579.120714,-0.11,0.33,0.71,0.055,0.117,9.757,-0.01,0.0,-0.01
1777316579.1306598,-0.11,0.33,0.71,0.05,0.12,9.759,0.0,-0.01,-0.01
1777316579.140623,-0.11,0.33,0.71,0.061,0.125,9.761,-0.01,0.0,0.0
1777316579.1506896,-0.11,0.33,0.71,0.055,0.126,9.767,0.0,0.0,0.0
1777316579.1606479,-0.11,0.33,0.71,0.056,0.135,9.768,-0.01,-0.01,0.0
1777316579.1706467,-0.11,0.33,0.71,0.051,0.135,9.769,-0.01,0.0,-0.01
1777316579.1806467,-0.11,0.33,0.71,0.049,0.131,9.759,0.0,0.0,-0.01
1777316579.1906488,-0.11,0.33,0.71,0.042,0.126,9.759,-0.01,0.0,0.0
1777316579.2006488,-0.11,0.32,0.71,0.044,0.12,9.753,0.0,0.0,0.0
1777316579.2106237,-0.11,0.32,0.71,0.04,0.114,9.761,0.0,0.0,0.0
1777316579.2206843,-0.11,0.32,0.71,0.048,0.121,9.761,-0.01,-0.01,0.0
1777316579.2306423,-0.11,0.33,0.71,0.051,0.12,9.764,0.0,-0.01,0.0
1777316579.2406416,-0.11,0.33,0.71,0.057,0.123,9.768,0.0,-0.01,-0.01
1777316579.2506692,-0.11,0.33,0.71,0.062,0.121,9.773,-0.01,0.0,-0.01
1777316579.260652,-0.11,0.33,0.71,0.065,0.123,9.776,0.0,0.0,0.0
1777316579.2706704,-0.11,0.33,0.71,0.06,0.131,9.775,-0.01,0.0,0.0
1777316579.2806282,-0.11,0.33,0.71,0.061,0.133,9.77,-0.01,0.0,0.0
1777316579.2906315,-0.11,0.33,0.71,0.053,0.127,9.767,0.0,0.0,-0.01
1777316579.300648,-0.11,0.33,0.71,0.042,0.123,9.767,-0.01,-0.01,-0.01
1777316579.3106096,-0.11,0.33,0.71,0.043,0.119,9.759,-0.01,0.0,0.0
1777316579.3207989,-0.11,0.33,0.71,0.048,0.119,9.761,0.0,-0.01,0.0
1777316579.3306613,-0.11,0.33,0.71,0.06,0.121,9.76,-0.01,0.0,0.0
1777316579.3407323,-0.12,0.33,0.71,0.062,0.12,9.759,0.0,0.0,0.0
1777316579.350603,-0.11,0.33,0.71,0.067,0.12,9.755,0.0,0.0,0.0
1777316579.3606465,-0.11,0.33,0.71,0.066,0.122,9.756,-0.01,0.0,-0.01
1777316579.3705988,-0.11,0.33,0.71,0.06,0.125,9.763,0.0,0.0,0.0
1777316579.380612,-0.11,0.33,0.71,0.059,0.125,9.761,0.0,0.0,0.0
1777316579.3906064,-0.12,0.33,0.71,0.048,0.128,9.76,-0.01,0.0,0.0
1777316579.400624,-0.12,0.33,0.71,0.047,0.121,9.759,-0.01,-0.01,0.0
1777316579.4106112,-0.12,0.33,0.71,0.053,0.12,9.755,0.0,0.0,0.0
1777316579.4206402,-0.12,0.33,0.71,0.049,0.121,9.766,-0.01,-0.01,0.0
1777316579.4306262,-0.12,0.33,0.71,0.054,0.123,9.76,-0.01,0.0,0.0
1777316579.4406412,-0.12,0.33,0.71,0.061,0.123,9.764,0.0,-0.01,0.0
1777316579.4506128,-0.12,0.33,0.71,0.057,0.128,9.77,-0.01,0.0,0.0
1777316579.4606507,-0.12,0.33,0.71,0.055,0.123,9.77,-0.01,0.0,0.0
1777316579.470638,-0.12,0.33,0.71,0.049,0.122,9.764,-0.01,0.0,0.0
1777316579.4806082,-0.12,0.33,0.71,0.038,0.121,9.764,-0.01,0.0,-0.01
1777316579.49062,-0.12,0.33,0.71,0.04,0.121,9.764,0.0,0.0,-0.01
1777316579.5006537,-0.12,0.32,0.71,0.041,0.122,9.768,0.0,-0.01,0.0
1777316579.5106535,-0.12,0.33,0.71,0.049,0.117,9.769,0.0,0.0,0.0
1777316579.520652,-0.12,0.33,0.71,0.05,0.122,9.767,0.0,-0.01,0.0
1777316579.5306282,-0.12,0.33,0.71,0.056,0.125,9.769,-0.01,0.0,-0.01
1777316579.5406144,-0.12,0.33,0.71,0.056,0.125,9.769,-0.01,0.0,-0.01
1777316579.5506132,-0.12,0.33,0.71,0.05,0.125,9.76,0.0,0.0,0.0
1777316579.5606437,-0.12,0.32,0.71,0.043,0.127,9.759,-0.01,0.0,0.0
1777316579.5706155,-0.12,0.32,0.71,0.05,0.131,9.753,-0.01,0.0,0.0
1777316579.5806174,-0.12,0.32,0.71,0.05,0.127,9.755,-0.01,0.0,-0.01
1777316579.590631,-0.12,0.32,0.71,0.053,0.122,9.751,-0.01,0.0,-0.01
1777316579.6021833,-0.12,0.32,0.71,0.047,0.115,9.762,0.0,-0.01,-0.01
1777316579.6139686,-0.12,0.32,0.71,0.051,0.115,9.753,-0.01,0.0,0.0
1777316579.6235979,-0.12,0.32,0.71,0.051,0.12,9.757,-0.01,0.0,0.0
1777316579.635028,-0.12,0.32,0.71,0.056,0.129,9.76,-0.01,0.0,0.0
1777316579.6429675,-0.12,0.32,0.71,0.054,0.127,9.773,0.0,0.0,0.0
1777316579.65225,-0.12,0.32,0.71,0.057,0.123,9.769,-0.01,0.0,-0.01
1777316579.662129,-0.12,0.32,0.71,0.049,0.114,9.767,0.0,0.0,-0.01
1777316579.6709816,-0.12,0.32,0.71,0.053,0.115,9.757,-0.01,0.0,-0.01
1777316579.6813092,-0.12,0.32,0.71,0.048,0.116,9.768,-0.01,0.0,0.0
1777316579.691721,-0.12,0.32,0.7,0.049,0.119,9.772,-0.01,0.0,0.0
1777316579.7010674,-0.12,0.32,0.71,0.047,0.125,9.772,-0.01,0.0,0.0
1777316579.7114232,-0.12,0.32,0.71,0.051,0.126,9.769,0.0,-0.01,-0.01
1777316579.7205806,-0.12,0.32,0.71,0.047,0.128,9.773,-0.01,0.0,-0.01
1777316579.73129,-0.12,0.32,0.71,0.055,0.131,9.766,-0.01,-0.01,0.0
1777316579.7409964,-0.12,0.32,0.71,0.054,0.131,9.766,-0.01,0.0,0.0
1777316579.7510107,-0.12,0.32,0.71,0.061,0.134,9.76,0.0,-0.01,0.0
1777316579.7605727,-0.12,0.32,0.71,0.057,0.131,9.77,0.0,0.0,0.0
1777316579.7707484,-0.12,0.32,0.71,0.061,0.123,9.766,-0.01,0.0,-0.01
1777316579.7811506,-0.12,0.32,0.71,0.056,0.114,9.757,-0.01,0.0,-0.01
1777316579.7914324,-0.12,0.32,0.7,0.054,0.119,9.759,0.0,-0.01,0.0
1777316579.8005667,-0.12,0.32,0.71,0.049,0.123,9.759,-0.01,0.0,0.0
1777316579.8105485,-0.12,0.32,0.71,0.048,0.126,9.756,-0.01,-0.01,0.0
1777316579.821118,-0.12,0.32,0.71,0.046,0.125,9.751,-0.01,0.0,-0.01
1777316579.8305957,-0.12,0.32,0.7,0.05,0.122,9.755,-0.01,-0.01,-0.01
1777316579.8410347,-0.12,0.32,0.71,0.05,0.123,9.754,0.0,0.0,0.0
1777316579.8505743,-0.12,0.32,0.7,0.048,0.132,9.761,-0.01,0.0,0.0
1777316579.860953,-0.12,0.32,0.71,0.056,0.128,9.756,-0.01,0.0,0.0
1777316579.8711054,-0.12,0.32,0.71,0.05,0.123,9.768,0.0,0.0,-0.01
1777316579.880553,-0.12,0.32,0.7,0.048,0.128,9.774,-0.01,0.0,-0.01
1777316579.8910112,-0.12,0.32,0.71,0.05,0.126,9.773,-0.01,0.0,0.0
1777316579.901375,-0.12,0.32,0.71,0.049,0.132,9.759,0.0,0.0,0.0
1777316579.910815,-0.12,0.32,0.71,0.048,0.129,9.762,-0.01,-0.01,0.0
1777316579.9208467,-0.12,0.32,0.71,0.048,0.127,9.749,0.0,0.0,-0.01
1777316579.9305665,-0.12,0.32,0.71,0.047,0.129,9.753,0.0,0.0,0.0
1777316579.9403076,-0.12,0.32,0.71,0.061,0.134,9.743,-0.01,0.0,0.0
1777316579.9531834,-0.12,0.32,0.71,0.065,0.126,9.748,0.0,0.0,-0.01
1777316579.960894,-0.12,0.32,0.71,0.072,0.127,9.751,-0.01,0.0,0.0
1777316579.9698741,-0.12,0.32,0.71,0.065,0.121,9.764,-0.01,0.0,-0.01
1777316579.9805954,-0.12,0.32,0.71,0.066,0.115,9.763,0.0,0.0,-0.01
1777316579.9905334,-0.12,0.32,0.71,0.059,0.119,9.766,-0.01,0.0,-0.01
1777316580.000862,-0.12,0.32,0.71,0.057,0.121,9.768,-0.01,0.0,0.0
1777316580.0101404,-0.12,0.32,0.71,0.059,0.125,9.767,0.0,0.0,0.0
1777316580.019827,-0.12,0.32,0.71,0.06,0.132,9.77,-0.01,-0.01,0.0
1777316580.0298936,-0.12,0.32,0.71,0.066,0.131,9.766,0.0,0.0,0.0
1777316580.0406127,-0.12,0.32,0.71,0.067,0.132,9.762,-0.01,0.0,-0.01
1777316580.0498683,-0.12,0.32,0.71,0.071,0.132,9.766,0.0,0.0,0.0
1777316580.0599844,-0.12,0.33,0.71,0.068,0.128,9.773,-0.01,0.0,0.0
1777316580.0699544,-0.12,0.33,0.71,0.067,0.135,9.778,0.0,-0.01,0.0
1777316580.0805643,-0.12,0.33,0.71,0.065,0.137,9.773,-0.01,0.0,-0.01
1777316580.0897377,-0.12,0.33,0.71,0.062,0.132,9.784,0.0,0.0,0.0
1777316580.0997298,-0.12,0.33,0.71,0.06,0.134,9.772,-0.01,0.0,0.0
1777316580.109992,-0.12,0.33,0.71,0.053,0.131,9.775,-0.01,0.0,0.0
1777316580.1197283,-0.12,0.32,0.71,0.053,0.129,9.774,-0.01,0.0,0.0
1777316580.1298387,-0.12,0.32,0.71,0.051,0.127,9.767,0.0,0.0,-0.01
1777316580.139734,-0.12,0.32,0.71,0.059,0.123,9.764,0.0,0.0,-0.01
1777316580.1497452,-0.12,0.33,0.71,0.06,0.121,9.769,-0.01,0.0,0.0
1777316580.1597254,-0.12,0.33,0.71,0.06,0.123,9.762,-0.01,0.0,0.0
1777316580.169727,-0.12,0.33,0.71,0.067,0.126,9.766,0.0,0.0,0.0
1777316580.1798713,-0.12,0.33,0.71,0.065,0.128,9.762,-0.01,0.0,-0.01
1777316580.1899986,-0.12,0.33,0.71,0.055,0.127,9.759,-0.01,0.0,-0.01
1777316580.1996722,-0.12,0.33,0.71,0.055,0.116,9.763,-0.01,0.0,-0.01
1777316580.2101202,-0.12,0.32,0.71,0.049,0.12,9.772,-0.01,0.0,0.0
1777316580.2197402,-0.12,0.32,0.71,0.053,0.122,9.772,-0.01,0.0,0.0
1777316580.2299416,-0.12,0.32,0.71,0.059,0.114,9.773,0.0,0.0,0.0
1777316580.2411397,-0.12,0.33,0.71,0.055,0.113,9.768,-0.01,0.0,0.0
1777316580.2502792,-0.12,0.33,0.71,0.059,0.108,9.761,-0.01,0.0,-0.01
1777316580.2618117,-0.12,0.33,0.71,0.053,0.109,9.764,0.0,0.0,0.0
1777316580.2707646,-0.12,0.32,0.71,0.051,0.122,9.767,-0.01,0.0,0.0
1777316580.2869112,-0.12,0.32,0.71,0.055,0.123,9.764,0.0,0.0,0.0
1777316580.2983048,-0.12,0.32,0.71,0.057,0.122,9.755,0.0,0.0,-0.01
1777316580.2996073,-0.12,0.32,0.71,0.055,0.121,9.762,0.0,0.0,-0.01
1777316580.3097095,-0.12,0.32,0.71,0.062,0.127,9.762,-0.01,-0.01,0.0
1777316580.3197901,-0.12,0.33,0.71,0.06,0.131,9.757,-0.01,0.0,0.0
1777316580.3295968,-0.12,0.33,0.71,0.062,0.131,9.761,-0.01,0.0,0.0
1777316580.34013,-0.12,0.33,0.71,0.059,0.127,9.763,-0.01,0.0,-0.01
1777316580.3496144,-0.12,0.33,0.71,0.056,0.128,9.77,-0.01,-0.01,0.0
1777316580.3596084,-0.12,0.33,0.71,0.056,0.127,9.759,-0.01,0.0,0.0
1777316580.3697991,-0.12,0.33,0.71,0.053,0.125,9.763,-0.01,0.0,0.0
1777316580.37968,-0.12,0.33,0.71,0.053,0.129,9.757,-0.01,0.0,-0.01
1777316580.3896215,-0.12,0.32,0.71,0.057,0.122,9.755,0.0,0.0,-0.01
1777316580.3997068,-0.12,0.33,0.71,0.061,0.122,9.757,-0.01,0.0,0.0
1777316580.4096167,-0.12,0.33,0.71,0.05,0.125,9.766,-0.01,0.0,0.0
1777316580.419613,-0.12,0.32,0.71,0.057,0.131,9.753,0.0,0.0,0.0
1777316580.4296043,-0.12,0.32,0.71,0.049,0.129,9.755,-0.01,0.0,-0.01
1777316580.4396195,-0.12,0.32,0.71,0.054,0.125,9.75,0.0,0.0,-0.01
1777316580.4495895,-0.12,0.32,0.71,0.053,0.128,9.762,0.0,0.0,0.0
1777316580.459616,-0.12,0.32,0.71,0.054,0.132,9.761,-0.01,0.0,0.0
1777316580.4695923,-0.12,0.32,0.71,0.055,0.132,9.773,-0.01,0.0,0.0
1777316580.4795835,-0.12,0.32,0.71,0.053,0.125,9.767,-0.01,0.0,-0.01
1777316580.4896166,-0.12,0.32,0.71,0.054,0.128,9.761,0.0,0.0,-0.01
1777316580.499737,-0.12,0.32,0.71,0.055,0.128,9.763,0.0,0.0,0.0
1777316580.5095596,-0.12,0.32,0.71,0.057,0.128,9.76,0.0,0.0,0.0
1777316580.5197368,-0.12,0.32,0.71,0.049,0.126,9.76,-0.01,0.0,-0.01
1777316580.5295706,-0.12,0.32,0.71,0.05,0.123,9.757,0.0,0.0,-0.01
1777316580.539724,-0.12,0.32,0.71,0.056,0.125,9.755,0.0,0.0,-0.01
1777316580.5496075,-0.12,0.32,0.71,0.055,0.132,9.763,0.0,-0.01,0.0
1777316580.5597239,-0.12,0.32,0.71,0.063,0.138,9.756,-0.01,0.0,0.0
1777316580.5698202,-0.12,0.32,0.71,0.056,0.137,9.762,0.0,0.0,-0.01
1777316580.5796087,-0.12,0.32,0.71,0.059,0.135,9.762,0.0,0.0,-0.01
1777316580.5896122,-0.12,0.33,0.71,0.061,0.129,9.762,-0.01,0.0,0.0
1777316580.599742,-0.12,0.32,0.71,0.054,0.127,9.76,0.0,-0.01,0.0
1777316580.609591,-0.12,0.32,0.71,0.06,0.126,9.756,-0.01,0.0,0.0
1777316580.6196017,-0.12,0.33,0.71,0.056,0.121,9.763,0.0,0.0,0.0
1777316580.629598,-0.12,0.33,0.71,0.057,0.129,9.766,-0.01,0.0,-0.01
1777316580.639578,-0.12,0.32,0.71,0.05,0.127,9.776,-0.01,-0.01,-0.01
1777316580.6496024,-0.12,0.32,0.71,0.059,0.125,9.77,0.0,0.0,0.0
1777316580.6597302,-0.12,0.33,0.71,0.055,0.122,9.77,-0.01,0.0,0.0
1777316580.6695862,-0.12,0.32,0.71,0.065,0.123,9.757,-0.01,0.0,0.0
1777316580.6796167,-0.12,0.33,0.71,0.056,0.122,9.762,0.0,0.0,0.0
1777316580.6895897,-0.12,0.32,0.71,0.062,0.125,9.759,-0.01,0.0,-0.01
1777316580.6996126,-0.12,0.32,0.71,0.055,0.123,9.756,-0.01,0.0,-0.01
1777316580.7095883,-0.12,0.32,0.71,0.054,0.131,9.761,-0.01,0.0,0.0
1777316580.7197387,-0.12,0.32,0.71,0.05,0.134,9.764,-0.01,0.0,0.0
1777316580.7297072,-0.12,0.32,0.71,0.056,0.127,9.757,-0.01,0.0,-0.01
1777316580.7395728,-0.12,0.32,0.71,0.056,0.129,9.763,-0.01,0.0,0.0
1777316580.7495883,-0.12,0.32,0.71,0.059,0.126,9.759,-0.01,0.0,0.0
1777316580.7596204,-0.12,0.32,0.71,0.059,0.125,9.763,0.0,0.0,0.0
1777316580.7695642,-0.12,0.32,0.71,0.061,0.131,9.761,-0.01,0.0,0.0
1777316580.7795973,-0.12,0.32,0.71,0.057,0.131,9.764,-0.01,0.0,0.0
1777316580.789563,-0.12,0.32,0.71,0.055,0.128,9.761,-0.01,0.0,-0.01
1777316580.799688,-0.12,0.32,0.71,0.048,0.126,9.761,-0.01,0.0,0.0
1777316580.8095894,-0.12,0.32,0.71,0.041,0.121,9.762,0.0,0.0,0.0
1777316580.8195574,-0.12,0.32,0.71,0.041,0.122,9.76,0.0,0.0,0.0
1777316580.8295975,-0.12,0.32,0.71,0.046,0.123,9.756,-0.01,-0.01,0.0
1777316580.8395705,-0.12,0.32,0.71,0.059,0.125,9.753,-0.01,0.0,0.0
1777316580.8500085,-0.12,0.32,0.71,0.063,0.128,9.76,-0.01,0.0,0.0
1777316580.859583,-0.12,0.32,0.71,0.065,0.127,9.757,-0.01,0.0,0.0
1777316580.869565,-0.12,0.32,0.71,0.063,0.132,9.761,-0.01,0.0,-0.01
1777316580.878722,-0.12,0.32,0.71,0.061,0.126,9.76,0.0,0.0,-0.01
1777316580.8895934,-0.12,0.32,0.71,0.056,0.126,9.76,-0.01,0.0,-0.01
1777316580.898709,-0.12,0.32,0.71,0.048,0.122,9.762,-0.01,0.0,0.0
1777316580.9095688,-0.12,0.32,0.71,0.041,0.123,9.759,-0.01,0.0,0.0
1777316580.919547,-0.12,0.32,0.71,0.038,0.126,9.759,-0.01,0.0,-0.01
1777316580.9295394,-0.12,0.32,0.71,0.046,0.123,9.76,0.0,0.0,-0.01
1777316580.9395437,-0.12,0.32,0.71,0.049,0.133,9.769,-0.01,-0.01,0.0
1777316580.9495747,-0.13,0.32,0.71,0.06,0.135,9.776,-0.01,0.0,0.0
1777316580.9587145,-0.13,0.32,0.71,0.062,0.134,9.773,0.0,-0.01,0.0
1777316580.968876,-0.13,0.32,0.71,0.063,0.131,9.767,-0.01,0.0,-0.01
1777316580.978691,-0.13,0.32,0.71,0.059,0.126,9.764,-0.01,0.0,-0.01
1777316580.9887145,-0.13,0.32,0.71,0.062,0.125,9.757,0.0,0.0,0.0
1777316580.999561,-0.13,0.32,0.71,0.059,0.122,9.761,-0.01,0.0,0.0
1777316581.008723,-0.13,0.32,0.71,0.051,0.125,9.763,0.0,0.0,-0.01
1777316581.0186913,-0.13,0.32,0.71,0.053,0.126,9.757,0.0,0.0,-0.01
1777316581.0287097,-0.13,0.32,0.71,0.059,0.133,9.757,-0.01,0.0,0.0
1777316581.0387318,-0.13,0.32,0.71,0.056,0.128,9.757,-0.01,0.0,0.0
1777316581.0486984,-0.13,0.32,0.71,0.059,0.129,9.755,-0.01,0.0,0.0
1777316581.0586984,-0.12,0.32,0.71,0.06,0.131,9.751,-0.01,0.0,-0.01
1777316581.0686975,-0.12,0.32,0.71,0.056,0.131,9.748,-0.01,0.0,-0.01
1777316581.0786963,-0.12,0.32,0.71,0.059,0.126,9.744,-0.01,0.0,-0.01
1777316581.0886922,-0.12,0.32,0.71,0.056,0.121,9.747,0.0,0.0,0.0
1777316581.098617,-0.12,0.32,0.71,0.054,0.122,9.751,0.0,0.0,0.0
1777316581.1086886,-0.12,0.32,0.71,0.048,0.123,9.754,-0.01,0.0,0.0
1777316581.118698,-0.12,0.32,0.71,0.048,0.121,9.748,0.0,0.0,0.0
1777316581.1286926,-0.12,0.32,0.71,0.046,0.12,9.754,-0.01,0.0,-0.01
1777316581.138769,-0.12,0.32,0.71,0.051,0.126,9.757,0.0,0.0,-0.01
1777316581.1486983,-0.12,0.32,0.71,0.055,0.129,9.757,0.0,-0.01,0.0
1777316581.1586792,-0.12,0.32,0.71,0.055,0.132,9.762,-0.01,-0.01,0.0
1777316581.1686811,-0.12,0.32,0.71,0.057,0.127,9.753,0.0,0.0,-0.01
1777316581.1786509,-0.12,0.32,0.71,0.057,0.12,9.751,0.0,0.0,-0.01
1777316581.1886487,-0.12,0.32,0.71,0.06,0.12,9.762,-0.01,0.0,-0.01
1777316581.1986806,-0.12,0.32,0.71,0.067,0.122,9.764,-0.01,0.0,0.0
1777316581.2086856,-0.12,0.32,0.71,0.066,0.119,9.762,0.0,0.0,0.0
1777316581.2186427,-0.12,0.32,0.71,0.057,0.12,9.763,-0.01,0.0,-0.01
1777316581.2286403,-0.12,0.32,0.71,0.059,0.128,9.754,-0.01,0.0,-0.01
1777316581.238694,-0.12,0.32,0.71,0.048,0.127,9.751,0.0,0.0,-0.01
1777316581.2486305,-0.12,0.32,0.71,0.051,0.129,9.739,-0.01,0.0,0.0
1777316581.2586794,-0.12,0.32,0.71,0.055,0.125,9.749,-0.01,0.0,0.0
1777316581.2686026,-0.12,0.32,0.71,0.063,0.123,9.75,0.0,-0.01,0.0
1777316581.2786567,-0.12,0.32,0.71,0.06,0.123,9.759,-0.01,0.0,0.0
1777316581.2886252,-0.12,0.32,0.71,0.071,0.119,9.756,-0.01,0.0,-0.01
1777316581.2986255,-0.12,0.32,0.71,0.066,0.117,9.766,0.0,0.0,-0.01
1777316581.308938,-0.12,0.32,0.71,0.061,0.125,9.763,-0.01,0.0,0.0
1777316581.318645,-0.12,0.32,0.71,0.055,0.125,9.772,-0.01,0.0,0.0
1777316581.3286548,-0.12,0.32,0.71,0.054,0.122,9.767,0.0,0.0,-0.01
1777316581.3386352,-0.12,0.32,0.71,0.049,0.12,9.763,-0.01,0.0,-0.01
1777316581.3486407,-0.12,0.32,0.71,0.05,0.119,9.766,-0.01,-0.01,-0.01
1777316581.358607,-0.12,0.32,0.71,0.048,0.122,9.764,-0.01,0.0,0.0
1777316581.368718,-0.12,0.32,0.71,0.055,0.126,9.763,-0.01,-0.01,0.0
1777316581.3786533,-0.12,0.32,0.71,0.059,0.121,9.772,0.0,-0.01,0.0
1777316581.3886414,-0.12,0.32,0.71,0.062,0.116,9.77,0.0,0.0,0.0
1777316581.3986108,-0.12,0.32,0.71,0.062,0.121,9.773,0.0,0.0,-0.01
1777316581.4086297,-0.12,0.32,0.71,0.062,0.126,9.768,0.0,0.0,0.0
1777316581.4186432,-0.12,0.32,0.71,0.057,0.127,9.768,0.0,0.0,0.0
1777316581.4286132,-0.12,0.32,0.71,0.054,0.126,9.77,0.0,0.0,0.0
1777316581.4386365,-0.12,0.32,0.71,0.051,0.123,9.763,-0.01,0.0,0.0
1777316581.4486196,-0.12,0.32,0.71,0.042,0.128,9.763,-0.01,0.0,-0.01
1777316581.4586596,-0.12,0.32,0.71,0.046,0.133,9.759,-0.01,-0.01,-0.01
1777316581.4686663,-0.12,0.32,0.71,0.054,0.133,9.766,-0.01,0.0,-0.01
1777316581.4786713,-0.12,0.32,0.71,0.057,0.135,9.766,0.0,-0.01,0.0
1777316581.4886317,-0.12,0.32,0.71,0.06,0.135,9.763,-0.01,0.0,0.0
1777316581.4986272,-0.12,0.32,0.71,0.063,0.131,9.757,0.0,0.0,-0.01
1777316581.5086691,-0.12,0.32,0.71,0.048,0.126,9.766,-0.01,0.0,0.0
1777316581.5186408,-0.12,0.32,0.71,0.049,0.127,9.76,-0.01,0.0,-0.01
1777316581.5286348,-0.12,0.32,0.71,0.044,0.126,9.754,-0.01,0.0,0.0
1777316581.5386558,-0.12,0.32,0.71,0.047,0.129,9.747,-0.01,0.0,0.0
1777316581.5486758,-0.12,0.32,0.71,0.048,0.128,9.75,-0.01,0.0,0.0
1777316581.5586255,-0.12,0.32,0.71,0.05,0.125,9.751,0.0,-0.01,0.0
1777316581.5687451,-0.12,0.32,0.71,0.057,0.127,9.755,-0.01,-0.01,-0.01
1777316581.578681,-0.12,0.32,0.71,0.056,0.125,9.762,-0.01,-0.01,-0.01
1777316581.5886664,-0.12,0.32,0.71,0.062,0.129,9.754,0.0,-0.01,0.0
1777316581.5986362,-0.12,0.32,0.71,0.051,0.129,9.763,-0.01,-0.01,0.0
1777316581.6086304,-0.12,0.32,0.71,0.062,0.133,9.757,0.0,0.0,0.0
1777316581.619076,-0.12,0.32,0.71,0.054,0.132,9.772,0.0,-0.01,0.0
1777316581.6286397,-0.12,0.32,0.71,0.049,0.129,9.768,-0.01,-0.01,-0.01
1777316581.6386232,-0.12,0.32,0.71,0.043,0.131,9.764,-0.01,-0.01,-0.01
1777316581.6485896,-0.12,0.32,0.71,0.047,0.132,9.763,0.0,-0.01,0.0
1777316581.6586752,-0.12,0.32,0.71,0.055,0.133,9.77,-0.01,-0.01,0.0
1777316581.66866,-0.12,0.33,0.71,0.063,0.127,9.766,-0.01,-0.01,0.0
1777316581.6786287,-0.12,0.33,0.71,0.065,0.123,9.759,-0.01,-0.01,0.0
1777316581.688622,-0.12,0.33,0.71,0.068,0.121,9.757,-0.01,0.0,-0.01
1777316581.698661,-0.12,0.33,0.71,0.066,0.12,9.766,0.0,-0.01,-0.01
1777316581.7087457,-0.12,0.33,0.71,0.063,0.121,9.775,-0.01,-0.01,0.0
1777316581.7188823,-0.12,0.33,0.71,0.056,0.125,9.785,-0.01,-0.01,0.0
1777316581.7287595,-0.12,0.33,0.71,0.049,0.128,9.782,0.0,-0.01,0.0
1777316581.7386165,-0.12,0.33,0.71,0.044,0.126,9.773,-0.01,0.0,-0.01
1777316581.7486014,-0.12,0.33,0.71,0.046,0.122,9.763,-0.01,-0.01,-0.01
1777316581.7586398,-0.12,0.33,0.71,0.047,0.127,9.763,0.0,-0.01,0.0
1777316581.7688453,-0.12,0.33,0.72,0.054,0.132,9.753,0.0,-0.01,0.0
1777316581.778584,-0.12,0.33,0.72,0.055,0.132,9.757,0.0,-0.01,0.0
1777316581.7886024,-0.12,0.33,0.72,0.06,0.128,9.761,0.0,-0.01,0.0
1777316581.798629,-0.12,0.33,0.72,0.063,0.122,9.763,-0.01,0.0,-0.01
1777316581.8086436,-0.12,0.33,0.72,0.062,0.122,9.768,0.0,-0.01,-0.01
1777316581.8185768,-0.12,0.33,0.72,0.061,0.127,9.772,-0.01,0.0,0.0
1777316581.828606,-0.12,0.33,0.72,0.055,0.125,9.766,-0.01,-0.01,0.0
1777316581.8388393,-0.12,0.33,0.72,0.05,0.128,9.766,-0.01,-0.01,0.0
1777316581.8486302,-0.12,0.33,0.72,0.05,0.132,9.762,-0.01,0.0,0.0
1777316581.8585882,-0.12,0.33,0.71,0.055,0.128,9.756,0.0,-0.01,0.0
1777316581.8685975,-0.12,0.33,0.71,0.054,0.128,9.762,-0.01,-0.01,-0.01
1777316581.8786092,-0.12,0.33,0.71,0.06,0.125,9.768,-0.01,-0.01,0.0
1777316581.8885822,-0.12,0.33,0.71,0.067,0.126,9.763,0.0,-0.01,0.0
1777316581.8977284,-0.12,0.34,0.71,0.062,0.127,9.763,-0.01,-0.01,0.0
1777316581.9086306,-0.12,0.33,0.71,0.073,0.122,9.759,-0.01,0.0,-0.01
1777316581.9185922,-0.12,0.34,0.71,0.065,0.119,9.767,0.0,0.0,-0.01
1777316581.9286005,-0.12,0.33,0.71,0.059,0.117,9.767,-0.01,0.0,0.0
1777316581.937709,-0.12,0.33,0.71,0.056,0.121,9.774,-0.01,0.0,0.0
1777316581.948621,-0.12,0.33,0.71,0.05,0.123,9.768,0.0,-0.01,0.0
1777316581.9577084,-0.12,0.33,0.71,0.049,0.129,9.776,-0.01,-0.01,0.0
1777316581.967726,-0.12,0.33,0.72,0.051,0.129,9.775,0.0,-0.01,-0.01
1777316581.9785886,-0.12,0.33,0.72,0.05,0.128,9.77,0.0,-0.01,-0.01
1777316581.9876795,-0.12,0.33,0.72,0.054,0.127,9.773,0.0,-0.01,0.0
1777316581.9985652,-0.12,0.34,0.72,0.063,0.131,9.768,-0.01,-0.01,0.0
1777316582.0077412,-0.12,0.34,0.72,0.065,0.134,9.767,-0.01,-0.01,0.0
1777316582.0185966,-0.12,0.34,0.72,0.057,0.133,9.763,0.0,0.0,0.0
1777316582.0277393,-0.12,0.33,0.72,0.06,0.134,9.751,-0.01,0.0,-0.01
1777316582.0385792,-0.12,0.33,0.72,0.049,0.134,9.76,0.0,0.0,-0.01
1777316582.0477378,-0.12,0.33,0.72,0.049,0.133,9.75,0.0,0.0,0.0
1777316582.0578687,-0.12,0.33,0.72,0.046,0.132,9.756,0.0,-0.01,0.0
1777316582.0677316,-0.12,0.33,0.72,0.049,0.132,9.759,-0.01,-0.01,0.0
1777316582.0776994,-0.12,0.33,0.72,0.057,0.123,9.769,-0.01,-0.01,-0.01
1777316582.0877414,-0.12,0.34,0.72,0.062,0.125,9.763,0.0,-0.01,-0.01
1777316582.0977545,-0.12,0.34,0.72,0.063,0.119,9.768,-0.01,-0.01,-0.01
1777316582.1077065,-0.12,0.34,0.72,0.071,0.119,9.761,0.0,-0.01,0.0
1777316582.117717,-0.12,0.34,0.72,0.065,0.122,9.766,0.0,0.0,0.0
1777316582.1276963,-0.12,0.34,0.72,0.059,0.127,9.76,-0.01,-0.01,0.0
1777316582.1377466,-0.12,0.34,0.72,0.056,0.122,9.754,-0.01,0.0,0.0
1777316582.147686,-0.12,0.34,0.72,0.053,0.123,9.75,0.0,0.0,-0.01
1777316582.1577268,-0.12,0.34,0.72,0.054,0.126,9.753,-0.01,0.0,0.0
1777316582.1677191,-0.12,0.34,0.72,0.056,0.128,9.761,-0.01,-0.01,0.0
1777316582.1777241,-0.12,0.34,0.72,0.055,0.126,9.764,-0.01,-0.01,0.0
1777316582.187685,-0.12,0.34,0.72,0.057,0.126,9.764,0.0,-0.01,0.0
1777316582.197726,-0.12,0.34,0.72,0.061,0.121,9.764,-0.01,-0.01,-0.01
1777316582.2077248,-0.12,0.34,0.72,0.06,0.121,9.77,-0.01,0.0,-0.01
1777316582.217765,-0.12,0.34,0.72,0.065,0.125,9.768,0.0,-0.01,0.0
1777316582.2276907,-0.12,0.34,0.72,0.061,0.128,9.763,0.0,0.0,0.0
1777316582.2376904,-0.12,0.34,0.73,0.06,0.129,9.754,-0.01,0.0,-0.01
1777316582.2477221,-0.12,0.34,0.73,0.061,0.128,9.747,-0.01,-0.01,-0.01
1777316582.257679,-0.12,0.34,0.72,0.059,0.126,9.759,-0.01,-0.01,-0.01
1777316582.2676919,-0.12,0.34,0.72,0.056,0.116,9.756,-0.01,-0.01,0.0
1777316582.277733,-0.12,0.34,0.72,0.057,0.116,9.75,-0.01,0.0,0.0
1777316582.287695,-0.12,0.34,0.72,0.057,0.123,9.756,-0.01,-0.01,0.0
1777316582.2976618,-0.12,0.34,0.72,0.056,0.121,9.768,-0.01,-0.01,0.0
1777316582.3077133,-0.12,0.34,0.72,0.059,0.12,9.772,0.0,-0.01,-0.01
1777316582.3177154,-0.12,0.34,0.72,0.056,0.115,9.773,-0.01,0.0,-0.01
1777316582.3276997,-0.12,0.34,0.72,0.054,0.116,9.767,0.0,0.0,0.0
1777316582.3376427,-0.12,0.34,0.72,0.055,0.125,9.768,0.0,0.0,0.0
1777316582.348056,-0.12,0.34,0.72,0.054,0.133,9.77,-0.01,-0.01,0.0
1777316582.3576608,-0.12,0.34,0.72,0.055,0.129,9.774,-0.01,0.0,0.0
1777316582.3677807,-0.12,0.34,0.72,0.053,0.126,9.77,0.0,-0.01,-0.01
1777316582.3777478,-0.12,0.34,0.72,0.053,0.126,9.766,-0.01,-0.01,0.0
1777316582.3877234,-0.12,0.34,0.72,0.054,0.127,9.773,0.0,0.0,0.0
1777316582.3976853,-0.12,0.34,0.72,0.054,0.133,9.77,0.0,-0.01,0.0
1777316582.4076204,-0.12,0.34,0.73,0.054,0.128,9.767,-0.01,0.0,-0.01
1777316582.4176962,-0.12,0.34,0.72,0.056,0.125,9.762,-0.01,-0.01,-0.01
1777316582.4278471,-0.12,0.34,0.72,0.063,0.119,9.751,-0.01,0.0,-0.01
1777316582.4376585,-0.12,0.34,0.72,0.066,0.121,9.755,0.0,-0.01,0.0
1777316582.4477832,-0.12,0.34,0.72,0.068,0.127,9.764,-0.01,0.0,0.0
1777316582.4577043,-0.12,0.34,0.72,0.065,0.127,9.767,0.0,-0.01,-0.01
1777316582.4676476,-0.12,0.34,0.72,0.065,0.122,9.761,-0.01,0.0,-0.01
1777316582.4776697,-0.12,0.34,0.72,0.047,0.119,9.768,-0.01,-0.01,-0.01
1777316582.4878182,-0.12,0.34,0.72,0.048,0.119,9.761,0.0,0.0,0.0
1777316582.4977117,-0.12,0.34,0.72,0.043,0.12,9.763,0.0,-0.01,0.0
1777316582.5076845,-0.12,0.34,0.72,0.055,0.126,9.748,-0.01,0.0,0.0
1777316582.5176535,-0.12,0.34,0.72,0.053,0.127,9.762,0.0,-0.01,-0.01
1777316582.5278287,-0.12,0.34,0.72,0.061,0.129,9.764,-0.01,-0.01,-0.01
1777316582.5376732,-0.12,0.34,0.72,0.053,0.123,9.769,-0.01,-0.01,0.0
1777316582.5476546,-0.12,0.34,0.72,0.059,0.123,9.767,-0.01,-0.01,0.0
1777316582.557657,-0.12,0.34,0.72,0.055,0.126,9.774,0.0,-0.01,0.0
1777316582.5676875,-0.12,0.34,0.72,0.054,0.126,9.769,-0.01,0.0,0.0
1777316582.5779626,-0.12,0.34,0.72,0.047,0.127,9.768,-0.01,0.0,0.0
1777316582.5876532,-0.12,0.34,0.72,0.049,0.132,9.767,0.0,0.0,-0.01
1777316582.5977035,-0.12,0.34,0.72,0.043,0.133,9.773,0.0,-0.01,0.0
1777316582.607741,-0.12,0.34,0.72,0.047,0.131,9.766,-0.01,-0.01,0.0
1777316582.6176317,-0.12,0.33,0.72,0.048,0.129,9.766,-0.01,-0.01,0.0
1777316582.6276681,-0.12,0.34,0.72,0.056,0.12,9.762,0.0,0.0,-0.01
1777316582.6377141,-0.12,0.34,0.72,0.059,0.117,9.772,-0.01,-0.01,-0.01
1777316582.6476552,-0.12,0.34,0.72,0.057,0.126,9.77,-0.01,-0.01,0.0
1777316582.6576881,-0.12,0.34,0.72,0.056,0.129,9.767,0.0,0.0,0.0
1777316582.6676598,-0.12,0.34,0.72,0.054,0.132,9.768,-0.01,-0.01,-0.01
1777316582.6776843,-0.12,0.34,0.73,0.049,0.131,9.757,-0.01,0.0,0.0
1777316582.6876493,-0.12,0.34,0.73,0.05,0.128,9.764,0.0,-0.01,0.0
1777316582.6976073,-0.12,0.34,0.73,0.05,0.131,9.773,-0.01,-0.01,0.0
1777316582.7076948,-0.12,0.33,0.73,0.049,0.132,9.776,-0.01,-0.01,-0.01
1777316582.7176998,-0.12,0.34,0.73,0.055,0.128,9.767,-0.01,0.0,-0.01
1777316582.7277246,-0.12,0.34,0.73,0.051,0.127,9.766,0.0,-0.01,-0.01
1777316582.7376466,-0.12,0.34,0.73,0.06,0.128,9.768,-0.01,-0.01,0.0
1777316582.747625,-0.12,0.34,0.73,0.065,0.128,9.772,-0.01,-0.01,0.0
1777316582.7576358,-0.12,0.34,0.73,0.063,0.127,9.768,-0.01,0.0,0.0
1777316582.767806,-0.12,0.34,0.73,0.056,0.127,9.772,-0.01,0.0,-0.01
1777316582.7776253,-0.12,0.34,0.73,0.051,0.128,9.761,0.0,-0.01,-0.01
1777316582.7876937,-0.12,0.34,0.73,0.047,0.129,9.757,-0.01,-0.01,-0.01
1777316582.7976456,-0.12,0.34,0.73,0.053,0.128,9.751,-0.01,0.0,0.0
1777316582.807598,-0.12,0.34,0.73,0.051,0.123,9.755,0.0,-0.01,0.0
1777316582.8176649,-0.12,0.34,0.73,0.051,0.125,9.76,-0.01,-0.01,0.0
1777316582.8278596,-0.12,0.34,0.73,0.061,0.116,9.759,0.0,0.0,-0.01
1777316582.836769,-0.12,0.34,0.72,0.063,0.114,9.755,0.0,-0.01,-0.01
1777316582.8476124,-0.12,0.34,0.72,0.063,0.123,9.754,-0.01,-0.01,0.0
1777316582.8576438,-0.12,0.34,0.73,0.061,0.125,9.753,0.0,-0.01,0.0
1777316582.867622,-0.12,0.34,0.73,0.053,0.127,9.757,0.0,0.0,0.0
1777316582.8767438,-0.12,0.34,0.73,0.053,0.131,9.762,-0.01,0.0,0.0
1777316582.8876173,-0.12,0.34,0.73,0.047,0.123,9.76,0.0,-0.01,0.0
1777316582.8976896,-0.12,0.33,0.73,0.048,0.119,9.762,-0.01,-0.01,-0.01
1777316582.9067407,-0.12,0.34,0.73,0.049,0.113,9.744,-0.01,0.0,-0.01
1777316582.9176269,-0.12,0.34,0.72,0.049,0.115,9.749,0.0,-0.01,-0.01
1777316582.9267738,-0.12,0.34,0.72,0.048,0.12,9.756,-0.01,-0.01,0.0
1777316582.9368205,-0.12,0.34,0.73,0.047,0.125,9.755,-0.01,0.0,0.0
1777316582.9467378,-0.12,0.34,0.72,0.048,0.128,9.757,-0.01,-0.01,-0.01
1777316582.9576294,-0.12,0.33,0.73,0.053,0.127,9.764,-0.01,-0.01,-0.01
1777316582.966761,-0.12,0.34,0.73,0.054,0.117,9.751,0.0,0.0,0.0
1777316582.9767992,-0.12,0.34,0.72,0.054,0.123,9.745,0.0,-0.01,0.0
1777316582.9867315,-0.12,0.34,0.73,0.05,0.126,9.755,-0.01,-0.01,0.0
1777316582.9966993,-0.12,0.33,0.73,0.051,0.129,9.759,0.0,-0.01,0.0
1777316583.0067656,-0.12,0.34,0.73,0.051,0.125,9.761,-0.01,0.0,-0.01
1777316583.0167503,-0.12,0.34,0.73,0.055,0.119,9.768,0.0,-0.01,0.0
1777316583.026723,-0.12,0.34,0.72,0.059,0.121,9.774,0.0,-0.01,0.0
1777316583.0367446,-0.12,0.34,0.72,0.057,0.125,9.775,-0.01,-0.01,0.0
1777316583.0468254,-0.12,0.34,0.72,0.059,0.127,9.769,-0.01,0.0,0.0
1777316583.0567617,-0.12,0.34,0.73,0.056,0.125,9.764,0.0,-0.01,-0.01
1777316583.0667262,-0.12,0.34,0.73,0.048,0.127,9.764,-0.01,0.0,-0.01
1777316583.076761,-0.12,0.33,0.73,0.044,0.128,9.754,0.0,0.0,0.0
1777316583.0867722,-0.12,0.33,0.73,0.044,0.127,9.749,-0.01,0.0,0.0
1777316583.0967484,-0.12,0.33,0.73,0.046,0.128,9.751,-0.01,-0.01,0.0
1777316583.1067054,-0.12,0.33,0.73,0.046,0.129,9.754,-0.01,-0.01,0.0
1777316583.116777,-0.12,0.33,0.73,0.051,0.126,9.762,0.0,-0.01,-0.01
1777316583.1267111,-0.12,0.33,0.73,0.054,0.116,9.763,-0.01,0.0,-0.01
1777316583.1367006,-0.12,0.33,0.73,0.05,0.119,9.764,0.0,-0.01,0.0
1777316583.1467338,-0.12,0.33,0.73,0.053,0.125,9.766,-0.01,0.0,0.0
1777316583.1567585,-0.12,0.33,0.73,0.055,0.119,9.773,0.0,-0.01,0.0
1777316583.1667094,-0.12,0.33,0.73,0.054,0.12,9.77,-0.01,0.0,0.0
1777316583.176716,-0.12,0.33,0.73,0.048,0.119,9.769,-0.01,-0.01,0.0
1777316583.186737,-0.12,0.33,0.73,0.042,0.119,9.767,-0.01,0.0,0.0
1777316583.1968586,-0.13,0.33,0.73,0.035,0.121,9.773,0.0,0.0,0.0
1777316583.2066934,-0.13,0.33,0.73,0.038,0.123,9.77,-0.01,0.0,0.0
1777316583.2167466,-0.12,0.33,0.73,0.041,0.122,9.775,0.0,-0.01,-0.01
1777316583.226968,-0.12,0.33,0.73,0.049,0.116,9.763,-0.01,-0.01,-0.01
1777316583.2366886,-0.13,0.33,0.72,0.054,0.119,9.763,0.0,0.0,0.0
1777316583.2466962,-0.13,0.33,0.73,0.067,0.126,9.759,-0.01,-0.01,0.0
1777316583.2567077,-0.12,0.33,0.73,0.066,0.129,9.767,-0.01,0.0,0.0
1777316583.2667005,-0.12,0.33,0.73,0.063,0.128,9.76,0.0,0.0,-0.01
1777316583.276712,-0.12,0.33,0.73,0.053,0.132,9.761,-0.01,-0.01,-0.01
1777316583.2866728,-0.13,0.33,0.73,0.046,0.129,9.761,-0.01,-0.01,0.0
1777316583.2968462,-0.13,0.33,0.73,0.036,0.127,9.769,-0.01,-0.01,0.0
1777316583.3067083,-0.13,0.33,0.73,0.041,0.134,9.768,-0.01,-0.01,0.0
1777316583.316686,-0.13,0.33,0.73,0.046,0.132,9.762,-0.01,-0.01,-0.01
1777316583.3266733,-0.13,0.33,0.73,0.042,0.131,9.761,0.0,-0.01,-0.01
1777316583.33708,-0.13,0.33,0.73,0.047,0.132,9.753,-0.01,-0.01,-0.01
1777316583.346656,-0.13,0.33,0.73,0.053,0.132,9.756,-0.01,0.0,0.0
1777316583.3566434,-0.13,0.33,0.73,0.055,0.138,9.761,0.0,-0.01,0.0
1777316583.3667052,-0.13,0.33,0.73,0.056,0.137,9.766,-0.01,0.0,0.0
1777316583.3766818,-0.13,0.33,0.73,0.054,0.127,9.763,0.0,0.0,-0.01
1777316583.3866813,-0.13,0.33,0.73,0.049,0.131,9.76,0.0,-0.01,0.0
1777316583.3966777,-0.13,0.33,0.73,0.043,0.131,9.76,-0.01,0.0,0.0
1777316583.4067261,-0.13,0.32,0.73,0.048,0.129,9.755,0.0,-0.01,0.0
1777316583.416844,-0.13,0.33,0.73,0.047,0.129,9.757,-0.01,0.0,-0.01
1777316583.426693,-0.13,0.32,0.73,0.048,0.133,9.768,-0.01,-0.01,0.0
1777316583.4366827,-0.13,0.33,0.73,0.053,0.131,9.768,0.0,0.0,0.0
1777316583.446697,-0.13,0.33,0.73,0.059,0.132,9.763,-0.01,-0.01,0.0
1777316583.456674,-0.13,0.33,0.73,0.059,0.128,9.761,-0.01,-0.01,0.0
1777316583.4666786,-0.13,0.33,0.73,0.057,0.127,9.756,-0.01,0.0,-0.01
1777316583.476689,-0.13,0.33,0.73,0.049,0.125,9.766,-0.01,-0.01,-0.01
1777316583.486689,-0.13,0.33,0.73,0.059,0.119,9.774,0.0,0.0,0.0
1777316583.4966686,-0.13,0.33,0.73,0.051,0.117,9.772,0.0,-0.01,0.0
1777316583.5066788,-0.13,0.33,0.73,0.051,0.128,9.762,-0.01,-0.01,0.0
1777316583.5166984,-0.13,0.33,0.73,0.049,0.125,9.764,-0.01,-0.01,0.0
1777316583.5266962,-0.13,0.33,0.73,0.06,0.121,9.76,0.0,-0.01,-0.01
1777316583.536672,-0.13,0.33,0.73,0.059,0.125,9.756,-0.01,-0.01,-0.01
1777316583.5466542,-0.13,0.33,0.73,0.065,0.127,9.751,-0.01,-0.01,0.0
1777316583.556706,-0.13,0.33,0.73,0.061,0.127,9.749,-0.01,0.0,0.0
1777316583.566676,-0.13,0.33,0.73,0.059,0.122,9.745,-0.01,-0.01,0.0
1777316583.5766878,-0.13,0.33,0.73,0.065,0.125,9.735,-0.01,0.0,0.0
1777316583.5867078,-0.13,0.33,0.73,0.055,0.117,9.738,-0.01,0.0,-0.01
1777316583.5967307,-0.13,0.33,0.73,0.053,0.12,9.747,-0.01,-0.01,-0.01
1777316583.6066291,-0.13,0.33,0.73,0.048,0.12,9.761,-0.01,-0.01,0.0
1777316583.6166756,-0.13,0.33,0.73,0.051,0.121,9.766,0.0,-0.01,0.0
1777316583.6266975,-0.13,0.33,0.73,0.048,0.132,9.767,-0.01,-0.01,-0.01
1777316583.6366894,-0.13,0.33,0.73,0.049,0.128,9.753,-0.01,-0.01,-0.01
1777316583.6466262,-0.13,0.33,0.73,0.056,0.121,9.751,0.0,-0.01,0.0
1777316583.6566525,-0.13,0.33,0.73,0.06,0.123,9.753,-0.01,-0.01,-0.01
1777316583.6667159,-0.13,0.33,0.73,0.056,0.133,9.759,-0.01,-0.01,0.0
1777316583.6766546,-0.13,0.33,0.73,0.061,0.133,9.757,-0.01,0.0,0.0
1777316583.6867054,-0.13,0.33,0.73,0.061,0.129,9.754,-0.01,0.0,0.0
1777316583.6966553,-0.13,0.33,0.73,0.05,0.123,9.748,-0.01,0.0,-0.01
1777316583.706704,-0.13,0.33,0.73,0.038,0.122,9.756,0.0,-0.01,0.0
1777316583.7166429,-0.13,0.33,0.73,0.042,0.117,9.756,-0.01,0.0,0.0
1777316583.7266839,-0.13,0.33,0.73,0.051,0.12,9.757,0.0,-0.01,0.0
1777316583.7366927,-0.13,0.33,0.73,0.053,0.119,9.753,-0.01,0.0,0.0
1777316583.7466645,-0.13,0.33,0.73,0.051,0.123,9.755,0.0,-0.01,-0.01
1777316583.7566357,-0.13,0.33,0.73,0.057,0.128,9.759,0.0,0.0,0.0
1777316583.766669,-0.13,0.33,0.73,0.056,0.128,9.762,-0.01,-0.01,0.0
1777316583.7766585,-0.13,0.33,0.73,0.05,0.127,9.754,-0.01,0.0,0.0
1777316583.7866697,-0.13,0.33,0.73,0.051,0.128,9.755,0.0,-0.01,0.0
1777316583.796623,-0.13,0.33,0.73,0.048,0.128,9.757,-0.01,0.0,0.0
1777316583.8066738,-0.13,0.33,0.73,0.048,0.125,9.763,0.0,0.0,-0.01
1777316583.8166773,-0.13,0.33,0.73,0.048,0.117,9.762,0.0,-0.01,-0.01
1777316583.8266382,-0.13,0.33,0.73,0.042,0.12,9.759,-0.01,-0.01,-0.01
1777316583.8357804,-0.13,0.33,0.73,0.044,0.119,9.757,-0.01,-0.01,0.0
1777316583.8466532,-0.13,0.33,0.73,0.053,0.12,9.756,0.0,-0.01,0.0
1777316583.8566315,-0.13,0.33,0.73,0.059,0.127,9.766,-0.01,-0.01,0.0
1777316583.8666365,-0.13,0.33,0.73,0.06,0.129,9.767,0.0,0.0,0.0
1777316583.875779,-0.13,0.33,0.73,0.057,0.131,9.764,0.0,0.0,0.0
1777316583.8866837,-0.13,0.33,0.73,0.053,0.131,9.762,0.0,-0.01,0.0
1777316583.8958194,-0.13,0.33,0.73,0.053,0.131,9.764,-0.01,0.0,-0.01
1777316583.9057872,-0.13,0.33,0.73,0.053,0.125,9.76,-0.01,-0.01,-0.01
1777316583.915797,-0.13,0.33,0.73,0.047,0.119,9.768,-0.01,-0.01,0.0
1777316583.9266558,-0.13,0.33,0.73,0.053,0.117,9.763,-0.01,-0.01,0.0
1777316583.935698,-0.13,0.33,0.73,0.049,0.12,9.768,-0.01,-0.01,0.0
1777316583.9457924,-0.13,0.33,0.73,0.065,0.125,9.759,-0.01,-0.01,0.0
1777316583.9566398,-0.13,0.34,0.73,0.066,0.126,9.767,-0.01,0.0,-0.01
1777316583.9658058,-0.13,0.33,0.73,0.066,0.127,9.756,0.0,-0.01,-0.01
1777316583.9757094,-0.13,0.33,0.73,0.054,0.128,9.759,-0.01,0.0,0.0
1777316583.9857833,-0.13,0.33,0.73,0.049,0.126,9.753,-0.01,-0.01,0.0
1777316583.9957988,-0.13,0.33,0.73,0.043,0.117,9.757,-0.01,0.0,0.0
1777316584.0057456,-0.13,0.33,0.73,0.047,0.12,9.761,-0.01,-0.01,0.0
1777316584.0157788,-0.13,0.33,0.73,0.043,0.121,9.761,-0.01,0.0,0.0
1777316584.0257952,-0.13,0.33,0.73,0.046,0.12,9.753,-0.01,-0.01,0.0
1777316584.0357602,-0.13,0.33,0.73,0.047,0.117,9.757,0.0,0.0,-0.01
1777316584.0457683,-0.13,0.33,0.73,0.053,0.125,9.761,-0.01,-0.01,-0.01
1777316584.0557241,-0.13,0.33,0.73,0.062,0.126,9.757,-0.01,0.0,0.0
1777316584.0657632,-0.13,0.33,0.73,0.059,0.127,9.766,0.0,-0.01,0.0
1777316584.0757248,-0.13,0.33,0.73,0.062,0.127,9.762,-0.01,0.0,0.0
1777316584.0857031,-0.13,0.33,0.73,0.051,0.125,9.766,-0.01,-0.01,-0.01
1777316584.0957644,-0.13,0.33,0.73,0.055,0.117,9.766,-0.01,0.0,-0.01
1777316584.105768,-0.13,0.33,0.73,0.046,0.105,9.766,0.0,-0.01,0.0
1777316584.1160886,-0.13,0.33,0.72,0.048,0.11,9.763,-0.01,0.0,0.0
1777316584.1257102,-0.13,0.33,0.73,0.049,0.116,9.763,-0.01,0.0,0.0
1777316584.1357756,-0.13,0.33,0.73,0.049,0.117,9.768,-0.01,-0.01,0.0
1777316584.1457436,-0.13,0.33,0.73,0.055,0.122,9.766,0.0,-0.01,0.0
1777316584.1557162,-0.13,0.33,0.73,0.055,0.123,9.764,-0.01,-0.01,-0.01
1777316584.1657267,-0.13,0.33,0.73,0.048,0.127,9.764,0.0,0.0,-0.01
1777316584.1758,-0.13,0.33,0.73,0.047,0.129,9.756,-0.01,0.0,0.0
1777316584.1857438,-0.13,0.33,0.73,0.05,0.133,9.759,-0.01,-0.01,0.0
1777316584.1957176,-0.13,0.33,0.73,0.044,0.126,9.761,-0.01,0.0,-0.01
1777316584.205749,-0.13,0.33,0.73,0.049,0.113,9.757,-0.01,-0.01,0.0
1777316584.2158206,-0.13,0.33,0.72,0.053,0.12,9.756,-0.01,-0.01,0.0
1777316584.2257004,-0.13,0.33,0.73,0.057,0.127,9.755,-0.01,-0.01,0.0
1777316584.23581,-0.13,0.33,0.73,0.059,0.131,9.759,-0.01,-0.01,0.0
1777316584.24574,-0.13,0.33,0.73,0.059,0.135,9.76,0.0,-0.01,-0.01
1777316584.255771,-0.13,0.33,0.73,0.055,0.134,9.756,-0.01,0.0,-0.01
1777316584.2657273,-0.13,0.33,0.73,0.049,0.128,9.755,0.0,0.0,-0.01
1777316584.2757263,-0.13,0.33,0.73,0.051,0.125,9.759,-0.01,0.0,0.0
1777316584.2857747,-0.13,0.33,0.73,0.049,0.123,9.768,-0.01,-0.01,0.0
1777316584.2957385,-0.13,0.33,0.73,0.05,0.12,9.772,-0.01,0.0,0.0
1777316584.3058116,-0.13,0.33,0.73,0.043,0.125,9.767,0.0,-0.01,-0.01
1777316584.3157103,-0.13,0.32,0.73,0.04,0.125,9.763,-0.01,-0.01,-0.01
1777316584.3258948,-0.13,0.33,0.73,0.044,0.116,9.756,0.0,0.0,-0.01
1777316584.3356647,-0.13,0.33,0.73,0.054,0.123,9.759,0.0,-0.01,0.0
1777316584.3456836,-0.13,0.33,0.73,0.055,0.134,9.761,-0.01,-0.01,0.0
1777316584.355721,-0.13,0.33,0.73,0.061,0.131,9.759,0.0,0.0,0.0
1777316584.3657448,-0.13,0.33,0.73,0.059,0.126,9.767,-0.01,-0.01,0.0
1777316584.3756993,-0.13,0.33,0.73,0.057,0.131,9.773,-0.01,0.0,-0.01
1777316584.38569,-0.13,0.33,0.73,0.056,0.127,9.775,0.0,-0.01,0.0
1777316584.395722,-0.13,0.33,0.73,0.061,0.125,9.766,-0.01,0.0,0.0
1777316584.4057803,-0.13,0.33,0.73,0.055,0.123,9.769,-0.01,0.0,0.0
1777316584.4156697,-0.13,0.33,0.73,0.059,0.127,9.764,-0.01,-0.01,0.0
1777316584.425712,-0.13,0.33,0.73,0.055,0.125,9.772,-0.01,-0.01,-0.01
1777316584.4358177,-0.13,0.33,0.73,0.061,0.128,9.77,-0.01,-0.01,0.0
1777316584.4456894,-0.13,0.33,0.73,0.054,0.131,9.764,-0.01,0.0,0.0
1777316584.4557538,-0.13,0.33,0.73,0.055,0.129,9.76,-0.01,-0.01,0.0
1777316584.4657106,-0.13,0.33,0.73,0.055,0.127,9.769,-0.01,-0.01,0.0
1777316584.4756787,-0.13,0.33,0.73,0.06,0.125,9.772,0.0,-0.01,0.0
1777316584.4856715,-0.13,0.33,0.73,0.063,0.123,9.767,-0.01,0.0,-0.01
1777316584.4956772,-0.13,0.33,0.73,0.059,0.121,9.762,-0.01,-0.01,0.0
1777316584.5057113,-0.13,0.33,0.73,0.06,0.122,9.754,-0.01,0.0,0.0
1777316584.5156937,-0.13,0.33,0.73,0.047,0.117,9.757,0.0,-0.01,0.0
1777316584.5256763,-0.13,0.33,0.73,0.05,0.121,9.754,-0.01,0.0,0.0
1777316584.5357025,-0.13,0.33,0.73,0.04,0.122,9.766,-0.01,-0.01,-0.01
1777316584.545709,-0.13,0.33,0.73,0.051,0.127,9.757,-0.01,-0.01,-0.01
1777316584.5556636,-0.13,0.33,0.73,0.051,0.122,9.768,-0.01,-0.01,0.0
1777316584.565687,-0.13,0.33,0.73,0.063,0.117,9.764,-0.01,-0.01,0.0
1777316584.5756762,-0.13,0.33,0.73,0.061,0.117,9.768,-0.01,0.0,0.0
1777316584.585727,-0.13,0.33,0.72,0.067,0.117,9.769,0.0,-0.01,0.0
1777316584.5956745,-0.13,0.33,0.73,0.057,0.12,9.764,-0.01,0.0,-0.01
1777316584.6057034,-0.13,0.33,0.73,0.056,0.125,9.759,0.0,-0.01,0.0
1777316584.6156929,-0.13,0.33,0.73,0.047,0.132,9.757,-0.01,-0.01,0.0
1777316584.625665,-0.13,0.33,0.73,0.047,0.129,9.754,-0.01,-0.01,0.0
1777316584.635672,-0.13,0.33,0.73,0.049,0.122,9.755,0.0,-0.01,0.0
1777316584.6456857,-0.14,0.33,0.73,0.053,0.126,9.755,-0.01,-0.01,0.0
1777316584.6557293,-0.14,0.33,0.73,0.055,0.129,9.76,-0.01,-0.01,0.0
1777316584.6656573,-0.14,0.33,0.73,0.056,0.131,9.767,-0.01,-0.01,0.0
1777316584.6756754,-0.13,0.33,0.73,0.06,0.125,9.763,-0.01,-0.01,-0.01
1777316584.6856835,-0.13,0.33,0.73,0.059,0.12,9.763,-0.01,-0.01,-0.01
1777316584.6957002,-0.14,0.33,0.73,0.066,0.113,9.767,-0.01,-0.01,0.0
1777316584.7056346,-0.14,0.34,0.73,0.06,0.117,9.772,0.0,0.0,0.0
1777316584.7156575,-0.14,0.34,0.73,0.055,0.129,9.772,0.0,-0.01,0.0
1777316584.7257109,-0.14,0.34,0.73,0.055,0.127,9.76,-0.01,0.0,0.0
1777316584.7356672,-0.14,0.33,0.73,0.049,0.125,9.759,0.0,-0.01,-0.01
1777316584.744786,-0.14,0.33,0.73,0.047,0.131,9.748,-0.01,0.0,-0.01
1777316584.7556436,-0.14,0.33,0.73,0.043,0.128,9.757,0.0,-0.01,0.0
1777316584.7648413,-0.14,0.33,0.73,0.047,0.132,9.762,-0.01,0.0,0.0
1777316584.775655,-0.14,0.33,0.73,0.05,0.134,9.768,-0.01,-0.01,0.0
1777316584.7848058,-0.14,0.33,0.73,0.06,0.131,9.761,-0.01,0.0,-0.01
1777316584.7956834,-0.14,0.33,0.73,0.054,0.121,9.76,0.0,-0.01,-0.01
1777316584.8048463,-0.14,0.33,0.73,0.057,0.123,9.753,-0.01,0.0,0.0
1777316584.8156567,-0.14,0.33,0.73,0.051,0.122,9.751,-0.01,-0.01,0.0
1777316584.8248012,-0.14,0.33,0.73,0.059,0.128,9.741,-0.01,0.0,0.0
1777316584.8361082,-0.14,0.33,0.73,0.05,0.126,9.76,-0.01,-0.01,0.0
1777316584.8456466,-0.14,0.33,0.73,0.053,0.127,9.768,-0.01,-0.01,0.0
1777316584.8547955,-0.14,0.33,0.73,0.055,0.127,9.775,-0.01,0.0,0.0
1777316584.8657088,-0.14,0.33,0.73,0.057,0.126,9.769,-0.01,-0.01,0.0
1777316584.8748486,-0.14,0.33,0.73,0.051,0.123,9.767,-0.01,0.0,0.0
1777316584.8848314,-0.14,0.33,0.73,0.053,0.123,9.768,-0.01,-0.01,0.0
1777316584.8948083,-0.14,0.33,0.73,0.053,0.12,9.763,-0.01,-0.01,-0.01
1777316584.904811,-0.14,0.33,0.73,0.051,0.122,9.762,0.0,-0.01,-0.01
1777316584.914807,-0.14,0.33,0.73,0.054,0.128,9.77,-0.01,0.0,-0.01
1777316584.9247792,-0.14,0.33,0.73,0.048,0.125,9.775,-0.01,-0.01,0.0
1777316584.9348094,-0.14,0.33,0.72,0.05,0.121,9.778,-0.01,0.0,0.0
1777316584.9448457,-0.14,0.33,0.72,0.057,0.125,9.779,-0.01,0.0,-0.01
1777316584.9547987,-0.14,0.33,0.73,0.049,0.128,9.774,0.0,-0.01,-0.01
1777316584.9647222,-0.14,0.33,0.73,0.054,0.135,9.768,-0.01,-0.01,0.0
1777316584.974816,-0.14,0.33,0.73,0.054,0.135,9.764,-0.01,-0.01,0.0
1777316584.984819,-0.14,0.33,0.73,0.055,0.132,9.76,0.0,0.0,0.0
1777316584.9947789,-0.14,0.33,0.73,0.059,0.123,9.755,-0.01,-0.01,0.0
1777316585.0047224,-0.14,0.33,0.73,0.056,0.125,9.756,-0.01,-0.01,0.0
1777316585.0148535,-0.14,0.33,0.73,0.051,0.127,9.756,0.0,0.0,-0.01
1777316585.0247881,-0.14,0.33,0.73,0.05,0.125,9.768,0.0,-0.01,0.0
1777316585.0347373,-0.14,0.33,0.73,0.044,0.125,9.772,-0.01,-0.01,0.0
1777316585.0450165,-0.14,0.33,0.73,0.048,0.123,9.767,-0.01,0.0,0.0
1777316585.0547945,-0.14,0.33,0.73,0.048,0.129,9.767,-0.01,-0.01,0.0
1777316585.064758,-0.14,0.33,0.73,0.053,0.127,9.77,-0.01,0.0,0.0
1777316585.074747,-0.14,0.33,0.73,0.059,0.128,9.775,-0.01,-0.01,0.0
1777316585.0847435,-0.14,0.33,0.73,0.06,0.126,9.77,-0.01,0.0,-0.01
1777316585.0962045,-0.14,0.33,0.73,0.05,0.128,9.774,-0.01,-0.01,-0.01
1777316585.13985,-0.14,0.33,0.73,0.055,0.127,9.768,-0.01,0.0,0.0
1777316585.1413882,-0.14,0.33,0.73,0.053,0.125,9.775,0.0,-0.01,0.0
1777316585.1427927,-0.14,0.33,0.73,0.056,0.126,9.769,-0.01,0.0,-0.01
1777316585.1442015,-0.14,0.33,0.73,0.055,0.129,9.773,-0.01,-0.01,-0.01
1777316585.145658,-0.14,0.33,0.73,0.057,0.137,9.759,-0.01,0.0,-0.01
1777316585.1548347,-0.14,0.33,0.73,0.054,0.134,9.762,-0.01,-0.01,0.0
1777316585.164812,-0.14,0.33,0.73,0.057,0.132,9.763,-0.01,-0.01,0.0
1777316585.213783,-0.14,0.33,0.73,0.059,0.127,9.77,-0.01,0.0,-0.01
1777316585.2331998,-0.14,0.33,0.73,0.059,0.129,9.772,-0.01,-0.01,0.0
1777316585.2348013,-0.14,0.33,0.73,0.051,0.133,9.763,-0.01,-0.01,0.0
1777316585.2358851,-0.14,0.33,0.73,0.05,0.131,9.761,0.0,-0.01,0.0
1777316585.236818,-0.15,0.33,0.73,0.054,0.131,9.764,-0.01,-0.01,0.0
1777316585.2378845,-0.14,0.33,0.73,0.054,0.131,9.772,-0.01,-0.01,0.0
1777316585.2388573,-0.14,0.33,0.73,0.051,0.125,9.766,0.0,0.0,-0.01
1777316585.2447424,-0.14,0.33,0.73,0.057,0.127,9.768,-0.01,0.0,-0.01
1777316585.255016,-0.14,0.33,0.73,0.057,0.123,9.77,-0.01,0.0,-0.01
1777316585.2650473,-0.14,0.33,0.73,0.049,0.128,9.776,0.0,0.0,0.0
1777316585.2748876,-0.14,0.33,0.73,0.047,0.131,9.77,-0.01,-0.01,0.0
1777316585.284804,-0.14,0.33,0.73,0.048,0.123,9.772,-0.01,0.0,0.0
1777316585.29474,-0.14,0.33,0.73,0.055,0.121,9.76,-0.01,-0.01,-0.01
1777316585.3047333,-0.14,0.33,0.73,0.06,0.119,9.756,-0.01,-0.01,-0.01
1777316585.314891,-0.14,0.33,0.73,0.056,0.122,9.753,0.0,-0.01,0.0
1777316585.324718,-0.14,0.33,0.73,0.063,0.127,9.753,-0.01,0.0,0.0
1777316585.3347185,-0.15,0.33,0.73,0.054,0.127,9.756,-0.01,0.0,0.0
1777316585.34475,-0.15,0.33,0.73,0.049,0.132,9.756,-0.01,0.0,0.0
1777316585.3547425,-0.15,0.33,0.73,0.053,0.128,9.761,-0.01,0.0,0.0
1777316585.3647778,-0.15,0.33,0.73,0.054,0.133,9.773,0.0,-0.01,0.0
1777316585.3747435,-0.15,0.33,0.73,0.053,0.133,9.76,0.0,0.0,0.0
1777316585.384737,-0.15,0.33,0.73,0.056,0.131,9.766,0.0,-0.01,0.0
1777316585.3947453,-0.15,0.33,0.73,0.061,0.128,9.766,-0.01,0.0,0.0
1777316585.4049306,-0.15,0.33,0.73,0.06,0.127,9.768,-0.01,-0.01,0.0
1777316585.4147458,-0.15,0.33,0.73,0.059,0.128,9.77,-0.01,0.0,0.0
1777316585.424734,-0.15,0.33,0.73,0.056,0.126,9.77,-0.01,-0.01,-0.01
1777316585.4346871,-0.15,0.33,0.73,0.061,0.119,9.764,-0.01,-0.01,0.0
1777316585.4447083,-0.15,0.33,0.73,0.073,0.119,9.759,0.0,-0.01,0.0
1777316585.4546967,-0.15,0.34,0.73,0.072,0.121,9.756,0.0,-0.01,0.0
1777316585.464785,-0.15,0.34,0.73,0.071,0.125,9.763,-0.01,-0.01,0.0
1777316585.4746952,-0.15,0.34,0.73,0.074,0.123,9.759,-0.01,0.0,0.0
1777316585.48471,-0.15,0.34,0.73,0.066,0.125,9.761,0.0,-0.01,-0.01
1777316585.4947073,-0.15,0.34,0.73,0.066,0.125,9.755,-0.01,0.0,0.0
1777316585.5046973,-0.16,0.34,0.73,0.057,0.132,9.762,-0.01,-0.01,0.0
1777316585.514684,-0.15,0.34,0.73,0.056,0.135,9.759,-0.01,0.0,0.0
1777316585.5246987,-0.15,0.34,0.73,0.054,0.138,9.761,-0.01,-0.01,-0.01
1777316585.534696,-0.15,0.34,0.73,0.059,0.131,9.76,-0.01,0.0,-0.01
1777316585.5446959,-0.15,0.34,0.73,0.054,0.129,9.773,-0.01,-0.01,0.0
1777316585.5547338,-0.16,0.34,0.73,0.056,0.127,9.772,-0.01,0.0,0.0
1777316585.564723,-0.15,0.34,0.73,0.054,0.127,9.776,-0.01,-0.01,0.0
1777316585.5746803,-0.16,0.34,0.73,0.059,0.125,9.77,-0.01,0.0,0.0
1777316585.5847297,-0.16,0.34,0.73,0.054,0.127,9.775,0.0,-0.01,0.0
1777316585.5946963,-0.16,0.34,0.73,0.051,0.123,9.778,-0.01,0.0,0.0
1777316585.6047032,-0.15,0.34,0.73,0.051,0.123,9.774,0.0,-0.01,-0.01
1777316585.6147048,-0.15,0.34,0.73,0.054,0.123,9.784,-0.01,-0.01,0.0
1777316585.6246712,-0.16,0.34,0.73,0.051,0.123,9.786,-0.01,-0.01,0.0
1777316585.6347008,-0.16,0.34,0.73,0.061,0.119,9.781,-0.01,0.0,0.0
1777316585.6446676,-0.16,0.34,0.73,0.059,0.115,9.779,-0.01,-0.01,0.0
1777316585.6546528,-0.16,0.34,0.73,0.065,0.121,9.776,-0.01,-0.01,-0.01
1777316585.664681,-0.16,0.34,0.73,0.061,0.117,9.781,-0.01,-0.01,-0.01
1777316585.6746855,-0.16,0.34,0.73,0.061,0.123,9.779,-0.01,0.0,0.0
1777316585.6846776,-0.16,0.34,0.73,0.059,0.127,9.782,-0.01,0.0,0.0
1777316585.6946583,-0.16,0.34,0.73,0.053,0.122,9.784,-0.01,-0.01,-0.01
1777316585.7047217,-0.15,0.34,0.73,0.055,0.125,9.775,-0.01,-0.01,-0.01
1777316585.7146642,-0.16,0.34,0.73,0.054,0.123,9.757,-0.01,0.0,-0.01
1777316585.7246761,-0.16,0.34,0.72,0.054,0.121,9.763,-0.01,-0.01,0.0
1777316585.7346585,-0.16,0.34,0.72,0.054,0.123,9.766,-0.01,0.0,0.0
1777316585.7438893,-0.16,0.34,0.72,0.048,0.126,9.768,-0.01,-0.01,0.0
1777316585.7546606,-0.16,0.34,0.72,0.055,0.125,9.763,0.0,-0.01,-0.01
1777316585.763752,-0.16,0.34,0.73,0.05,0.127,9.773,0.0,-0.01,0.0
1777316585.774826,-0.16,0.34,0.73,0.05,0.129,9.772,-0.01,-0.01,0.0
1777316585.7837892,-0.16,0.34,0.73,0.047,0.134,9.772,0.0,-0.01,0.0
1777316585.7946718,-0.16,0.34,0.73,0.043,0.132,9.772,0.0,-0.01,0.0
1777316585.8037577,-0.16,0.34,0.73,0.038,0.132,9.774,0.0,-0.01,-0.01
1777316585.8138223,-0.16,0.34,0.73,0.041,0.132,9.773,-0.01,-0.01,-0.01
1777316585.8247042,-0.16,0.34,0.73,0.047,0.127,9.781,-0.01,-0.01,0.0
1777316585.8341038,-0.16,0.34,0.73,0.054,0.128,9.785,-0.01,-0.01,0.0
1777316585.8438516,-0.16,0.34,0.73,0.062,0.127,9.791,-0.01,0.0,-0.01
1777316585.854694,-0.16,0.34,0.73,0.063,0.125,9.791,-0.01,-0.01,-0.01
1777316585.864658,-0.16,0.34,0.73,0.062,0.123,9.782,-0.01,-0.01,-0.01
1777316585.8737452,-0.16,0.34,0.73,0.062,0.119,9.784,-0.01,-0.01,0.0
1777316585.8846855,-0.16,0.34,0.73,0.06,0.125,9.772,-0.01,0.0,0.0
1777316585.893766,-0.16,0.34,0.73,0.05,0.137,9.775,-0.01,-0.01,0.0
1777316585.9037614,-0.16,0.34,0.73,0.053,0.134,9.778,-0.01,0.0,-0.01
1777316585.9139159,-0.16,0.34,0.73,0.054,0.127,9.768,0.0,-0.01,-0.01
1777316585.9237907,-0.16,0.34,0.73,0.054,0.12,9.761,-0.01,0.0,-0.01
1777316585.9337926,-0.16,0.34,0.73,0.055,0.12,9.764,-0.01,-0.01,0.0
1777316585.9437687,-0.16,0.34,0.73,0.06,0.128,9.761,-0.01,0.0,0.0
1777316585.953797,-0.16,0.34,0.73,0.063,0.131,9.769,-0.01,-0.01,0.0
1777316585.963777,-0.16,0.34,0.73,0.059,0.128,9.77,-0.01,0.0,-0.01
1777316585.9737678,-0.16,0.34,0.73,0.062,0.121,9.775,0.0,0.0,-0.01
1777316585.9839756,-0.16,0.34,0.73,0.061,0.12,9.775,0.0,0.0,0.0
1777316585.99378,-0.16,0.34,0.73,0.057,0.127,9.776,-0.01,-0.01,0.0
1777316586.0037706,-0.16,0.34,0.73,0.051,0.126,9.766,-0.01,0.0,0.0
1777316586.0137541,-0.16,0.34,0.73,0.053,0.123,9.768,-0.01,-0.01,-0.01
1777316586.0237412,-0.16,0.34,0.73,0.053,0.122,9.766,-0.01,0.0,-0.01
1777316586.033765,-0.16,0.34,0.73,0.06,0.126,9.761,-0.01,-0.01,0.0
1777316586.043771,-0.16,0.34,0.73,0.059,0.123,9.76,-0.01,-0.01,0.0
1777316586.053985,-0.16,0.34,0.73,0.059,0.127,9.759,-0.01,-0.01,0.0
1777316586.063772,-0.16,0.34,0.73,0.067,0.128,9.759,0.0,0.0,0.0
1777316586.073801,-0.16,0.34,0.73,0.061,0.126,9.764,0.0,-0.01,0.0
1777316586.0837328,-0.16,0.34,0.73,0.055,0.128,9.755,-0.01,0.0,0.0
1777316586.0937858,-0.16,0.34,0.73,0.056,0.128,9.762,-0.01,-0.01,0.0
1777316586.1037486,-0.16,0.34,0.73,0.055,0.126,9.768,-0.01,0.0,0.0
1777316586.1137838,-0.16,0.34,0.73,0.057,0.128,9.767,-0.01,-0.01,0.0
1777316586.123733,-0.16,0.34,0.73,0.053,0.126,9.764,-0.01,-0.01,0.0
1777316586.1338341,-0.16,0.34,0.72,0.053,0.128,9.768,0.0,-0.01,0.0
1777316586.1437461,-0.16,0.34,0.73,0.051,0.129,9.768,-0.01,-0.01,0.0
1777316586.153747,-0.16,0.34,0.72,0.053,0.126,9.767,-0.01,-0.01,0.0
1777316586.16375,-0.16,0.34,0.72,0.05,0.128,9.774,-0.01,0.0,0.0
1777316586.1737266,-0.16,0.34,0.72,0.048,0.129,9.776,-0.01,-0.01,0.0
1777316586.1837592,-0.16,0.34,0.73,0.048,0.132,9.78,-0.01,0.0,0.0
1777316586.1937506,-0.16,0.34,0.73,0.047,0.134,9.772,-0.01,-0.01,-0.01
1777316586.2037268,-0.16,0.34,0.73,0.046,0.133,9.775,-0.01,-0.01,-0.01
1777316586.2137299,-0.16,0.34,0.73,0.046,0.128,9.779,-0.01,-0.01,-0.01
1777316586.223767,-0.16,0.34,0.73,0.048,0.127,9.776,-0.01,-0.01,0.0
1777316586.2338686,-0.16,0.34,0.73,0.046,0.128,9.78,0.0,-0.01,0.0
1777316586.2437642,-0.16,0.34,0.73,0.044,0.133,9.774,-0.01,-0.01,-0.01
1777316586.2537847,-0.16,0.34,0.73,0.044,0.133,9.768,-0.01,-0.01,0.0
1777316586.2637563,-0.16,0.34,0.73,0.046,0.127,9.763,-0.01,0.0,0.0
1777316586.273755,-0.16,0.34,0.72,0.048,0.12,9.762,-0.01,-0.01,0.0
1777316586.283717,-0.16,0.34,0.72,0.053,0.123,9.77,-0.01,0.0,0.0
1777316586.2937665,-0.16,0.34,0.72,0.054,0.131,9.77,-0.01,-0.01,0.0
1777316586.3037043,-0.16,0.34,0.73,0.061,0.128,9.768,-0.01,0.0,-0.01
1777316586.3137226,-0.16,0.34,0.72,0.053,0.125,9.774,-0.01,-0.01,-0.01
1777316586.3237388,-0.16,0.34,0.72,0.057,0.128,9.766,-0.01,-0.01,0.0
1777316586.3337455,-0.16,0.34,0.72,0.054,0.132,9.77,-0.01,-0.01,0.0
1777316586.3437178,-0.16,0.34,0.73,0.053,0.138,9.773,-0.01,-0.01,0.0
1777316586.3538496,-0.16,0.34,0.73,0.048,0.137,9.775,-0.01,0.0,0.0
1777316586.3637424,-0.16,0.34,0.73,0.047,0.137,9.769,-0.01,-0.01,0.0
1777316586.3737593,-0.16,0.34,0.73,0.048,0.132,9.762,-0.01,-0.01,0.0
1777316586.3837519,-0.16,0.34,0.73,0.049,0.133,9.762,-0.01,-0.01,0.0
1777316586.3937624,-0.16,0.34,0.73,0.043,0.133,9.769,0.0,-0.01,0.0
1777316586.4037373,-0.16,0.34,0.73,0.047,0.128,9.774,-0.01,0.0,0.0
1777316586.413732,-0.16,0.34,0.73,0.049,0.127,9.775,-0.01,-0.01,0.0
1777316586.4237623,-0.16,0.34,0.73,0.049,0.125,9.78,-0.01,-0.01,0.0
1777316586.4337614,-0.16,0.34,0.73,0.06,0.125,9.773,0.0,-0.01,-0.01
1777316586.4437299,-0.16,0.34,0.73,0.061,0.122,9.767,0.0,-0.01,-0.01
1777316586.4537096,-0.16,0.34,0.73,0.061,0.125,9.766,0.0,-0.01,-0.01
1777316586.463702,-0.16,0.34,0.73,0.059,0.127,9.753,-0.01,0.0,-0.01
1777316586.4737272,-0.16,0.34,0.73,0.061,0.123,9.76,0.0,-0.01,0.0
1777316586.4838717,-0.16,0.34,0.73,0.055,0.128,9.762,-0.01,0.0,0.0
1777316586.4938695,-0.16,0.34,0.73,0.051,0.122,9.769,0.0,-0.01,0.0
1777316586.503743,-0.16,0.34,0.73,0.059,0.121,9.774,-0.01,-0.01,0.0
1777316586.5137713,-0.16,0.34,0.73,0.05,0.122,9.772,-0.01,-0.01,-0.01
1777316586.5237024,-0.16,0.34,0.73,0.057,0.12,9.767,-0.01,-0.01,-0.01
1777316586.5337713,-0.16,0.34,0.73,0.059,0.119,9.772,-0.01,0.0,-0.01
1777316586.5437133,-0.16,0.34,0.72,0.066,0.123,9.768,0.0,0.0,0.0
1777316586.5537474,-0.16,0.34,0.73,0.061,0.126,9.766,-0.01,-0.01,0.0
1777316586.5637772,-0.16,0.34,0.72,0.062,0.125,9.762,-0.01,-0.01,0.0
1777316586.574229,-0.16,0.34,0.72,0.056,0.121,9.764,-0.01,0.0,-0.01
1777316586.5837688,-0.16,0.34,0.72,0.057,0.123,9.767,-0.01,-0.01,0.0
1777316586.593715,-0.16,0.34,0.72,0.051,0.123,9.766,-0.01,0.0,0.0
1777316586.6037319,-0.16,0.34,0.72,0.055,0.122,9.767,0.0,-0.01,0.0
1777316586.6136878,-0.16,0.34,0.72,0.053,0.121,9.764,-0.01,0.0,0.0
1777316586.6236978,-0.16,0.34,0.72,0.059,0.122,9.766,-0.01,-0.01,0.0
1777316586.6337698,-0.16,0.34,0.72,0.06,0.125,9.76,-0.01,0.0,-0.01
1777316586.6436994,-0.16,0.34,0.72,0.063,0.12,9.756,0.0,-0.01,0.0
1777316586.6537108,-0.16,0.34,0.72,0.069,0.122,9.755,0.0,0.0,0.0
1777316586.663724,-0.16,0.34,0.72,0.061,0.122,9.767,-0.01,-0.01,0.0
1777316586.6737452,-0.16,0.34,0.72,0.056,0.131,9.756,-0.01,0.0,0.0
1777316586.6837087,-0.16,0.34,0.73,0.051,0.132,9.755,-0.01,-0.01,0.0
1777316586.693742,-0.16,0.34,0.72,0.049,0.127,9.756,-0.01,0.0,0.0
1777316586.7037246,-0.16,0.34,0.72,0.046,0.128,9.764,-0.01,-0.01,0.0
1777316586.7137432,-0.16,0.34,0.72,0.049,0.127,9.767,-0.01,-0.01,0.0
1777316586.7227914,-0.16,0.34,0.72,0.046,0.131,9.768,-0.01,-0.01,0.0
1777316586.7337244,-0.16,0.34,0.73,0.057,0.126,9.76,-0.01,0.0,-0.01
1777316586.743681,-0.16,0.34,0.72,0.062,0.122,9.767,0.0,-0.01,-0.01
1777316586.7527802,-0.16,0.34,0.72,0.065,0.126,9.762,-0.01,-0.01,-0.01
1777316586.763684,-0.16,0.34,0.72,0.057,0.125,9.772,-0.01,-0.01,0.0
1777316586.773789,-0.16,0.34,0.72,0.057,0.133,9.772,-0.01,-0.01,0.0
1777316586.782777,-0.16,0.34,0.72,0.054,0.133,9.772,-0.01,-0.01,-0.01
1777316586.793697,-0.16,0.34,0.73,0.055,0.127,9.775,-0.01,0.0,-0.01
1777316586.8036985,-0.16,0.34,0.72,0.042,0.123,9.773,0.0,-0.01,-0.01
1777316586.8137167,-0.16,0.34,0.72,0.044,0.123,9.769,-0.01,0.0,0.0
1777316586.8227837,-0.16,0.34,0.72,0.044,0.125,9.77,-0.01,-0.01,0.0
1777316586.832874,-0.16,0.34,0.72,0.05,0.127,9.772,-0.01,-0.01,0.0
1777316586.8436966,-0.16,0.34,0.72,0.055,0.122,9.781,-0.01,-0.01,0.0
1777316586.8527732,-0.16,0.34,0.72,0.063,0.122,9.782,0.0,-0.01,-0.01
1777316586.8627667,-0.16,0.34,0.72,0.063,0.123,9.785,-0.01,-0.01,-0.01
1777316586.8736982,-0.16,0.34,0.72,0.062,0.125,9.779,-0.01,-0.01,0.0
1777316586.8827827,-0.16,0.34,0.72,0.055,0.121,9.782,-0.01,0.0,0.0
1777316586.8928025,-0.16,0.34,0.72,0.051,0.126,9.776,-0.01,0.0,-0.01
1777316586.90292,-0.16,0.34,0.72,0.049,0.12,9.774,-0.01,-0.01,0.0
1777316586.9128332,-0.16,0.34,0.72,0.055,0.12,9.768,-0.01,-0.01,-0.01
1777316586.9236677,-0.16,0.34,0.72,0.057,0.123,9.761,-0.01,-0.01,-0.01
1777316586.9327776,-0.16,0.34,0.72,0.055,0.131,9.757,-0.01,-0.01,0.0
1777316586.942896,-0.16,0.34,0.72,0.056,0.128,9.762,0.0,-0.01,0.0
1777316586.9528081,-0.16,0.34,0.72,0.055,0.129,9.775,-0.01,-0.01,0.0
1777316586.962792,-0.16,0.34,0.72,0.061,0.128,9.772,-0.01,-0.01,0.0
1777316586.972784,-0.16,0.34,0.72,0.059,0.128,9.769,0.0,0.0,-0.01
1777316586.9828007,-0.16,0.34,0.72,0.06,0.132,9.763,0.0,-0.01,0.0
1777316586.9928176,-0.16,0.34,0.72,0.051,0.138,9.763,-0.01,0.0,0.0
1777316587.00279,-0.16,0.34,0.72,0.048,0.139,9.763,0.0,-0.01,0.0
1777316587.0130775,-0.16,0.34,0.72,0.044,0.129,9.756,-0.01,-0.01,-0.01
1777316587.0228333,-0.16,0.34,0.72,0.05,0.121,9.756,-0.01,-0.01,-0.01
1777316587.0327725,-0.16,0.34,0.72,0.049,0.119,9.77,0.0,-0.01,-0.01
1777316587.0427709,-0.16,0.34,0.72,0.053,0.125,9.772,-0.01,-0.01,0.0
1777316587.0527713,-0.16,0.34,0.72,0.056,0.125,9.772,-0.01,0.0,0.0
1777316587.0627828,-0.16,0.34,0.72,0.06,0.122,9.773,0.0,-0.01,-0.01
1777316587.072746,-0.16,0.34,0.72,0.06,0.125,9.762,-0.01,0.0,0.0
1777316587.0829697,-0.16,0.34,0.72,0.055,0.127,9.761,-0.01,-0.01,-0.01
1777316587.0927978,-0.16,0.34,0.72,0.053,0.133,9.767,-0.01,0.0,0.0
1777316587.1028268,-0.16,0.34,0.72,0.042,0.131,9.766,-0.01,-0.01,0.0
1777316587.1127648,-0.16,0.34,0.72,0.043,0.132,9.759,-0.01,0.0,0.0
1777316587.122786,-0.16,0.34,0.72,0.042,0.128,9.759,-0.01,-0.01,0.0
1777316587.1328626,-0.16,0.34,0.72,0.05,0.131,9.756,-0.01,-0.01,0.0
1777316587.1428962,-0.16,0.34,0.72,0.049,0.131,9.763,0.0,-0.01,-0.01
1777316587.1527958,-0.16,0.34,0.72,0.056,0.131,9.769,-0.01,-0.01,-0.01
1777316587.1630638,-0.16,0.34,0.72,0.061,0.132,9.761,-0.01,0.0,-0.01
1777316587.172814,-0.16,0.34,0.73,0.061,0.126,9.762,0.0,-0.01,-0.01
1777316587.183316,-0.16,0.34,0.73,0.05,0.125,9.769,0.0,-0.01,0.0
1777316587.192796,-0.16,0.34,0.73,0.047,0.126,9.772,0.0,-0.01,0.0
1777316587.2027678,-0.16,0.34,0.73,0.042,0.126,9.78,-0.01,-0.01,0.0
1777316587.2127914,-0.16,0.34,0.72,0.044,0.122,9.779,-0.01,0.0,0.0
1777316587.2227511,-0.16,0.33,0.72,0.035,0.121,9.784,-0.01,-0.01,0.0
1777316587.2328372,-0.16,0.33,0.72,0.046,0.123,9.78,-0.01,0.0,0.0
1777316587.2428164,-0.16,0.34,0.72,0.044,0.125,9.785,-0.01,-0.01,0.0
1777316587.2527802,-0.16,0.34,0.72,0.053,0.131,9.778,-0.01,-0.01,0.0
1777316587.2629285,-0.16,0.34,0.72,0.057,0.129,9.778,-0.01,-0.01,-0.01
1777316587.2728198,-0.16,0.34,0.72,0.059,0.128,9.78,-0.01,-0.01,0.0
1777316587.2827911,-0.16,0.34,0.72,0.057,0.126,9.787,-0.01,-0.01,0.0
1777316587.2927773,-0.16,0.34,0.72,0.059,0.127,9.786,-0.01,-0.01,-0.01
1777316587.3027842,-0.16,0.34,0.72,0.051,0.127,9.775,-0.01,0.0,0.0
1777316587.3128138,-0.16,0.34,0.72,0.048,0.126,9.772,-0.01,-0.01,-0.01
1777316587.3228102,-0.16,0.34,0.72,0.05,0.122,9.772,-0.01,0.0,-0.01
1777316587.3327599,-0.16,0.34,0.72,0.051,0.114,9.769,0.0,-0.01,0.0
1777316587.3432896,-0.16,0.34,0.72,0.048,0.113,9.769,-0.01,-0.01,0.0
1777316587.3528268,-0.16,0.34,0.72,0.054,0.116,9.769,-0.01,-0.01,0.0
1777316587.362755,-0.16,0.34,0.72,0.053,0.117,9.767,-0.01,-0.01,0.0
1777316587.3727264,-0.16,0.34,0.72,0.055,0.12,9.755,0.0,-0.01,-0.01
1777316587.3828168,-0.16,0.34,0.72,0.057,0.122,9.756,-0.01,0.0,-0.01
1777316587.3928058,-0.16,0.33,0.72,0.056,0.126,9.768,0.0,0.0,0.0
1777316587.4027867,-0.16,0.33,0.72,0.056,0.133,9.773,-0.01,0.0,0.0
1777316587.4128146,-0.16,0.33,0.72,0.057,0.126,9.762,-0.01,0.0,-0.01
1777316587.4227953,-0.16,0.33,0.72,0.057,0.127,9.76,0.0,0.0,-0.01
1777316587.4327726,-0.16,0.33,0.72,0.056,0.128,9.764,-0.01,-0.01,-0.01
1777316587.442779,-0.16,0.33,0.72,0.06,0.132,9.768,-0.01,-0.01,0.0
1777316587.4527843,-0.16,0.34,0.72,0.057,0.128,9.762,0.0,0.0,0.0
1777316587.4627867,-0.16,0.34,0.72,0.054,0.129,9.763,-0.01,-0.01,-0.01
1777316587.4727564,-0.16,0.34,0.72,0.06,0.131,9.768,-0.01,-0.01,-0.01
1777316587.483087,-0.16,0.34,0.72,0.054,0.123,9.773,-0.01,-0.01,-0.01
1777316587.492769,-0.16,0.33,0.72,0.055,0.121,9.775,-0.01,-0.01,0.0
1777316587.5027664,-0.16,0.33,0.72,0.061,0.121,9.766,-0.01,0.0,0.0
1777316587.5127568,-0.16,0.33,0.72,0.057,0.12,9.769,0.0,0.0,0.0
1777316587.522764,-0.16,0.33,0.72,0.05,0.121,9.769,-0.01,-0.01,-0.01
1777316587.5327783,-0.16,0.33,0.72,0.044,0.12,9.76,-0.01,0.0,-0.01
1777316587.5427933,-0.16,0.33,0.72,0.044,0.117,9.761,0.0,-0.01,-0.01
1777316587.552949,-0.16,0.33,0.72,0.048,0.119,9.763,-0.01,-0.01,0.0
1777316587.5628335,-0.16,0.33,0.72,0.053,0.122,9.768,0.0,-0.01,0.0
1777316587.5727963,-0.16,0.33,0.72,0.059,0.128,9.77,-0.01,-0.01,0.0
1777316587.5827491,-0.16,0.33,0.72,0.06,0.134,9.763,-0.01,-0.01,-0.01
1777316587.5927637,-0.16,0.33,0.72,0.051,0.131,9.759,0.0,0.0,-0.01
1777316587.6027405,-0.16,0.33,0.72,0.048,0.129,9.767,-0.01,-0.01,-0.01
1777316587.6127622,-0.16,0.33,0.72,0.046,0.131,9.767,-0.01,0.0,0.0
1777316587.622752,-0.16,0.33,0.72,0.04,0.133,9.773,-0.01,-0.01,0.0
1777316587.6327472,-0.16,0.32,0.72,0.043,0.131,9.766,-0.01,0.0,0.0
1777316587.6427202,-0.16,0.32,0.72,0.044,0.129,9.773,-0.01,0.0,-0.01
1777316587.6527417,-0.16,0.32,0.72,0.047,0.132,9.766,-0.01,-0.01,-0.01
1777316587.662738,-0.16,0.32,0.72,0.049,0.133,9.768,-0.01,-0.01,-0.01
1777316587.672703,-0.16,0.33,0.72,0.054,0.135,9.766,-0.01,0.0,0.0
1777316587.6827128,-0.16,0.33,0.72,0.054,0.135,9.77,-0.01,-0.01,0.0
1777316587.6927404,-0.16,0.33,0.72,0.06,0.135,9.76,-0.01,0.0,0.0
1777316587.7027507,-0.16,0.33,0.72,0.06,0.128,9.766,0.0,-0.01,0.0
1777316587.7127376,-0.16,0.33,0.72,0.066,0.131,9.77,-0.01,0.0,0.0
1777316587.7228262,-0.16,0.33,0.72,0.059,0.131,9.768,-0.01,-0.01,0.0
1777316587.7327654,-0.16,0.33,0.72,0.057,0.126,9.763,-0.01,0.0,-0.01
1777316587.7418451,-0.16,0.33,0.72,0.051,0.129,9.766,-0.01,-0.01,0.0
1777316587.7527363,-0.16,0.33,0.72,0.056,0.129,9.766,0.0,-0.01,0.0
1777316587.7618723,-0.16,0.33,0.72,0.051,0.133,9.763,-0.01,-0.01,0.0
1777316587.772739,-0.16,0.33,0.72,0.054,0.127,9.756,-0.01,-0.01,-0.01
1777316587.781852,-0.16,0.33,0.72,0.06,0.125,9.75,-0.01,0.0,-0.01
1777316587.7927296,-0.16,0.33,0.72,0.059,0.123,9.756,0.0,-0.01,0.0
1777316587.8018372,-0.16,0.33,0.72,0.067,0.127,9.759,-0.01,-0.01,0.0
1777316587.8127387,-0.16,0.33,0.72,0.06,0.133,9.768,-0.01,0.0,0.0
1777316587.8218708,-0.16,0.33,0.72,0.057,0.129,9.768,-0.01,0.0,-0.01
1777316587.8318186,-0.16,0.33,0.72,0.056,0.121,9.776,-0.01,0.0,-0.01
1777316587.842738,-0.16,0.33,0.72,0.054,0.119,9.779,0.0,-0.01,-0.01
1777316587.8518474,-0.16,0.33,0.72,0.051,0.125,9.781,-0.01,-0.01,0.0
1777316587.862757,-0.16,0.33,0.72,0.053,0.132,9.763,-0.01,-0.01,0.0
1777316587.8719103,-0.16,0.33,0.72,0.053,0.135,9.759,0.0,-0.01,0.0
1777316587.8819063,-0.16,0.33,0.72,0.06,0.134,9.766,-0.01,-0.01,0.0
1777316587.8918688,-0.16,0.34,0.72,0.061,0.127,9.766,-0.01,0.0,0.0
1777316587.9018672,-0.16,0.34,0.72,0.056,0.133,9.763,-0.01,-0.01,0.0
1777316587.9118333,-0.16,0.34,0.72,0.059,0.129,9.759,-0.01,0.0,0.0
1777316587.9218419,-0.16,0.33,0.72,0.051,0.123,9.762,0.0,-0.01,0.0
1777316587.9318397,-0.16,0.33,0.72,0.055,0.117,9.761,-0.01,0.0,-0.01
1777316587.9427395,-0.16,0.33,0.72,0.051,0.113,9.76,0.0,0.0,0.0
1777316587.9518516,-0.16,0.33,0.72,0.054,0.115,9.761,0.0,0.0,0.0
1777316587.9618382,-0.16,0.33,0.72,0.048,0.123,9.766,-0.01,-0.01,0.0
1777316587.9718256,-0.16,0.33,0.72,0.049,0.119,9.772,-0.01,-0.01,-0.01
1777316587.9818175,-0.16,0.33,0.72,0.047,0.116,9.774,-0.01,-0.01,-0.01
1777316587.9918103,-0.16,0.33,0.72,0.055,0.12,9.78,-0.01,-0.01,-0.01
1777316588.0018682,-0.16,0.33,0.72,0.053,0.12,9.77,-0.01,0.0,0.0
1777316588.0118425,-0.16,0.33,0.72,0.051,0.123,9.772,-0.01,-0.01,0.0
1777316588.0219402,-0.16,0.33,0.72,0.054,0.123,9.77,-0.01,-0.01,0.0
1777316588.0318277,-0.16,0.33,0.72,0.056,0.119,9.769,-0.01,0.0,0.0
1777316588.0418484,-0.16,0.33,0.72,0.06,0.121,9.77,0.0,0.0,0.0
1777316588.051862,-0.16,0.33,0.72,0.053,0.127,9.773,-0.01,0.0,0.0
1777316588.0618641,-0.16,0.33,0.72,0.056,0.128,9.757,-0.01,0.0,0.0
1777316588.0718257,-0.16,0.33,0.72,0.048,0.126,9.756,0.0,0.0,-0.01
1777316588.081855,-0.16,0.33,0.72,0.055,0.131,9.759,-0.01,-0.01,0.0
1777316588.0918953,-0.16,0.33,0.72,0.057,0.129,9.769,-0.01,0.0,0.0
1777316588.1018338,-0.16,0.33,0.72,0.063,0.129,9.769,-0.01,-0.01,0.0
1777316588.1118014,-0.16,0.34,0.72,0.066,0.125,9.761,-0.01,0.0,0.0
1777316588.1218288,-0.16,0.33,0.72,0.066,0.122,9.759,-0.01,-0.01,0.0
1777316588.131825,-0.16,0.34,0.72,0.056,0.122,9.767,-0.01,0.0,0.0
1777316588.1417868,-0.16,0.33,0.71,0.057,0.121,9.762,-0.01,-0.01,0.0
1777316588.1518195,-0.16,0.33,0.72,0.051,0.125,9.756,0.0,0.0,0.0
1777316588.1619284,-0.16,0.33,0.72,0.049,0.133,9.754,0.0,-0.01,0.0
1777316588.1718562,-0.16,0.33,0.72,0.05,0.129,9.761,-0.01,0.0,-0.01
1777316588.1818538,-0.16,0.33,0.72,0.046,0.131,9.774,-0.01,-0.01,0.0
1777316588.1918678,-0.16,0.33,0.72,0.056,0.133,9.768,-0.01,0.0,0.0
1777316588.2018435,-0.16,0.33,0.72,0.053,0.132,9.763,-0.01,-0.01,0.0
1777316588.2118251,-0.16,0.33,0.72,0.068,0.129,9.76,-0.01,0.0,0.0
1777316588.221798,-0.16,0.33,0.71,0.06,0.122,9.769,-0.01,-0.01,0.0
1777316588.2318025,-0.16,0.33,0.71,0.063,0.121,9.766,-0.01,0.0,0.0
1777316588.2417908,-0.16,0.33,0.71,0.06,0.121,9.775,-0.01,-0.01,0.0
1777316588.251762,-0.16,0.33,0.71,0.056,0.122,9.773,-0.01,-0.01,-0.01
1777316588.2618368,-0.16,0.33,0.71,0.054,0.131,9.768,-0.01,-0.01,0.0
1777316588.2717955,-0.16,0.33,0.71,0.055,0.138,9.774,-0.01,-0.01,0.0
1777316588.2817807,-0.16,0.33,0.72,0.057,0.135,9.774,-0.01,-0.01,0.0
1777316588.2918146,-0.16,0.34,0.72,0.057,0.133,9.773,-0.01,0.0,-0.01
1777316588.3018503,-0.16,0.33,0.71,0.057,0.129,9.774,-0.01,-0.01,-0.01
1777316588.3123212,-0.16,0.34,0.72,0.067,0.128,9.774,-0.01,0.0,-0.01
1777316588.321846,-0.16,0.34,0.71,0.062,0.126,9.778,-0.01,-0.01,0.0
1777316588.3318295,-0.17,0.34,0.72,0.066,0.132,9.776,-0.01,0.0,0.0
1777316588.3418887,-0.17,0.34,0.72,0.059,0.134,9.775,0.0,-0.01,0.0
1777316588.3518023,-0.17,0.34,0.72,0.059,0.141,9.775,0.0,0.0,0.0
1777316588.3620744,-0.16,0.33,0.72,0.054,0.138,9.778,-0.01,0.0,-0.01
1777316588.3718112,-0.16,0.33,0.72,0.054,0.128,9.773,0.0,0.0,-0.01
1777316588.3818269,-0.16,0.33,0.72,0.048,0.126,9.776,-0.01,-0.01,0.0
1777316588.3917818,-0.17,0.33,0.72,0.057,0.126,9.769,-0.01,-0.01,0.0
1777316588.401768,-0.17,0.34,0.72,0.06,0.12,9.767,0.0,-0.01,0.0
1777316588.4117808,-0.17,0.34,0.72,0.066,0.117,9.764,-0.01,-0.01,-0.01
1777316588.4217832,-0.16,0.34,0.71,0.072,0.115,9.764,-0.01,-0.01,-0.01
1777316588.431766,-0.16,0.34,0.71,0.072,0.116,9.761,0.0,0.0,-0.01
1777316588.441791,-0.17,0.34,0.71,0.074,0.121,9.767,-0.01,0.0,0.0
1777316588.4517753,-0.17,0.34,0.71,0.063,0.125,9.769,-0.01,0.0,0.0
1777316588.4618251,-0.17,0.34,0.71,0.056,0.131,9.764,-0.01,0.0,0.0
1777316588.4717975,-0.17,0.34,0.71,0.053,0.131,9.767,-0.01,-0.01,-0.01
1777316588.481834,-0.17,0.34,0.71,0.056,0.128,9.759,-0.01,0.0,-0.01
1777316588.4918249,-0.17,0.34,0.71,0.056,0.12,9.76,-0.01,-0.01,0.0
1777316588.5017915,-0.17,0.34,0.71,0.055,0.123,9.768,-0.01,-0.01,0.0
1777316588.511802,-0.17,0.34,0.71,0.055,0.127,9.774,-0.01,-0.01,0.0
1777316588.521825,-0.17,0.34,0.71,0.06,0.128,9.774,-0.01,-0.01,-0.01
1777316588.5317867,-0.17,0.34,0.71,0.057,0.129,9.768,-0.01,0.0,-0.01
1777316588.5417805,-0.17,0.34,0.71,0.057,0.133,9.764,-0.01,-0.01,-0.01
1777316588.5517807,-0.17,0.34,0.71,0.05,0.138,9.77,-0.01,0.0,-0.01
1777316588.561778,-0.17,0.34,0.72,0.051,0.139,9.768,-0.01,-0.01,0.0
1777316588.5717747,-0.17,0.34,0.72,0.054,0.133,9.759,-0.01,0.0,0.0
1777316588.5817826,-0.17,0.34,0.72,0.057,0.128,9.754,-0.01,-0.01,-0.01
1777316588.5917442,-0.17,0.34,0.72,0.053,0.122,9.759,-0.01,-0.01,0.0
1777316588.6018178,-0.17,0.34,0.71,0.063,0.121,9.764,-0.01,-0.01,-0.01
1777316588.611791,-0.17,0.34,0.71,0.062,0.123,9.773,0.0,0.0,-0.01
1777316588.6218035,-0.17,0.34,0.71,0.055,0.126,9.763,0.0,-0.01,0.0
1777316588.6318066,-0.17,0.34,0.72,0.054,0.129,9.757,-0.01,-0.01,0.0
1777316588.6418054,-0.17,0.34,0.72,0.05,0.138,9.755,0.0,-0.01,0.0
1777316588.6518528,-0.16,0.34,0.72,0.044,0.137,9.761,-0.01,-0.01,-0.01
1777316588.661918,-0.16,0.34,0.72,0.049,0.131,9.761,-0.01,0.0,-0.01
1777316588.6717775,-0.17,0.34,0.72,0.053,0.126,9.769,0.0,-0.01,0.0
1777316588.681776,-0.17,0.34,0.72,0.057,0.126,9.766,-0.01,0.0,0.0
1777316588.6917467,-0.17,0.34,0.72,0.057,0.123,9.767,0.0,-0.01,0.0
1777316588.70083,-0.16,0.34,0.72,0.059,0.125,9.767,-0.01,-0.01,-0.01
1777316588.7117438,-0.16,0.34,0.72,0.056,0.119,9.774,-0.01,0.0,-0.01
1777316588.7217474,-0.17,0.34,0.72,0.051,0.126,9.773,0.0,0.0,0.0
1777316588.731716,-0.17,0.34,0.72,0.042,0.137,9.767,-0.01,0.0,0.0
1777316588.7417812,-0.17,0.33,0.72,0.048,0.138,9.764,-0.01,-0.01,0.0
1777316588.7509193,-0.17,0.33,0.72,0.042,0.134,9.764,0.0,0.0,-0.01
1777316588.7617776,-0.17,0.33,0.72,0.046,0.137,9.763,0.0,-0.01,-0.01
1777316588.770863,-0.17,0.33,0.73,0.04,0.133,9.76,-0.01,0.0,0.0
1777316588.7808628,-0.17,0.33,0.72,0.046,0.131,9.762,-0.01,-0.01,0.0
1777316588.8028872,-0.17,0.33,0.72,0.051,0.125,9.764,-0.01,-0.01,-0.01
1777316588.8037486,-0.17,0.33,0.72,0.056,0.123,9.764,-0.01,-0.01,0.0
1777316588.8117294,-0.17,0.33,0.72,0.056,0.128,9.77,-0.01,0.0,0.0
1777316588.8208609,-0.17,0.33,0.72,0.053,0.126,9.766,0.0,-0.01,-0.01
1777316588.8317308,-0.17,0.33,0.72,0.044,0.12,9.768,-0.01,0.0,-0.01
1777316588.8408356,-0.17,0.33,0.72,0.037,0.122,9.769,-0.01,0.0,0.0
1777316588.8508208,-0.17,0.33,0.72,0.044,0.127,9.767,-0.01,-0.01,0.0
1777316588.860887,-0.17,0.33,0.72,0.048,0.125,9.768,-0.01,-0.01,0.0
1777316588.8708827,-0.17,0.33,0.72,0.054,0.126,9.768,-0.01,-0.01,-0.01
1777316588.8808665,-0.17,0.33,0.72,0.055,0.122,9.778,-0.01,-0.01,-0.01
1777316588.8908596,-0.17,0.33,0.72,0.059,0.117,9.779,0.0,-0.01,-0.01
1777316588.90088,-0.17,0.34,0.72,0.062,0.115,9.773,-0.01,0.0,0.0
1777316588.9108763,-0.17,0.34,0.72,0.06,0.12,9.779,0.0,-0.01,0.0
1777316588.9208667,-0.17,0.33,0.72,0.06,0.125,9.774,-0.01,-0.01,0.0
1777316588.930863,-0.17,0.33,0.72,0.046,0.127,9.772,-0.01,0.0,-0.01
1777316588.9408655,-0.17,0.33,0.72,0.049,0.125,9.768,-0.01,-0.01,-0.01
1777316588.9508653,-0.17,0.33,0.72,0.046,0.12,9.762,-0.01,0.0,-0.01
1777316588.9608676,-0.17,0.33,0.72,0.047,0.116,9.764,0.0,-0.01,0.0
1777316588.9708588,-0.17,0.33,0.72,0.044,0.122,9.77,-0.01,-0.01,0.0
1777316588.980847,-0.17,0.33,0.72,0.053,0.121,9.762,-0.01,-0.01,0.0
1777316588.9908383,-0.17,0.33,0.72,0.054,0.119,9.768,0.0,-0.01,-0.01
1777316589.0008304,-0.17,0.33,0.72,0.059,0.121,9.766,-0.01,-0.01,-0.01
1777316589.010807,-0.17,0.34,0.72,0.053,0.117,9.772,-0.01,-0.01,0.0
1777316589.020914,-0.17,0.33,0.72,0.059,0.123,9.769,-0.01,-0.01,0.0
1777316589.0308864,-0.17,0.33,0.72,0.053,0.122,9.769,-0.01,0.0,0.0
1777316589.0408926,-0.17,0.33,0.72,0.046,0.123,9.77,-0.01,-0.01,0.0
1777316589.0508509,-0.17,0.33,0.71,0.048,0.121,9.774,-0.01,0.0,-0.01
1777316589.0608563,-0.17,0.33,0.71,0.047,0.119,9.779,-0.01,-0.01,-0.01
1777316589.0708847,-0.17,0.33,0.71,0.055,0.122,9.778,-0.01,-0.01,0.0
1777316589.0808628,-0.17,0.33,0.71,0.05,0.126,9.776,-0.01,-0.01,0.0
1777316589.090837,-0.17,0.33,0.72,0.05,0.125,9.772,-0.01,-0.01,-0.01
1777316589.1008747,-0.17,0.33,0.72,0.059,0.126,9.768,0.0,-0.01,-0.01
1777316589.11085,-0.17,0.33,0.72,0.059,0.131,9.77,-0.01,-0.01,0.0
1777316589.1208692,-0.17,0.33,0.72,0.054,0.134,9.772,-0.01,0.0,0.0
1777316589.1308584,-0.17,0.33,0.72,0.049,0.132,9.764,-0.01,-0.01,0.0
1777316589.1408424,-0.17,0.33,0.72,0.053,0.127,9.759,0.0,0.0,0.0
1777316589.1508284,-0.17,0.33,0.72,0.051,0.133,9.757,-0.01,-0.01,-0.01
1777316589.1607924,-0.17,0.33,0.72,0.047,0.127,9.757,-0.01,0.0,0.0
1777316589.1708121,-0.17,0.33,0.72,0.048,0.127,9.762,-0.01,-0.01,0.0
1777316589.180842,-0.17,0.33,0.72,0.049,0.127,9.761,-0.01,-0.01,0.0
1777316589.1908622,-0.17,0.33,0.72,0.054,0.129,9.768,-0.01,-0.01,0.0
1777316589.200852,-0.17,0.34,0.72,0.066,0.134,9.764,-0.01,-0.01,0.0
1777316589.2108212,-0.17,0.34,0.72,0.063,0.139,9.767,-0.01,-0.01,0.0
1777316589.2208602,-0.17,0.34,0.72,0.063,0.14,9.761,-0.01,0.0,-0.01
1777316589.2308848,-0.17,0.34,0.72,0.057,0.135,9.766,0.0,-0.01,-0.01
1777316589.2408395,-0.17,0.33,0.72,0.056,0.129,9.76,0.0,-0.01,0.0
1777316589.2508552,-0.17,0.33,0.72,0.048,0.129,9.764,0.0,0.0,0.0
1777316589.260831,-0.17,0.33,0.72,0.046,0.129,9.763,0.0,0.0,0.0
1777316589.2708423,-0.17,0.33,0.72,0.034,0.128,9.767,0.0,-0.01,0.0
1777316589.2808015,-0.17,0.33,0.72,0.044,0.127,9.759,0.0,-0.01,-0.01
1777316589.2908306,-0.17,0.33,0.72,0.046,0.125,9.761,0.0,0.0,-0.01
1777316589.3008144,-0.17,0.33,0.72,0.056,0.125,9.763,0.0,-0.01,0.0
1777316589.3108044,-0.17,0.33,0.72,0.054,0.128,9.775,0.0,0.0,0.0
1777316589.3208494,-0.17,0.33,0.72,0.059,0.131,9.77,0.0,-0.01,0.0
1777316589.330808,-0.17,0.33,0.73,0.055,0.127,9.76,-0.01,0.0,-0.01
1777316589.3408597,-0.17,0.33,0.72,0.053,0.121,9.759,0.0,-0.01,-0.01
1777316589.3519473,-0.17,0.33,0.72,0.049,0.121,9.766,-0.01,0.0,0.0
1777316589.3615494,-0.17,0.33,0.72,0.047,0.117,9.766,0.0,-0.01,0.0
1777316589.3709562,-0.17,0.33,0.72,0.056,0.114,9.767,-0.01,0.0,0.0
1777316589.3808095,-0.17,0.33,0.72,0.054,0.117,9.764,0.0,-0.01,-0.01
1777316589.3908134,-0.17,0.33,0.72,0.06,0.122,9.76,0.0,0.0,0.0
1777316589.4007952,-0.17,0.33,0.72,0.057,0.127,9.761,0.0,-0.01,0.0
1777316589.4107847,-0.17,0.33,0.72,0.062,0.131,9.761,-0.01,0.0,0.0
1777316589.420786,-0.17,0.33,0.72,0.056,0.131,9.767,0.0,0.0,0.0
1777316589.4308014,-0.17,0.33,0.72,0.059,0.131,9.763,-0.01,-0.01,0.0
1777316589.4407651,-0.17,0.33,0.72,0.051,0.127,9.767,-0.01,0.0,0.0
1777316589.450787,-0.17,0.33,0.72,0.053,0.121,9.759,0.0,-0.01,-0.01
1777316589.4610217,-0.17,0.33,0.72,0.048,0.123,9.76,0.0,0.0,0.0
1777316589.470824,-0.17,0.33,0.72,0.055,0.131,9.745,0.0,-0.01,-0.01
1777316589.4807584,-0.17,0.33,0.72,0.054,0.129,9.761,0.0,-0.01,0.0
1777316589.4908068,-0.17,0.33,0.72,0.06,0.132,9.76,0.0,-0.01,0.0
1777316589.5008,-0.17,0.33,0.72,0.059,0.129,9.768,0.0,0.0,0.0
1777316589.5108235,-0.17,0.33,0.72,0.059,0.133,9.769,-0.01,-0.01,0.0
1777316589.5207732,-0.17,0.33,0.72,0.059,0.134,9.773,-0.01,0.0,0.0
1777316589.5308585,-0.17,0.33,0.72,0.057,0.131,9.766,-0.01,-0.01,0.0
1777316589.5407836,-0.17,0.33,0.72,0.051,0.125,9.768,-0.01,-0.01,0.0
1777316589.5507565,-0.17,0.33,0.72,0.054,0.114,9.764,-0.01,0.0,0.0
1777316589.560778,-0.17,0.33,0.72,0.048,0.11,9.768,0.0,-0.01,-0.01
1777316589.5708277,-0.17,0.33,0.72,0.047,0.116,9.763,0.0,0.0,0.0
1777316589.5808184,-0.17,0.33,0.72,0.05,0.123,9.762,0.0,-0.01,-0.01
1777316589.590764,-0.17,0.33,0.72,0.049,0.128,9.763,0.0,-0.01,0.0
1777316589.600763,-0.17,0.33,0.72,0.048,0.131,9.769,0.0,-0.01,0.0
1777316589.610764,-0.17,0.33,0.72,0.053,0.129,9.772,0.0,0.0,0.0
1777316589.620771,-0.17,0.33,0.72,0.055,0.132,9.769,-0.01,0.0,0.0
1777316589.630792,-0.17,0.33,0.72,0.061,0.127,9.776,-0.01,-0.01,0.0
1777316589.640761,-0.17,0.33,0.72,0.057,0.12,9.773,0.0,0.0,0.0
1777316589.650773,-0.18,0.33,0.72,0.053,0.116,9.768,0.0,0.0,0.0
1777316589.6607623,-0.18,0.33,0.72,0.053,0.117,9.761,-0.01,-0.01,0.0
1777316589.6707687,-0.17,0.33,0.72,0.053,0.117,9.761,0.0,-0.01,0.0
1777316589.679845,-0.17,0.33,0.72,0.046,0.12,9.77,0.0,0.0,-0.01
1777316589.6907759,-0.17,0.33,0.72,0.049,0.127,9.763,0.0,-0.01,-0.01
1777316589.7007499,-0.17,0.33,0.72,0.053,0.123,9.762,0.0,-0.01,0.0
1777316589.7107587,-0.17,0.33,0.72,0.05,0.128,9.762,0.0,-0.01,-0.01
1777316589.719939,-0.17,0.33,0.72,0.054,0.127,9.753,0.0,-0.01,0.0
1777316589.730762,-0.17,0.33,0.72,0.049,0.123,9.754,0.0,-0.01,0.0
1777316589.739925,-0.18,0.32,0.72,0.05,0.119,9.756,0.0,-0.01,0.0
1777316589.750745,-0.18,0.32,0.72,0.049,0.119,9.753,-0.01,0.0,0.0
1777316589.7598648,-0.18,0.32,0.72,0.05,0.121,9.757,0.0,-0.01,0.0
1777316589.770212,-0.18,0.32,0.72,0.049,0.121,9.768,0.0,-0.01,0.0
1777316589.7798781,-0.18,0.32,0.72,0.054,0.119,9.77,0.0,-0.01,0.0
1777316589.789867,-0.18,0.33,0.72,0.054,0.123,9.781,0.0,-0.01,0.0
1777316589.7998798,-0.18,0.33,0.72,0.061,0.131,9.778,0.0,-0.01,-0.01
1777316589.809876,-0.18,0.33,0.72,0.063,0.129,9.779,0.0,-0.01,-0.01
1777316589.8198643,-0.18,0.33,0.72,0.069,0.127,9.772,-0.01,0.0,-0.01
1777316589.8298473,-0.18,0.33,0.72,0.072,0.121,9.778,0.0,0.0,0.0
1777316589.840763,-0.18,0.33,0.72,0.066,0.126,9.785,0.0,-0.01,0.0
1777316589.8498552,-0.18,0.33,0.72,0.063,0.134,9.781,-0.01,0.0,0.0
1777316589.8598354,-0.18,0.33,0.72,0.062,0.126,9.767,0.0,0.0,-0.01
1777316589.8698556,-0.17,0.33,0.72,0.048,0.132,9.759,0.0,-0.01,-0.01
1777316589.8798525,-0.17,0.33,0.72,0.041,0.129,9.763,-0.01,-0.01,-0.01
1777316589.88989,-0.17,0.33,0.72,0.043,0.128,9.764,0.0,-0.01,0.0
1777316589.899872,-0.17,0.33,0.72,0.049,0.128,9.768,-0.01,-0.01,0.0
1777316589.9099753,-0.17,0.33,0.72,0.053,0.12,9.772,0.0,-0.01,0.0
1777316589.9198656,-0.17,0.33,0.72,0.062,0.122,9.77,0.0,-0.01,0.0
1777316589.9298668,-0.17,0.33,0.72,0.062,0.119,9.769,0.0,0.0,0.0
1777316589.9398549,-0.18,0.33,0.72,0.055,0.119,9.76,-0.01,0.0,0.0
1777316589.9498565,-0.18,0.33,0.72,0.046,0.119,9.764,0.0,0.0,0.0
1777316589.9598668,-0.18,0.32,0.72,0.04,0.126,9.766,-0.01,0.0,0.0
1777316589.9698672,-0.18,0.32,0.72,0.037,0.121,9.764,0.0,0.0,0.0
1777316589.9798515,-0.18,0.32,0.72,0.037,0.123,9.759,0.0,0.0,0.0
1777316589.989917,-0.18,0.32,0.72,0.042,0.125,9.759,-0.01,-0.01,0.0
1777316589.9998538,-0.18,0.32,0.72,0.054,0.122,9.755,0.0,-0.01,0.0
1777316590.0098453,-0.18,0.33,0.72,0.057,0.122,9.763,0.0,-0.01,0.0
1777316590.0294416,-0.18,0.33,0.72,0.057,0.125,9.773,0.0,-0.01,-0.01
1777316590.03031,-0.18,0.33,0.72,0.065,0.12,9.77,-0.01,0.0,-0.01
1777316590.039851,-0.18,0.33,0.72,0.062,0.115,9.763,0.0,0.0,0.0
1777316590.049872,-0.18,0.32,0.72,0.055,0.123,9.767,0.0,0.0,0.0
1777316590.0599444,-0.18,0.32,0.72,0.054,0.125,9.767,0.0,0.0,0.0
1777316590.0698931,-0.18,0.32,0.72,0.047,0.129,9.77,0.0,0.0,0.0
1777316590.1127064,-0.18,0.32,0.72,0.046,0.133,9.774,0.0,-0.01,-0.01
1777316590.1135917,-0.18,0.32,0.72,0.048,0.131,9.775,-0.01,-0.01,-0.01
1777316590.1143773,-0.18,0.32,0.72,0.055,0.126,9.784,0.0,-0.01,-0.01
1777316590.1151452,-0.18,0.32,0.72,0.059,0.122,9.791,-0.01,0.0,-0.01
1777316590.1201923,-0.18,0.32,0.72,0.063,0.121,9.781,0.0,-0.01,0.0
1777316590.129859,-0.18,0.33,0.72,0.062,0.121,9.779,0.0,0.0,0.0
1777316590.1398427,-0.18,0.33,0.72,0.063,0.123,9.77,0.0,-0.01,0.0
1777316590.1498358,-0.18,0.33,0.72,0.059,0.128,9.766,-0.01,-0.01,-0.01
1777316590.159879,-0.18,0.33,0.72,0.05,0.125,9.773,0.0,0.0,-0.01
1777316590.1698647,-0.18,0.32,0.72,0.053,0.122,9.781,0.0,-0.01,0.0
1777316590.1800325,-0.18,0.33,0.72,0.049,0.127,9.773,-0.01,-0.01,0.0
1777316590.1898715,-0.18,0.33,0.72,0.05,0.131,9.774,0.0,-0.01,0.0
1777316590.1999042,-0.18,0.33,0.72,0.053,0.129,9.776,-0.01,-0.01,0.0
1777316590.2098422,-0.18,0.33,0.72,0.05,0.123,9.784,0.0,-0.01,-0.01
1777316590.2198474,-0.18,0.33,0.72,0.056,0.123,9.79,0.0,-0.01,0.0
1777316590.2298408,-0.18,0.33,0.72,0.065,0.123,9.782,-0.01,-0.01,0.0
1777316590.239816,-0.18,0.33,0.72,0.06,0.131,9.779,0.0,-0.01,0.0
1777316590.2498193,-0.18,0.33,0.72,0.056,0.132,9.776,0.0,0.0,0.0
1777316590.2598271,-0.18,0.33,0.72,0.051,0.131,9.778,0.0,0.0,0.0
1777316590.2698314,-0.18,0.33,0.72,0.054,0.131,9.775,-0.01,0.0,0.0
1777316590.2798235,-0.18,0.33,0.73,0.05,0.133,9.778,0.0,-0.01,0.0
1777316590.2900136,-0.18,0.33,0.73,0.053,0.135,9.772,0.0,-0.01,0.0
1777316590.2998328,-0.18,0.33,0.73,0.056,0.129,9.772,0.0,-0.01,0.0
1777316590.3100019,-0.18,0.33,0.73,0.057,0.123,9.772,-0.01,-0.01,0.0
1777316590.3198428,-0.18,0.33,0.73,0.059,0.126,9.773,0.0,-0.01,0.0
1777316590.329862,-0.18,0.33,0.73,0.066,0.123,9.769,0.0,-0.01,0.0
1777316590.3799484,-0.18,0.33,0.72,0.066,0.126,9.767,0.0,-0.01,0.0
1777316590.3808858,-0.18,0.33,0.73,0.067,0.134,9.768,0.0,-0.01,0.0
1777316590.3817031,-0.18,0.33,0.73,0.06,0.138,9.778,0.0,0.0,0.0
1777316590.3825052,-0.18,0.33,0.73,0.057,0.135,9.772,-0.01,-0.01,0.0
1777316590.383296,-0.18,0.33,0.73,0.053,0.129,9.763,-0.01,0.0,-0.01
1777316590.3898146,-0.18,0.33,0.73,0.048,0.121,9.763,0.0,-0.01,-0.01
1777316590.3998072,-0.18,0.33,0.73,0.05,0.114,9.756,0.0,-0.01,0.0
1777316590.4097986,-0.18,0.33,0.72,0.05,0.12,9.761,0.0,-0.01,0.0
1777316590.4197845,-0.18,0.33,0.72,0.06,0.119,9.767,0.0,0.0,0.0
1777316590.4297774,-0.18,0.33,0.72,0.06,0.119,9.766,-0.01,-0.01,0.0
1777316590.4398174,-0.18,0.33,0.72,0.067,0.12,9.76,0.0,0.0,-0.01
1777316590.4497964,-0.18,0.33,0.72,0.062,0.127,9.762,0.0,0.0,0.0
1777316590.4598038,-0.18,0.33,0.73,0.065,0.128,9.766,0.0,-0.01,0.0
1777316590.4698353,-0.18,0.33,0.73,0.063,0.128,9.766,-0.01,-0.01,0.0
1777316590.4798093,-0.18,0.33,0.73,0.062,0.129,9.766,0.0,0.0,0.0
1777316590.4898283,-0.18,0.33,0.73,0.054,0.127,9.764,0.0,0.0,-0.01
1777316590.4999328,-0.18,0.33,0.73,0.056,0.129,9.762,0.0,-0.01,0.0
1777316590.5098293,-0.18,0.33,0.73,0.059,0.129,9.761,-0.01,0.0,0.0
1777316590.5198674,-0.18,0.34,0.73,0.061,0.127,9.761,0.0,-0.01,0.0
1777316590.5298285,-0.18,0.34,0.73,0.067,0.128,9.766,0.0,-0.01,0.0
1777316590.5399225,-0.18,0.34,0.73,0.067,0.132,9.77,0.0,-0.01,-0.01
1777316590.549912,-0.18,0.34,0.73,0.065,0.132,9.768,0.0,0.0,-0.01
1777316590.5599403,-0.18,0.34,0.73,0.057,0.132,9.772,0.0,-0.01,-0.01
1777316590.569783,-0.18,0.34,0.73,0.05,0.131,9.772,-0.01,0.0,0.0
1777316590.5798135,-0.18,0.34,0.73,0.051,0.132,9.77,0.0,-0.01,0.0
1777316590.5898058,-0.18,0.34,0.73,0.05,0.133,9.781,-0.01,-0.01,0.0
1777316590.599841,-0.18,0.34,0.73,0.056,0.123,9.78,0.0,0.0,-0.01
1777316590.6098046,-0.18,0.34,0.73,0.056,0.123,9.778,0.0,-0.01,0.0
1777316590.619812,-0.18,0.34,0.73,0.059,0.125,9.774,-0.01,-0.01,-0.01
1777316590.629798,-0.18,0.34,0.73,0.05,0.128,9.778,-0.01,-0.01,0.0
1777316590.6398032,-0.18,0.34,0.73,0.053,0.133,9.776,0.0,0.0,0.0
1777316590.6497972,-0.18,0.34,0.73,0.05,0.129,9.77,0.0,0.0,-0.01
1777316590.6597872,-0.18,0.34,0.73,0.051,0.128,9.764,-0.01,-0.01,0.0
1777316590.6697867,-0.18,0.34,0.73,0.05,0.128,9.764,-0.01,-0.01,0.0
1777316590.678868,-0.18,0.33,0.73,0.049,0.126,9.767,-0.01,-0.01,0.0
1777316590.689782,-0.18,0.33,0.73,0.043,0.123,9.768,-0.01,0.0,-0.01
1777316590.699764,-0.18,0.33,0.73,0.054,0.12,9.768,0.0,0.0,0.0
1777316590.7097561,-0.18,0.33,0.73,0.046,0.125,9.764,0.0,-0.01,0.0
1777316590.7198017,-0.18,0.33,0.73,0.047,0.122,9.766,0.0,-0.01,0.0
1777316590.7289047,-0.18,0.33,0.73,0.041,0.121,9.764,0.0,0.0,-0.01
1777316590.738897,-0.18,0.33,0.73,0.047,0.125,9.764,0.0,-0.01,-0.01
1777316590.7488976,-0.18,0.33,0.73,0.047,0.123,9.768,0.0,0.0,0.0
1777316590.759781,-0.18,0.33,0.73,0.051,0.126,9.764,0.0,-0.01,0.0
1777316590.7698412,-0.18,0.33,0.73,0.05,0.126,9.761,0.0,0.0,0.0
1777316590.779081,-0.18,0.33,0.73,0.049,0.126,9.77,0.0,-0.01,0.0
1777316590.7889602,-0.18,0.33,0.73,0.053,0.122,9.767,-0.01,0.0,-0.01
1777316590.7997978,-0.18,0.33,0.73,0.049,0.119,9.762,0.0,-0.01,-0.01
1777316590.8089857,-0.18,0.33,0.73,0.049,0.121,9.769,-0.01,-0.01,0.0
1777316590.8190563,-0.18,0.33,0.73,0.051,0.126,9.773,0.0,0.0,0.0
1777316590.8288803,-0.18,0.33,0.73,0.051,0.126,9.772,0.0,-0.01,0.0
1777316590.8390012,-0.18,0.33,0.73,0.055,0.127,9.772,0.0,0.0,-0.01
1777316590.8488655,-0.18,0.33,0.73,0.056,0.128,9.769,0.0,-0.01,-0.01
1777316590.858856,-0.18,0.33,0.73,0.056,0.132,9.766,0.0,0.0,0.0
1777316590.868883,-0.18,0.33,0.73,0.054,0.133,9.77,-0.01,-0.01,0.0
1777316590.8788857,-0.18,0.33,0.73,0.055,0.132,9.764,0.0,-0.01,0.0
1777316590.8888755,-0.18,0.33,0.73,0.05,0.128,9.763,-0.01,0.0,0.0
1777316590.8989947,-0.18,0.33,0.73,0.049,0.122,9.756,0.0,0.0,0.0
1777316590.9088917,-0.18,0.33,0.73,0.054,0.122,9.767,0.0,-0.01,0.0
1777316590.918882,-0.18,0.33,0.73,0.053,0.132,9.77,0.0,-0.01,0.0
1777316590.928872,-0.18,0.33,0.73,0.056,0.127,9.775,-0.01,0.0,0.0
1777316590.9388547,-0.18,0.33,0.73,0.053,0.123,9.776,0.0,-0.01,0.0
1777316590.9488661,-0.18,0.33,0.73,0.05,0.133,9.776,-0.01,-0.01,0.0
1777316590.958849,-0.18,0.33,0.73,0.044,0.128,9.772,0.0,0.0,-0.01
1777316590.9688752,-0.18,0.32,0.73,0.049,0.128,9.76,0.0,-0.01,-0.01
1777316590.9788535,-0.18,0.33,0.73,0.047,0.128,9.76,0.0,-0.01,-0.01
1777316590.9888515,-0.18,0.32,0.73,0.048,0.129,9.756,0.0,-0.01,0.0
1777316590.9988189,-0.18,0.32,0.73,0.051,0.126,9.762,0.0,-0.01,0.0
1777316591.0088804,-0.18,0.33,0.73,0.054,0.128,9.769,0.0,-0.01,0.0
1777316591.0188897,-0.18,0.33,0.73,0.057,0.125,9.775,0.0,0.0,0.0
1777316591.029015,-0.18,0.33,0.73,0.053,0.134,9.779,0.0,-0.01,0.0
1777316591.0389094,-0.18,0.33,0.73,0.059,0.137,9.776,-0.01,0.0,0.0
1777316591.0488634,-0.18,0.33,0.73,0.049,0.133,9.78,0.0,-0.01,0.0
1777316591.0591197,-0.18,0.33,0.73,0.054,0.134,9.773,0.0,-0.01,-0.01
1777316591.068881,-0.18,0.33,0.73,0.05,0.135,9.776,0.0,-0.01,0.0
1777316591.079076,-0.18,0.33,0.73,0.056,0.132,9.768,0.0,-0.01,0.0
1777316591.0888824,-0.18,0.33,0.73,0.046,0.125,9.779,-0.01,-0.01,0.0
1777316591.098859,-0.18,0.33,0.73,0.055,0.122,9.781,-0.01,-0.01,0.0
1777316591.1088443,-0.18,0.33,0.73,0.056,0.123,9.781,0.0,-0.01,0.0
1777316591.1188676,-0.18,0.33,0.73,0.06,0.131,9.785,0.0,-0.01,0.0
1777316591.1288292,-0.18,0.33,0.73,0.057,0.128,9.787,0.0,0.0,0.0
1777316591.1388278,-0.18,0.33,0.73,0.059,0.123,9.782,0.0,-0.01,-0.01
1777316591.1488347,-0.18,0.33,0.73,0.061,0.121,9.774,-0.01,0.0,0.0
1777316591.1588707,-0.18,0.33,0.73,0.06,0.121,9.775,0.0,-0.01,0.0
1777316591.1688542,-0.18,0.33,0.73,0.055,0.127,9.767,0.0,0.0,-0.01
1777316591.1788669,-0.18,0.33,0.73,0.05,0.122,9.769,0.0,-0.01,0.0
1777316591.1888351,-0.18,0.33,0.73,0.057,0.115,9.772,0.0,-0.01,-0.01
1777316591.1988661,-0.18,0.33,0.73,0.065,0.105,9.77,0.0,-0.01,-0.01
1777316591.208825,-0.18,0.33,0.73,0.067,0.104,9.768,0.0,-0.01,0.0
1777316591.2188423,-0.18,0.33,0.73,0.061,0.113,9.77,0.0,-0.01,0.0
1777316591.2288227,-0.18,0.33,0.73,0.059,0.117,9.77,0.0,0.0,0.0
1777316591.238861,-0.18,0.33,0.73,0.055,0.12,9.773,0.0,-0.01,-0.01
1777316591.2488272,-0.18,0.33,0.73,0.054,0.123,9.773,-0.01,0.0,0.0
1777316591.2588391,-0.18,0.33,0.73,0.049,0.123,9.767,-0.01,-0.01,0.0
1777316591.268925,-0.18,0.33,0.73,0.046,0.126,9.764,-0.01,-0.01,0.0
1777316591.2788014,-0.18,0.33,0.73,0.043,0.128,9.76,-0.01,-0.01,0.0
1777316591.2888446,-0.18,0.33,0.73,0.043,0.123,9.753,0.0,0.0,-0.01
1777316591.2988846,-0.18,0.33,0.72,0.05,0.123,9.756,0.0,-0.01,-0.01
1777316591.308861,-0.18,0.33,0.72,0.063,0.125,9.749,-0.01,0.0,0.0
1777316591.3198564,-0.18,0.33,0.72,0.065,0.125,9.757,-0.01,-0.01,0.0
1777316591.3288982,-0.18,0.33,0.73,0.062,0.126,9.757,0.0,0.0,0.0
1777316591.339213,-0.18,0.33,0.73,0.055,0.128,9.766,0.0,-0.01,-0.01
1777316591.3490002,-0.18,0.33,0.73,0.054,0.135,9.766,0.0,0.0,0.0
1777316591.3588521,-0.18,0.33,0.73,0.05,0.138,9.763,0.0,-0.01,0.0
1777316591.3688338,-0.18,0.33,0.73,0.044,0.137,9.766,-0.01,-0.01,0.0
1777316591.3788552,-0.18,0.33,0.73,0.043,0.131,9.767,-0.01,-0.01,0.0
1777316591.3888388,-0.18,0.33,0.73,0.047,0.132,9.77,-0.01,-0.01,-0.01
1777316591.3988268,-0.18,0.33,0.73,0.054,0.127,9.781,0.0,-0.01,0.0
1777316591.4088914,-0.18,0.33,0.73,0.057,0.125,9.782,-0.01,-0.01,0.0
1777316591.4188347,-0.18,0.33,0.72,0.056,0.123,9.782,-0.01,0.0,0.0
1777316591.4288025,-0.18,0.33,0.73,0.059,0.121,9.773,0.0,0.0,-0.01
1777316591.4388754,-0.18,0.33,0.73,0.055,0.119,9.778,0.0,0.0,-0.01
1777316591.4488196,-0.18,0.33,0.73,0.054,0.125,9.775,0.0,0.0,0.0
1777316591.4588332,-0.18,0.33,0.73,0.055,0.127,9.772,0.0,0.0,0.0
1777316591.4688416,-0.18,0.33,0.72,0.06,0.123,9.764,0.0,-0.01,0.0
1777316591.4788105,-0.18,0.33,0.72,0.055,0.116,9.767,0.0,-0.01,0.0
1777316591.488844,-0.18,0.33,0.72,0.059,0.116,9.774,0.0,-0.01,-0.01
1777316591.4988081,-0.18,0.33,0.72,0.06,0.12,9.775,0.0,-0.01,0.0
1777316591.5088305,-0.18,0.33,0.72,0.06,0.117,9.774,0.0,-0.01,0.0
1777316591.5188043,-0.18,0.33,0.72,0.06,0.125,9.776,0.0,-0.01,0.0
1777316591.5288131,-0.19,0.34,0.72,0.06,0.126,9.772,0.0,0.0,0.0
1777316591.5388594,-0.19,0.34,0.72,0.057,0.126,9.776,0.0,-0.01,0.0
1777316591.5488145,-0.19,0.34,0.73,0.051,0.128,9.779,0.0,0.0,0.0
1777316591.558847,-0.19,0.33,0.73,0.053,0.128,9.778,0.0,-0.01,0.0
1777316591.5688925,-0.19,0.33,0.73,0.047,0.122,9.774,0.0,-0.01,0.0
1777316591.5789433,-0.19,0.33,0.72,0.046,0.122,9.769,0.0,-0.01,0.0
1777316591.5881386,-0.19,0.33,0.72,0.047,0.129,9.772,-0.01,-0.01,0.0
1777316591.5988257,-0.19,0.33,0.73,0.049,0.128,9.773,-0.01,-0.01,0.0
1777316591.6089494,-0.19,0.34,0.73,0.056,0.131,9.768,0.0,0.0,0.0
1777316591.6188536,-0.19,0.33,0.73,0.059,0.131,9.774,0.0,-0.01,0.0
1777316591.6288068,-0.19,0.34,0.73,0.057,0.133,9.779,-0.01,0.0,-0.01
1777316591.6379128,-0.19,0.33,0.73,0.05,0.131,9.78,0.0,-0.01,-0.01
1777316591.648806,-0.19,0.33,0.73,0.049,0.134,9.78,-0.01,0.0,0.0
1777316591.65883,-0.19,0.33,0.73,0.047,0.132,9.775,0.0,-0.01,0.0
1777316591.668803,-0.19,0.33,0.73,0.047,0.132,9.766,0.0,-0.01,0.0
1777316591.6779213,-0.19,0.33,0.73,0.049,0.128,9.762,-0.01,-0.01,-0.01
1777316591.6888092,-0.19,0.33,0.73,0.047,0.126,9.764,0.0,-0.01,0.0
1777316591.6978834,-0.19,0.33,0.73,0.059,0.125,9.767,0.0,-0.01,0.0
1777316591.7079058,-0.19,0.33,0.73,0.057,0.127,9.778,0.0,-0.01,0.0
1777316591.7187781,-0.19,0.33,0.73,0.061,0.129,9.774,0.0,0.0,0.0
1777316591.728775,-0.19,0.34,0.73,0.06,0.137,9.773,0.0,0.0,0.0
1777316591.7379053,-0.19,0.33,0.73,0.057,0.135,9.769,0.0,-0.01,0.0
1777316591.7479234,-0.19,0.33,0.73,0.053,0.134,9.772,0.0,0.0,0.0
1777316591.7579074,-0.19,0.33,0.73,0.051,0.133,9.769,-0.01,-0.01,0.0
1777316591.7679083,-0.19,0.33,0.73,0.049,0.131,9.767,0.0,-0.01,0.0
1777316591.7779157,-0.19,0.33,0.73,0.049,0.134,9.769,-0.01,-0.01,0.0
1777316591.7882748,-0.19,0.33,0.73,0.044,0.135,9.774,0.0,0.0,0.0
1777316591.7988436,-0.19,0.33,0.73,0.053,0.135,9.769,0.0,-0.01,-0.01
1777316591.8080356,-0.19,0.33,0.73,0.062,0.128,9.776,-0.01,-0.01,0.0
1777316591.8180964,-0.19,0.33,0.73,0.057,0.132,9.773,0.0,-0.01,0.0
1777316591.8279135,-0.19,0.33,0.73,0.054,0.128,9.77,0.0,0.0,0.0
1777316591.8381433,-0.19,0.33,0.73,0.055,0.127,9.769,0.0,-0.01,0.0
1777316591.847998,-0.19,0.33,0.73,0.057,0.125,9.768,0.0,0.0,0.0
1777316591.8579829,-0.19,0.33,0.73,0.061,0.122,9.772,0.0,-0.01,-0.01
1777316591.8679159,-0.19,0.33,0.73,0.054,0.119,9.782,0.0,0.0,0.0
1777316591.8779404,-0.19,0.33,0.73,0.06,0.119,9.784,0.0,-0.01,0.0
1777316591.887909,-0.19,0.34,0.73,0.062,0.117,9.78,0.0,-0.01,0.0
1777316591.897899,-0.19,0.34,0.73,0.062,0.117,9.779,0.0,-0.01,0.0
1777316591.9081483,-0.19,0.34,0.73,0.051,0.12,9.776,0.0,0.0,0.0
1777316591.9179127,-0.19,0.34,0.73,0.049,0.121,9.775,0.0,0.0,-0.01
1777316591.9278836,-0.19,0.33,0.73,0.043,0.123,9.78,0.0,-0.01,-0.01
1777316591.9379158,-0.19,0.33,0.73,0.04,0.127,9.782,0.0,-0.01,0.0
1777316591.9478712,-0.2,0.33,0.73,0.04,0.127,9.78,0.0,-0.01,0.0
1777316591.9579084,-0.2,0.33,0.73,0.046,0.125,9.775,-0.01,-0.01,0.0
1777316591.9678795,-0.19,0.33,0.73,0.049,0.121,9.768,-0.01,0.0,-0.01
1777316591.9779055,-0.19,0.33,0.73,0.054,0.117,9.761,0.0,-0.01,-0.01
1777316591.987891,-0.19,0.33,0.73,0.057,0.12,9.767,-0.01,-0.01,-0.01
1777316591.9978802,-0.2,0.33,0.73,0.059,0.121,9.761,-0.01,-0.01,0.0
1777316592.0078838,-0.2,0.34,0.73,0.063,0.128,9.759,0.0,-0.01,0.0
1777316592.0178611,-0.2,0.34,0.73,0.063,0.138,9.772,-0.01,-0.01,0.0
1777316592.0278857,-0.2,0.34,0.73,0.062,0.133,9.761,0.0,0.0,0.0
1777316592.0379014,-0.19,0.34,0.73,0.053,0.131,9.772,0.0,0.0,-0.01
1777316592.0480278,-0.2,0.34,0.73,0.055,0.122,9.768,0.0,-0.01,-0.01
1777316592.058087,-0.2,0.34,0.73,0.051,0.122,9.775,0.0,-0.01,0.0
1777316592.0679655,-0.2,0.33,0.73,0.05,0.126,9.772,-0.01,-0.01,0.0
1777316592.0780456,-0.2,0.33,0.73,0.044,0.12,9.769,0.0,0.0,-0.01
1777316592.0879757,-0.2,0.33,0.73,0.049,0.121,9.769,0.0,-0.01,-0.01
1777316592.0981827,-0.19,0.33,0.73,0.054,0.123,9.779,0.0,0.0,0.0
1777316592.107909,-0.19,0.33,0.73,0.063,0.126,9.772,0.0,-0.01,-0.01
1777316592.1178646,-0.19,0.34,0.73,0.065,0.128,9.776,-0.01,0.0,0.0
1777316592.127881,-0.19,0.34,0.73,0.059,0.129,9.768,-0.01,-0.01,-0.01
1777316592.1379023,-0.19,0.34,0.73,0.053,0.126,9.774,0.0,0.0,0.0
1777316592.1478484,-0.19,0.33,0.73,0.053,0.128,9.766,0.0,-0.01,0.0
1777316592.1578674,-0.19,0.33,0.73,0.042,0.131,9.763,0.0,0.0,-0.01
1777316592.167837,-0.19,0.33,0.73,0.046,0.129,9.763,0.0,-0.01,0.0
1777316592.1779115,-0.19,0.33,0.73,0.043,0.131,9.762,-0.01,-0.01,0.0
1777316592.1878674,-0.19,0.33,0.73,0.049,0.126,9.761,0.0,-0.01,-0.01
1777316592.1978703,-0.19,0.33,0.73,0.047,0.125,9.768,-0.01,-0.01,0.0
1777316592.2078707,-0.2,0.33,0.73,0.05,0.127,9.776,-0.01,-0.01,0.0
1777316592.2178583,-0.2,0.33,0.73,0.059,0.125,9.77,0.0,0.0,0.0
1777316592.2278452,-0.2,0.33,0.73,0.062,0.121,9.773,0.0,-0.01,0.0
