timestamp,yaw,pitch,roll,accel_x,accel_y,accel_z,gyro_x,gyro_y,gyro_z
1776535073.4050763,162.19,-0.12,-0.42,-0.017,-0.057,9.808,0.0,0.0,0.0
1776535073.41512,162.19,-0.12,-0.42,-0.025,-0.074,9.808,-0.01,-0.01,-0.01
1776535073.4250836,162.19,-0.12,-0.43,-0.029,-0.086,9.808,-0.01,0.0,-0.01
1776535073.4351435,162.19,-0.12,-0.43,-0.031,-0.096,9.808,0.0,-0.01,0.0
1776535073.4450536,162.18,-0.12,-0.43,-0.019,-0.091,9.808,-0.01,-0.01,0.0
1776535073.4550512,162.19,-0.12,-0.43,-0.013,-0.079,9.808,-0.01,-0.01,0.0
1776535073.4650486,162.19,-0.12,-0.43,-0.013,-0.071,9.808,0.0,-0.01,-0.01
1776535073.4751437,162.2,-0.12,-0.42,-0.044,-0.068,9.808,0.0,0.0,-0.01
1776535073.4850557,162.2,-0.14,-0.42,-0.08,-0.063,9.808,0.0,0.0,-0.01
1776535073.4950426,162.2,-0.15,-0.41,-0.121,-0.061,9.808,0.0,0.0,-0.01
1776535073.5050566,162.19,-0.15,-0.4,-0.134,-0.055,9.808,0.0,0.0,0.0
1776535073.5150828,162.19,-0.15,-0.4,-0.151,-0.061,9.808,0.0,-0.01,0.0
1776535073.5250514,162.18,-0.14,-0.4,-0.114,-0.062,9.808,0.0,-0.01,0.0
1776535073.5350564,162.18,-0.12,-0.41,-0.092,-0.056,9.808,-0.01,-0.01,0.0
1776535073.5450623,162.18,-0.08,-0.41,0.098,-0.036,9.808,-0.01,-0.02,0.0
1776535073.5550299,162.18,-0.02,-0.44,-0.037,-0.04,9.808,-0.01,-0.03,-0.01
1776535073.5650477,162.2,-0.03,-0.44,0.171,0.0,9.808,-0.02,-0.02,-0.01
1776535073.5750554,162.22,0.02,-0.43,0.26,-0.017,9.809,-0.01,0.01,-0.02
1776535073.585069,162.24,0.02,-0.44,0.223,-0.074,9.808,0.0,-0.01,-0.02
1776535073.595026,162.26,0.0,-0.44,0.158,-0.148,9.809,-0.01,0.0,-0.02
1776535073.6050234,162.26,-0.02,-0.45,0.103,-0.213,9.809,0.0,0.01,-0.01
1776535073.615061,162.23,-0.05,-0.47,0.055,-0.202,9.808,0.0,0.01,0.0
1776535073.6250136,162.19,-0.07,-0.46,-0.038,-0.186,9.808,0.0,0.01,0.01
1776535073.6350126,162.15,-0.1,-0.47,-0.065,-0.111,9.808,0.0,0.01,0.02
1776535073.645027,162.13,-0.11,-0.45,-0.175,-0.018,9.809,-0.01,0.0,0.02
1776535073.6550496,162.13,-0.14,-0.45,-0.244,0.042,9.809,-0.01,-0.01,0.01
1776535073.6650453,162.15,-0.15,-0.43,-0.235,0.042,9.808,-0.01,0.0,-0.01
1776535073.6750436,162.17,-0.15,-0.43,-0.241,0.026,9.809,0.0,-0.01,-0.02
1776535073.6850502,162.2,-0.15,-0.43,-0.196,-0.011,9.808,0.0,-0.02,-0.02
1776535073.6950164,162.23,-0.13,-0.44,-0.141,-0.057,9.808,-0.01,-0.01,-0.02
1776535073.7050498,162.25,-0.11,-0.45,-0.096,-0.125,9.808,-0.01,-0.01,-0.02
1776535073.7150512,162.25,-0.1,-0.46,-0.061,-0.165,9.808,0.0,-0.02,-0.01
1776535073.725044,162.23,-0.09,-0.45,0.018,-0.159,9.808,0.0,-0.01,0.0
1776535073.7350326,162.22,-0.07,-0.46,0.091,-0.134,9.809,0.0,-0.01,0.01
1776535073.7450628,162.21,-0.06,-0.46,0.101,-0.105,9.808,-0.01,-0.01,0.0
1776535073.755063,162.2,-0.06,-0.45,0.107,-0.079,9.808,-0.01,-0.01,0.0
1776535073.7650456,162.19,-0.06,-0.44,0.108,-0.051,9.808,0.0,0.0,0.0
1776535073.7750447,162.19,-0.06,-0.44,0.085,-0.016,9.808,0.0,0.0,0.0
1776535073.7850294,162.19,-0.07,-0.43,0.034,0.006,9.808,0.0,0.0,-0.01
1776535073.7950256,162.2,-0.09,-0.43,-0.023,-0.028,9.808,-0.01,0.0,-0.01
1776535073.80503,162.2,-0.1,-0.44,-0.09,-0.05,9.808,-0.01,0.0,-0.01
1776535073.8150291,162.19,-0.12,-0.43,-0.119,-0.032,9.808,-0.01,0.0,0.0
1776535073.8250434,162.19,-0.13,-0.43,-0.128,-0.037,9.808,0.0,0.0,0.0
1776535073.8350267,162.19,-0.13,-0.43,-0.121,-0.046,9.808,-0.01,0.0,-0.01
1776535073.8441682,162.2,-0.13,-0.44,-0.143,-0.084,9.808,-0.01,-0.01,-0.01
1776535073.8542082,162.19,-0.13,-0.45,-0.119,-0.089,9.808,-0.01,-0.01,0.0
1776535073.8642104,162.18,-0.12,-0.43,-0.06,-0.061,9.808,0.0,-0.01,0.0
1776535073.8741941,162.19,-0.1,-0.44,-0.013,-0.05,9.808,0.0,-0.01,0.0
1776535073.8842049,162.2,-0.1,-0.44,0.019,-0.038,9.808,-0.01,-0.01,-0.01
1776535073.8950129,162.21,-0.09,-0.44,0.028,-0.097,9.809,-0.01,-0.01,-0.01
1776535073.9050336,162.21,-0.08,-0.44,0.048,-0.105,9.809,0.0,-0.01,-0.01
1776535073.9142094,162.21,-0.08,-0.44,0.059,-0.077,9.808,0.0,0.0,0.0
1776535073.924194,162.21,-0.08,-0.43,0.053,-0.073,9.808,0.0,0.0,0.0
1776535073.9341557,162.21,-0.09,-0.44,0.031,-0.06,9.808,-0.01,0.0,0.0
1776535073.9450197,162.2,-0.1,-0.44,-0.018,-0.074,9.808,-0.01,0.0,0.0
1776535073.9541988,162.18,-0.1,-0.44,-0.043,-0.056,9.808,0.0,0.0,0.0
1776535073.9641886,162.17,-0.11,-0.43,-0.057,-0.01,9.809,0.0,0.0,0.0
1776535073.9745667,162.18,-0.12,-0.42,-0.062,0.004,9.809,0.0,0.0,0.0
1776535073.9841688,162.19,-0.12,-0.42,-0.073,0.016,9.808,-0.01,0.0,-0.01
1776535073.9941683,162.21,-0.12,-0.43,-0.108,-0.036,9.808,-0.01,-0.01,-0.02
1776535074.004172,162.21,-0.12,-0.43,-0.098,-0.069,9.808,-0.01,-0.01,-0.01
1776535074.0141892,162.21,-0.12,-0.43,-0.067,-0.068,9.809,0.0,-0.01,-0.01
1776535074.0241525,162.21,-0.11,-0.44,-0.026,-0.085,9.809,0.0,-0.01,-0.01
1776535074.0341544,162.21,-0.1,-0.44,-0.01,-0.11,9.809,-0.01,-0.01,-0.01
1776535074.0441656,162.21,-0.1,-0.44,0.001,-0.116,9.809,-0.01,-0.01,-0.01
1776535074.0541947,162.2,-0.09,-0.44,0.026,-0.089,9.808,0.0,-0.01,0.0
1776535074.064171,162.2,-0.09,-0.43,0.049,-0.065,9.808,0.0,0.0,0.0
1776535074.074153,162.21,-0.09,-0.43,0.048,-0.042,9.808,0.0,0.0,-0.01
1776535074.0841525,162.22,-0.06,-0.43,-0.034,-0.075,9.809,-0.01,0.0,-0.01
1776535074.0941546,162.22,-0.09,-0.44,-0.171,-0.096,9.809,0.0,-0.02,-0.01
1776535074.1041722,162.22,-0.11,-0.43,-0.095,-0.026,9.809,-0.01,0.0,-0.01
1776535074.1141555,162.22,-0.09,-0.42,-0.062,-0.04,9.808,0.0,0.0,0.0
1776535074.1241236,162.23,-0.07,-0.42,-0.113,-0.059,9.808,0.0,-0.02,-0.01
1776535074.1341546,162.23,-0.09,-0.43,-0.145,-0.023,9.808,-0.01,-0.02,-0.01
1776535074.144171,162.24,-0.09,-0.42,-0.09,-0.059,9.808,-0.01,0.0,-0.01
1776535074.154158,162.24,-0.07,-0.42,-0.08,-0.083,9.808,0.0,-0.01,-0.01
1776535074.1641703,162.23,-0.06,-0.42,-0.019,-0.053,9.808,0.0,-0.01,0.0
1776535074.174117,162.23,-0.04,-0.42,0.002,-0.008,9.808,-0.01,-0.01,0.0
1776535074.184125,162.25,-0.03,-0.41,0.043,-0.028,9.808,-0.01,-0.01,-0.01
1776535074.1941397,162.26,-0.02,-0.42,0.055,-0.037,9.809,-0.01,-0.01,-0.01
1776535074.2041721,162.28,-0.02,-0.43,0.06,-0.074,9.808,-0.01,-0.01,-0.02
1776535074.214174,162.28,-0.02,-0.42,0.044,-0.111,9.808,0.0,0.0,-0.01
1776535074.224154,162.27,-0.03,-0.43,0.035,-0.12,9.808,0.0,0.0,0.0
1776535074.2341478,162.26,-0.03,-0.43,0.001,-0.115,9.809,-0.01,0.0,0.0
1776535074.2441235,162.24,-0.04,-0.44,-0.046,-0.113,9.808,-0.01,0.0,0.0
1776535074.2541437,162.22,-0.05,-0.44,-0.081,-0.127,9.808,-0.01,0.0,0.01
1776535074.2641551,162.2,-0.06,-0.44,-0.096,-0.105,9.808,-0.01,0.0,0.01
1776535074.2741845,162.18,-0.06,-0.44,-0.096,-0.062,9.808,0.0,-0.01,0.01
1776535074.2841182,162.18,-0.06,-0.43,-0.089,-0.004,9.809,0.0,-0.01,0.01
1776535074.294118,162.19,-0.07,-0.42,-0.083,0.007,9.808,0.0,-0.01,-0.01
1776535074.3041277,162.21,-0.06,-0.41,-0.078,0.006,9.809,0.0,-0.01,-0.02
1776535074.314117,162.23,-0.06,-0.41,-0.072,-0.008,9.808,0.0,0.0,-0.02
1776535074.3241322,162.24,-0.06,-0.41,-0.067,-0.043,9.808,0.0,-0.01,-0.02
1776535074.3341515,162.23,-0.07,-0.42,-0.048,-0.061,9.808,-0.01,-0.01,-0.01
1776535074.344157,162.23,-0.06,-0.42,-0.036,-0.044,9.808,-0.01,-0.01,0.0
1776535074.3541667,162.21,-0.06,-0.42,-0.006,-0.034,9.809,-0.01,-0.01,0.0
1776535074.3640997,162.21,-0.06,-0.42,0.004,-0.025,9.809,-0.01,-0.01,0.0
1776535074.3741019,162.21,-0.06,-0.42,0.008,-0.019,9.809,-0.01,0.0,0.0
1776535074.3845634,162.22,-0.06,-0.41,-0.022,-0.061,9.809,-0.01,0.0,-0.01
1776535074.3945777,162.22,-0.07,-0.42,-0.04,-0.101,9.808,0.0,0.0,-0.01
1776535074.4045606,162.22,-0.08,-0.43,-0.068,-0.097,9.809,-0.01,0.0,0.0
1776535074.414153,162.21,-0.09,-0.43,-0.074,-0.091,9.809,0.0,0.0,0.0
1776535074.4241176,162.21,-0.09,-0.43,-0.089,-0.096,9.809,0.0,0.0,0.0
1776535074.4341378,162.21,-0.09,-0.43,-0.108,-0.074,9.809,-0.01,-0.01,0.0
1776535074.4441435,162.21,-0.09,-0.42,-0.109,-0.081,9.809,-0.01,-0.01,0.0
1776535074.454137,162.21,-0.09,-0.43,-0.079,-0.091,9.808,0.0,-0.01,0.0
1776535074.4641352,162.2,-0.08,-0.43,-0.043,-0.062,9.808,0.0,-0.01,0.0
1776535074.4740973,162.2,-0.07,-0.43,0.012,0.026,9.808,-0.01,-0.01,0.0
1776535074.4841027,162.21,-0.06,-0.41,0.11,0.111,9.808,-0.01,-0.01,-0.01
1776535074.494105,162.21,-0.05,-0.42,0.163,0.198,9.809,-0.02,0.0,-0.01
1776535074.5041041,162.21,-0.07,-0.39,0.207,0.285,9.809,-0.02,0.0,-0.01
1776535074.5141063,162.2,-0.08,-0.39,0.244,0.234,9.808,0.0,0.02,0.0
1776535074.5241082,162.18,-0.09,-0.42,0.229,0.308,9.808,-0.02,0.02,0.0
1776535074.5341473,162.18,-0.12,-0.46,0.098,0.363,9.808,-0.04,0.02,0.0
1776535074.5441175,162.18,-0.18,-0.5,-0.046,0.331,9.808,-0.04,0.02,0.0
1776535074.5541146,162.18,-0.24,-0.54,-0.205,0.217,9.808,-0.03,0.02,-0.01
1776535074.5640914,162.2,-0.29,-0.58,-0.332,0.053,9.809,-0.03,0.02,-0.01
1776535074.5741143,162.23,-0.32,-0.64,-0.401,-0.04,9.808,-0.02,0.01,-0.02
1776535074.5840745,162.28,-0.33,-0.67,-0.479,-0.134,9.808,-0.02,-0.01,-0.02
1776535074.5941133,162.34,-0.34,-0.69,-0.423,-0.297,9.809,-0.02,-0.02,-0.03
1776535074.6041033,162.39,-0.32,-0.72,-0.278,-0.416,9.809,0.0,-0.01,-0.04
1776535074.6141107,162.42,-0.27,-0.76,-0.143,-0.489,9.808,-0.01,-0.02,-0.03
1776535074.6241066,162.42,-0.22,-0.78,0.007,-0.514,9.808,-0.01,-0.02,-0.02
1776535074.6341105,162.39,-0.17,-0.78,0.163,-0.502,9.809,0.0,-0.02,0.0
1776535074.6440725,162.34,-0.14,-0.78,0.285,-0.411,9.809,0.01,-0.02,0.02
1776535074.6540947,162.29,-0.11,-0.76,0.341,-0.265,9.809,0.0,-0.01,0.02
1776535074.664121,162.26,-0.11,-0.73,0.36,-0.134,9.809,0.01,0.0,0.02
1776535074.67409,162.25,-0.11,-0.7,0.29,-0.016,9.809,0.01,0.0,0.01
1776535074.6840796,162.24,-0.13,-0.67,0.183,0.105,9.808,0.0,0.01,0.0
1776535074.6940632,162.24,-0.15,-0.63,0.097,0.156,9.808,0.0,0.01,0.0
1776535074.7040582,162.23,-0.19,-0.61,-0.012,0.159,9.808,0.01,0.01,0.0
1776535074.714043,162.23,-0.22,-0.6,-0.115,0.222,9.808,0.0,0.01,0.0
1776535074.72404,162.22,-0.25,-0.58,-0.201,0.255,9.809,-0.01,0.01,0.0
1776535074.7340417,162.21,-0.31,-0.62,-0.651,-1.266,9.809,-0.01,0.0,0.0
1776535074.7440846,162.15,-0.64,-1.36,-0.286,-0.782,9.811,-0.05,0.03,0.01
1776535074.7541118,162.19,-0.57,-1.57,-0.044,-0.304,9.812,-0.27,0.11,0.02
1776535074.7640743,162.29,-0.63,-1.53,-0.437,0.724,9.165,-0.15,-0.01,-0.02
1776535074.7740767,162.45,-0.62,-1.3,-0.338,0.436,8.381,-0.02,-0.02,-0.08
1776535074.7840416,162.58,-0.45,-1.13,0.131,0.153,8.731,0.11,-0.02,-0.09
1776535074.7940767,162.66,-0.27,-1.09,-0.127,-0.117,9.018,0.09,-0.08,-0.07
1776535074.8040736,162.69,-0.22,-1.06,0.089,0.217,9.228,0.02,-0.08,-0.04
1776535074.8140283,162.71,-0.14,-1.05,0.187,0.08,9.382,0.0,-0.02,-0.02
1776535074.8240438,162.65,-0.11,-1.05,0.362,0.147,9.442,-0.01,-0.03,0.0
1776535074.8340628,162.55,-0.01,-1.05,0.707,0.188,9.421,-0.02,-0.01,0.03
1776535074.8440728,162.39,0.09,-1.03,0.844,0.278,9.525,-0.01,-0.03,0.07
1776535074.8540804,162.22,0.12,-0.98,0.704,0.457,9.599,0.0,-0.02,0.09
1776535074.863203,162.11,0.08,-0.92,0.655,0.622,9.654,-0.01,0.0,0.08
1776535074.8732274,162.06,0.03,-0.85,0.527,0.625,9.695,0.0,0.03,0.05
1776535074.884039,162.06,-0.04,-0.77,0.43,0.594,9.724,0.02,0.03,0.02
1776535074.8940637,162.1,-0.1,-0.74,0.305,0.564,9.748,0.02,0.04,-0.01
1776535074.9032066,162.18,-0.17,-0.74,0.14,0.517,9.763,-0.01,0.03,-0.03
1776535074.9132204,162.25,-0.23,-0.73,-0.074,0.366,9.775,-0.02,0.03,-0.05
1776535074.9240432,162.31,-0.3,-0.73,-0.287,0.207,9.785,-0.01,0.02,-0.05
1776535074.934064,162.34,-0.35,-0.75,-0.362,-0.017,9.791,0.0,0.02,-0.03
1776535074.944062,162.34,-0.36,-0.8,-0.439,-0.137,9.796,-0.01,0.0,-0.02
1776535074.9532406,162.31,-0.36,-0.84,-0.422,-0.133,9.799,-0.02,-0.02,0.0
1776535074.964046,162.27,-0.34,-0.85,-0.36,-0.103,9.802,-0.02,-0.02,0.02
1776535074.973207,162.23,-0.31,-0.82,-0.229,-0.038,9.804,-0.01,-0.02,0.02
1776535074.9837022,162.21,-0.27,-0.79,-0.078,-0.001,9.805,0.01,-0.02,0.02
1776535074.9936671,162.21,-0.22,-0.78,0.017,0.037,9.806,0.0,-0.02,0.0
1776535075.0032103,162.22,-0.18,-0.76,0.129,0.123,9.806,0.0,-0.02,-0.01
1776535075.0132103,162.23,-0.16,-0.72,0.219,0.208,9.808,0.0,-0.01,-0.01
1776535075.0232062,162.24,-0.15,-0.66,0.305,0.253,9.806,0.01,0.0,-0.01
1776535075.0332062,162.25,-0.14,-0.64,0.342,0.29,9.808,0.01,0.0,-0.01
1776535075.0432093,162.25,-0.15,-0.61,0.305,0.322,9.808,0.0,0.01,-0.01
1776535075.0532749,162.26,-0.16,-0.6,0.205,0.32,9.809,-0.01,0.01,-0.01
1776535075.0631855,162.26,-0.2,-0.59,0.084,0.293,9.809,-0.01,0.01,-0.01
1776535075.07318,162.27,-0.23,-0.59,0.005,0.218,9.809,-0.01,0.02,-0.01
1776535075.083182,162.27,-0.26,-0.6,-0.09,0.159,9.808,-0.01,0.01,-0.01
1776535075.0932045,162.29,-0.27,-0.62,-0.164,0.092,9.809,-0.02,0.0,-0.01
1776535075.103175,162.3,-0.28,-0.62,-0.213,0.036,9.809,-0.02,-0.01,-0.01
1776535075.1131835,162.31,-0.28,-0.63,-0.208,-0.047,9.809,-0.01,-0.01,-0.01
1776535075.1231844,162.31,-0.27,-0.63,-0.166,-0.092,9.809,0.0,-0.01,-0.01
1776535075.13321,162.31,-0.25,-0.63,-0.093,-0.077,9.809,0.0,-0.02,-0.01
1776535075.1432078,162.3,-0.22,-0.62,-0.006,-0.05,9.809,0.0,-0.02,0.0
1776535075.153211,162.29,-0.2,-0.59,0.085,0.005,9.808,0.0,-0.02,0.0
1776535075.1632028,162.28,-0.17,-0.56,0.166,0.059,9.808,0.01,-0.01,0.01
1776535075.173166,162.26,-0.16,-0.54,0.214,0.119,9.809,0.0,-0.01,0.01
1776535075.1831696,162.25,-0.15,-0.52,0.226,0.192,9.808,0.0,0.0,0.0
1776535075.1931674,162.25,-0.15,-0.49,0.193,0.261,9.808,0.0,0.0,0.0
1776535075.2031882,162.25,-0.16,-0.48,0.135,0.267,9.809,-0.01,0.0,-0.01
1776535075.2131863,162.28,-0.18,-0.47,0.042,0.25,9.808,-0.01,0.0,-0.01
1776535075.223141,162.3,-0.21,-0.46,-0.013,0.2,9.809,-0.01,0.01,-0.02
1776535075.233155,162.32,-0.22,-0.47,-0.053,0.137,9.808,-0.01,0.0,-0.02
1776535075.243168,162.32,-0.24,-0.47,-0.046,0.08,9.808,-0.01,0.0,-0.02
1776535075.2531536,162.32,-0.24,-0.47,-0.065,0.046,9.808,-0.01,0.0,-0.01
1776535075.2631652,162.32,-0.24,-0.47,-0.049,0.025,9.808,-0.01,-0.01,0.0
1776535075.2731664,162.32,-0.23,-0.47,-0.041,0.02,9.808,-0.01,-0.01,0.0
1776535075.2831528,162.31,-0.22,-0.46,-0.012,0.023,9.809,0.0,-0.01,0.0
1776535075.293159,162.31,-0.2,-0.45,0.019,0.041,9.808,0.0,-0.01,0.0
1776535075.303177,162.32,-0.2,-0.44,0.048,0.059,9.808,0.0,-0.01,-0.01
1776535075.3131864,162.33,-0.19,-0.43,0.075,0.062,9.808,0.0,-0.01,-0.01
1776535075.3231487,162.34,-0.19,-0.42,0.101,0.046,9.808,0.0,0.0,-0.01
1776535075.3331313,162.33,-0.18,-0.42,0.11,0.025,9.808,0.0,0.0,-0.01
1776535075.3431306,162.32,-0.18,-0.42,0.09,0.035,9.808,-0.01,0.0,0.0
1776535075.3531203,162.3,-0.19,-0.42,0.057,0.049,9.809,-0.01,0.0,0.0
1776535075.3631787,162.29,-0.18,-0.41,0.025,0.074,9.808,0.0,0.0,0.01
1776535075.3731627,162.29,-0.19,-0.4,0.001,0.087,9.808,-0.01,0.0,0.0
1776535075.3831458,162.29,-0.19,-0.39,-0.007,0.119,9.808,-0.01,-0.01,0.0
1776535075.3931618,162.3,-0.17,-0.38,-0.005,0.114,9.809,-0.01,-0.01,-0.01
1776535075.403115,162.32,-0.17,-0.37,0.007,0.11,9.808,-0.01,-0.02,-0.02
1776535075.4131114,162.34,-0.17,-0.36,0.049,0.097,9.808,0.0,0.0,-0.02
1776535075.423158,162.35,-0.16,-0.36,0.061,0.059,9.809,0.0,0.0,-0.01
1776535075.4331446,162.34,-0.16,-0.36,0.068,0.024,9.808,0.0,0.0,-0.01
1776535075.4430895,162.32,-0.16,-0.36,0.04,0.025,9.808,-0.01,0.0,0.0
1776535075.453148,162.3,-0.17,-0.36,0.031,0.044,9.809,-0.01,0.0,0.01
1776535075.463131,162.29,-0.17,-0.34,0.0,0.071,9.808,-0.01,0.0,0.01
1776535075.4731116,162.29,-0.17,-0.34,0.02,0.11,9.808,0.0,0.0,0.0
1776535075.4831252,162.3,-0.16,-0.33,-0.001,0.117,9.808,-0.01,-0.01,-0.01
1776535075.493146,162.32,-0.17,-0.33,-0.008,0.113,9.808,-0.01,-0.01,-0.02
1776535075.5031452,162.34,-0.17,-0.32,-0.013,0.081,9.808,-0.01,0.0,-0.02
1776535075.5131133,162.35,-0.17,-0.31,-0.011,0.019,9.808,0.0,-0.01,-0.02
1776535075.5231419,162.36,-0.16,-0.32,0.002,0.0,9.808,0.0,0.0,-0.01
1776535075.5331464,162.35,-0.16,-0.32,0.013,0.001,9.809,-0.01,-0.01,0.0
1776535075.543132,162.34,-0.15,-0.31,0.024,0.03,9.808,0.0,-0.01,0.0
1776535075.553115,162.33,-0.15,-0.3,0.047,0.047,9.808,0.0,-0.01,0.0
1776535075.5631227,162.31,-0.14,-0.29,0.044,0.057,9.808,0.0,-0.01,0.0
1776535075.573114,162.31,-0.14,-0.28,0.041,0.09,9.808,0.0,-0.01,0.0
1776535075.583114,162.31,-0.13,-0.28,0.049,0.092,9.808,-0.01,0.0,0.0
1776535075.593567,162.32,-0.13,-0.27,0.051,0.099,9.808,-0.01,0.0,-0.01
1776535075.6035607,162.33,-0.13,-0.26,0.043,0.084,9.808,-0.01,0.0,-0.01
1776535075.6135666,162.34,-0.13,-0.26,0.043,0.062,9.808,-0.01,0.0,-0.01
1776535075.6235597,162.34,-0.13,-0.26,0.022,0.022,9.808,-0.01,0.0,-0.01
1776535075.6335812,162.33,-0.13,-0.27,0.007,0.008,9.808,0.0,0.0,0.0
1776535075.6435812,162.33,-0.14,-0.26,-0.004,0.008,9.808,-0.01,0.0,0.0
1776535075.6531186,162.31,-0.13,-0.26,-0.006,0.018,9.808,0.0,-0.01,0.0
1776535075.6631186,162.3,-0.13,-0.26,-0.001,0.028,9.809,0.0,-0.01,0.0
1776535075.6731136,162.3,-0.12,-0.25,0.001,0.059,9.808,0.0,-0.01,0.0
1776535075.6831152,162.3,-0.12,-0.24,0.014,0.074,9.809,0.0,-0.01,0.0
1776535075.6931136,162.31,-0.11,-0.23,0.038,0.083,9.808,0.0,-0.01,-0.01
1776535075.7031193,162.33,-0.11,-0.22,0.051,0.073,9.808,0.0,-0.01,-0.01
1776535075.7130854,162.35,-0.1,-0.22,0.072,0.089,9.809,0.0,0.0,-0.02
1776535075.7230875,162.37,-0.1,-0.22,0.084,0.086,9.808,-0.01,0.0,-0.02
1776535075.7331011,162.38,-0.1,-0.21,0.072,0.034,9.808,-0.01,0.0,-0.02
1776535075.743091,162.38,-0.11,-0.22,0.063,0.0,9.808,-0.01,0.0,-0.01
1776535075.7530856,162.37,-0.11,-0.23,0.043,-0.012,9.808,-0.01,0.0,0.0
1776535075.763085,162.35,-0.11,-0.23,0.014,-0.004,9.809,-0.01,-0.01,0.01
1776535075.7730997,162.33,-0.11,-0.23,-0.004,0.022,9.808,-0.01,0.0,0.01
1776535075.783117,162.32,-0.11,-0.22,-0.03,0.035,9.808,-0.01,-0.01,0.01
1776535075.7931142,162.32,-0.12,-0.22,-0.035,0.047,9.808,0.0,-0.01,0.0
1776535075.8030748,162.33,-0.11,-0.21,-0.042,0.041,9.808,0.0,-0.01,-0.01
1776535075.8130531,162.35,-0.11,-0.2,-0.03,0.019,9.809,0.0,-0.01,-0.01
1776535075.823059,162.35,-0.11,-0.2,-0.02,0.004,9.808,0.0,-0.01,-0.01
1776535075.8330524,162.36,-0.1,-0.2,0.019,-0.014,9.808,0.0,-0.01,-0.01
1776535075.8430557,162.35,-0.09,-0.2,0.042,-0.02,9.809,0.0,-0.01,-0.01
1776535075.852249,162.34,-0.09,-0.2,0.069,0.0,9.808,0.0,-0.01,0.0
1776535075.863041,162.32,-0.08,-0.19,0.072,0.04,9.808,-0.01,-0.01,0.01
1776535075.873054,162.31,-0.07,-0.19,0.057,0.085,9.808,-0.01,-0.01,0.01
1776535075.8830638,162.31,-0.08,-0.17,0.049,0.111,9.808,-0.01,0.0,0.0
1776535075.8930464,162.32,-0.08,-0.16,0.026,0.109,9.808,0.0,0.0,-0.01
1776535075.9022408,162.33,-0.09,-0.16,0.004,0.077,9.808,0.0,0.0,-0.01
1776535075.9130774,162.35,-0.1,-0.16,-0.02,0.044,9.808,0.0,0.0,-0.02
1776535075.9230778,162.35,-0.1,-0.16,-0.037,0.005,9.808,0.0,0.0,-0.01
1776535075.9330778,162.35,-0.1,-0.16,-0.035,-0.007,9.809,0.0,0.0,-0.01
1776535075.9430628,162.34,-0.1,-0.16,-0.018,-0.017,9.808,0.0,0.0,0.0
1776535075.9530585,162.33,-0.09,-0.16,-0.008,0.023,9.808,-0.01,-0.01,0.0
1776535075.96309,162.31,-0.09,-0.16,0.007,0.053,9.808,-0.01,-0.01,0.01
1776535075.9730551,162.31,-0.08,-0.14,0.034,0.075,9.808,0.0,-0.01,0.0
1776535075.9830542,162.32,-0.07,-0.14,0.035,0.067,9.808,0.0,-0.01,-0.01
1776535075.993054,162.33,-0.07,-0.14,0.036,0.066,9.808,-0.01,-0.01,-0.01
1776535076.0030549,162.35,-0.08,-0.14,0.043,0.028,9.808,0.0,0.0,-0.02
1776535076.0130394,162.36,-0.08,-0.14,0.035,-0.023,9.808,0.0,0.0,-0.01
1776535076.0222352,162.35,-0.08,-0.14,0.023,-0.038,9.808,0.0,0.0,-0.01
1776535076.0322301,162.35,-0.08,-0.14,0.024,-0.025,9.808,-0.01,0.0,0.0
1776535076.0422175,162.33,-0.08,-0.14,0.01,0.001,9.808,0.0,-0.01,0.0
1776535076.0521908,162.32,-0.08,-0.13,0.001,0.04,9.808,0.0,-0.01,0.01
1776535076.0630357,162.31,-0.07,-0.12,0.002,0.075,9.808,0.0,0.0,0.0
1776535076.0722408,162.32,-0.07,-0.11,0.004,0.061,9.808,0.0,-0.01,0.0
1776535076.0822163,162.33,-0.07,-0.11,0.008,0.072,9.808,0.0,-0.01,-0.01
1776535076.0922177,162.34,-0.07,-0.1,0.014,0.068,9.808,-0.01,-0.01,-0.01
1776535076.1022146,162.35,-0.07,-0.1,0.022,0.072,9.808,-0.01,0.0,-0.02
1776535076.1122375,162.37,-0.07,-0.1,0.037,0.018,9.808,0.0,0.0,-0.02
1776535076.1222432,162.37,-0.07,-0.11,0.036,-0.001,9.808,-0.01,0.0,-0.01
1776535076.1322432,162.35,-0.07,-0.12,0.028,-0.029,9.808,-0.01,0.0,0.0
1776535076.14223,162.34,-0.07,-0.12,0.019,-0.024,9.808,-0.01,0.0,0.0
1776535076.152245,162.33,-0.07,-0.12,0.005,-0.004,9.808,0.0,-0.01,0.01
1776535076.1622314,162.32,-0.07,-0.11,-0.004,0.023,9.808,-0.01,-0.01,0.01
1776535076.1722138,162.32,-0.07,-0.1,-0.01,0.048,9.808,-0.01,0.0,0.0
1776535076.182179,162.33,-0.06,-0.1,-0.017,0.051,9.808,0.0,-0.01,-0.01
1776535076.1921737,162.35,-0.06,-0.09,-0.012,0.048,9.808,0.0,-0.01,-0.02
1776535076.202176,162.36,-0.06,-0.09,-0.002,0.016,9.808,0.0,-0.01,-0.02
1776535076.2121942,162.37,-0.06,-0.09,0.014,0.002,9.808,0.0,-0.01,-0.01
1776535076.2221887,162.36,-0.06,-0.1,0.031,-0.024,9.808,-0.01,-0.01,-0.01
1776535076.2322094,162.34,-0.05,-0.1,0.053,-0.022,9.808,-0.01,-0.01,0.0
1776535076.242198,162.31,-0.04,-0.1,0.066,0.001,9.808,0.0,-0.01,0.01
1776535076.2521713,162.29,-0.04,-0.1,0.05,0.03,9.808,-0.01,-0.01,0.01
1776535076.2621715,162.28,-0.04,-0.09,0.036,0.056,9.808,-0.01,-0.01,0.01
1776535076.272224,162.28,-0.04,-0.09,0.029,0.06,9.808,-0.01,0.0,0.0
1776535076.2822104,162.3,-0.04,-0.09,0.012,0.046,9.808,0.0,0.0,-0.01
1776535076.2922127,162.32,-0.04,-0.09,-0.008,0.019,9.808,0.0,-0.01,-0.02
1776535076.3021765,162.34,-0.04,-0.09,-0.016,0.004,9.808,-0.01,0.0,-0.02
1776535076.312166,162.35,-0.05,-0.08,-0.02,-0.031,9.808,0.0,-0.01,-0.02
1776535076.3222187,162.35,-0.05,-0.08,-0.002,-0.063,9.808,0.0,0.0,-0.01
1776535076.3321786,162.33,-0.04,-0.09,0.024,-0.042,9.808,0.0,-0.01,0.0
1776535076.34216,162.3,-0.03,-0.09,0.02,0.004,9.808,-0.01,-0.01,0.01
1776535076.352169,162.29,-0.03,-0.08,0.028,0.049,9.808,-0.01,-0.01,0.01
1776535076.3621566,162.28,-0.03,-0.07,0.032,0.068,9.808,0.0,0.0,0.01
1776535076.372153,162.29,-0.03,-0.07,0.023,0.083,9.808,-0.01,-0.01,0.0
1776535076.3821676,162.31,-0.03,-0.07,0.005,0.084,9.808,-0.01,-0.01,-0.01
1776535076.392165,162.33,-0.03,-0.07,-0.006,0.05,9.808,-0.01,0.0,-0.02
1776535076.4021578,162.35,-0.04,-0.07,0.005,-0.006,9.808,0.0,0.0,-0.02
1776535076.41216,162.35,-0.03,-0.08,0.019,-0.05,9.808,0.0,0.0,-0.01
1776535076.4221613,162.34,-0.03,-0.09,0.01,-0.057,9.808,-0.01,-0.01,0.0
1776535076.4321544,162.32,-0.03,-0.09,0.0,-0.04,9.808,-0.01,-0.01,0.0
1776535076.44216,162.3,-0.03,-0.09,-0.001,-0.026,9.809,0.0,0.0,0.01
1776535076.452135,162.29,-0.03,-0.07,0.008,0.0,9.808,0.0,-0.01,0.01
1776535076.4621913,162.3,-0.02,-0.07,0.013,0.051,9.808,0.0,-0.01,0.0
1776535076.472157,162.3,-0.02,-0.07,0.016,0.079,9.808,-0.01,-0.01,-0.01
1776535076.48216,162.33,-0.02,-0.06,0.016,0.059,9.808,-0.01,0.0,-0.02
1776535076.4921577,162.34,-0.02,-0.06,0.031,0.014,9.808,0.0,0.0,-0.02
1776535076.5021439,162.35,-0.02,-0.07,0.03,0.004,9.808,0.0,0.0,-0.01
1776535076.5121565,162.35,-0.02,-0.07,0.014,0.004,9.808,-0.01,-0.01,-0.01
1776535076.5221603,162.34,-0.02,-0.07,0.001,-0.014,9.808,-0.01,0.0,0.0
1776535076.5321305,162.32,-0.03,-0.07,0.012,-0.028,9.808,0.0,0.0,0.0
1776535076.5421324,162.3,-0.02,-0.07,0.004,-0.008,9.808,0.0,0.0,0.01
1776535076.5521615,162.29,-0.02,-0.07,-0.013,0.047,9.808,-0.01,-0.01,0.01
1776535076.562161,162.29,-0.02,-0.06,-0.016,0.087,9.808,-0.01,-0.01,0.0
1776535076.5721748,162.3,-0.02,-0.05,-0.024,0.073,9.809,-0.01,-0.01,-0.01
1776535076.5821986,162.33,-0.02,-0.05,-0.002,0.068,9.808,0.0,0.0,-0.02
1776535076.5921612,162.35,-0.02,-0.05,0.007,0.026,9.808,0.0,0.0,-0.02
1776535076.602161,162.37,-0.02,-0.05,0.023,0.0,9.808,-0.01,0.0,-0.02
1776535076.61216,162.37,-0.02,-0.06,0.038,-0.037,9.808,-0.01,0.0,-0.02
1776535076.6221597,162.37,-0.02,-0.06,0.044,-0.044,9.808,0.0,0.0,-0.01
1776535076.6321423,162.35,-0.02,-0.07,0.04,-0.042,9.808,-0.01,0.0,0.0
1776535076.6421294,162.35,-0.02,-0.07,0.022,-0.006,9.808,-0.01,0.0,0.0
1776535076.6521285,162.34,-0.02,-0.07,0.011,0.028,9.808,-0.01,0.0,0.0
1776535076.6621296,162.33,-0.02,-0.06,-0.007,0.042,9.808,0.0,-0.01,0.0
1776535076.672126,162.34,-0.02,-0.06,-0.016,0.066,9.808,0.0,-0.01,-0.01
1776535076.68213,162.36,-0.02,-0.05,-0.023,0.077,9.808,-0.01,-0.01,-0.01
1776535076.6921291,162.37,-0.03,-0.05,-0.026,0.057,9.808,-0.01,-0.01,-0.02
1776535076.7021303,162.38,-0.03,-0.05,-0.018,0.023,9.808,0.0,0.0,-0.02
1776535076.7121139,162.39,-0.03,-0.05,0.006,-0.002,9.808,0.0,0.0,-0.01
1776535076.722131,162.38,-0.03,-0.05,0.017,-0.02,9.808,-0.01,0.0,-0.01
1776535076.7321222,162.37,-0.02,-0.05,0.041,-0.018,9.808,0.0,-0.01,0.0
1776535076.7421134,162.36,-0.02,-0.05,0.038,-0.014,9.808,0.0,-0.01,0.0
1776535076.7521431,162.36,-0.02,-0.05,0.047,-0.01,9.808,0.0,0.0,0.0
1776535076.7621467,162.36,-0.02,-0.05,0.046,-0.011,9.808,0.0,0.0,0.0
1776535076.772128,162.36,-0.03,-0.04,0.04,-0.017,9.808,0.0,0.0,-0.01
1776535076.78213,162.36,-0.03,-0.04,0.023,-0.034,9.808,0.0,0.0,-0.01
1776535076.7921317,162.36,-0.03,-0.03,-0.002,-0.022,9.808,0.0,0.0,-0.01
1776535076.8021495,162.36,-0.04,-0.02,-0.019,-0.016,9.808,0.0,0.0,-0.01
1776535076.8121402,162.36,-0.04,-0.01,-0.025,-0.016,9.808,0.0,0.0,0.0
1776535076.822133,162.35,-0.05,-0.01,-0.032,-0.012,9.808,0.0,0.0,0.0
1776535076.8320835,162.35,-0.05,0.0,-0.008,0.005,9.808,0.0,0.0,0.0
1776535076.8421414,162.35,-0.05,0.01,0.012,0.008,9.809,0.0,0.0,0.0
1776535076.8521008,162.35,-0.04,0.01,0.025,0.046,9.808,0.0,-0.01,0.0
1776535076.8621016,162.35,-0.04,0.02,0.01,0.035,9.809,0.0,-0.01,0.0
1776535076.8720822,162.35,-0.04,0.04,0.028,0.022,9.808,0.0,0.0,-0.01
1776535076.882084,162.35,-0.04,0.04,0.035,-0.025,9.808,0.0,0.0,-0.01
1776535076.8921316,162.35,-0.04,0.04,0.053,-0.063,9.808,0.0,0.0,0.0
1776535076.9020905,162.35,-0.04,0.03,0.066,-0.053,9.808,0.0,0.0,0.0
1776535076.9121,162.35,-0.04,0.03,0.062,-0.018,9.808,-0.01,-0.01,0.0
1776535076.9220848,162.35,-0.04,0.03,0.056,0.005,9.808,-0.01,0.0,-0.01
1776535076.932083,162.36,-0.04,0.04,0.071,-0.008,9.808,0.0,0.0,-0.01
1776535076.9420698,162.37,-0.04,0.03,0.061,0.005,9.808,0.0,0.0,-0.01
1776535076.9520826,162.39,-0.04,0.04,0.046,-0.005,9.808,-0.01,0.0,-0.02
1776535076.9620914,162.4,-0.05,0.04,0.047,-0.042,9.808,0.0,0.0,-0.02
1776535076.9724877,162.4,-0.06,0.04,0.023,-0.062,9.808,0.0,0.0,-0.01
1776535076.9825625,162.39,-0.07,0.03,0.014,-0.071,9.808,0.0,0.0,0.0
1776535076.9925494,162.37,-0.07,0.03,0.0,-0.038,9.808,-0.01,0.0,0.0
1776535077.0025303,162.35,-0.07,0.03,-0.012,0.017,9.808,-0.01,0.0,0.01
1776535077.0129495,162.35,-0.07,0.04,-0.036,0.069,9.808,0.0,-0.01,0.0
1776535077.022977,162.36,-0.08,0.05,-0.035,0.087,9.808,-0.01,-0.01,0.0
1776535077.0323193,162.37,-0.08,0.05,-0.042,0.061,9.808,-0.01,-0.01,-0.01
1776535077.042087,162.39,-0.08,0.05,-0.011,0.0,9.808,0.0,-0.01,-0.02
1776535077.052231,162.39,-0.07,0.04,0.01,-0.06,9.808,0.0,-0.01,-0.01
1776535077.062098,162.38,-0.07,0.02,0.042,-0.085,9.808,-0.01,-0.01,-0.01
1776535077.0722358,162.37,-0.06,0.02,0.046,-0.075,9.808,-0.01,-0.01,0.0
1776535077.0820775,162.35,-0.05,0.02,0.057,-0.029,9.809,-0.01,0.0,0.01
1776535077.0912337,162.35,-0.04,0.01,0.057,0.08,9.808,-0.01,-0.01,0.01
1776535077.1020758,162.35,-0.04,0.01,-0.001,0.095,9.808,-0.01,-0.01,0.0
1776535077.1122322,162.37,-0.04,-0.01,-0.025,0.078,9.808,-0.02,0.0,-0.01
1776535077.12121,162.39,-0.04,-0.02,-0.084,0.057,9.808,-0.02,-0.01,-0.02
1776535077.131234,162.39,-0.05,-0.02,-0.074,0.012,9.808,-0.01,-0.01,-0.01
1776535077.1420798,162.39,-0.04,-0.04,-0.048,-0.038,9.808,-0.01,-0.01,-0.01
1776535077.1522417,162.37,-0.03,-0.05,-0.004,-0.078,9.808,-0.01,-0.01,0.0
1776535077.161212,162.35,-0.01,-0.06,-0.001,-0.079,9.808,-0.01,-0.01,0.01
1776535077.1712272,162.33,-0.0,-0.07,0.004,-0.074,9.808,-0.01,-0.01,0.01
1776535077.1812239,162.32,0.0,-0.06,0.038,-0.044,9.808,0.0,-0.01,0.01
1776535077.1912315,162.31,0.02,-0.06,0.06,0.0,9.808,0.0,-0.01,0.01
1776535077.201235,162.32,0.03,-0.05,0.067,0.017,9.808,0.0,-0.01,0.0
1776535077.211208,162.33,0.03,-0.05,0.081,0.031,9.808,0.0,-0.01,-0.01
1776535077.2212286,162.35,0.03,-0.04,0.085,0.016,9.808,0.0,0.0,-0.02
1776535077.2312078,162.35,0.02,-0.04,0.077,-0.018,9.808,0.0,0.0,-0.02
1776535077.2412298,162.35,0.01,-0.04,0.061,-0.028,9.809,0.0,0.0,-0.01
1776535077.251271,162.33,0.01,-0.04,0.04,-0.016,9.808,-0.01,0.0,0.0
1776535077.261211,162.32,0.01,-0.04,-0.004,-0.001,9.808,-0.01,0.0,0.01
1776535077.2711968,162.3,0.0,-0.04,-0.029,0.041,9.809,-0.01,0.0,0.01
1776535077.2811916,162.3,-0.01,-0.03,-0.04,0.054,9.809,0.0,0.0,0.0
1776535077.291189,162.31,-0.0,-0.03,-0.048,0.054,9.808,0.0,0.0,-0.01
1776535077.3011906,162.33,-0.0,-0.03,-0.055,0.032,9.808,0.0,-0.01,-0.01
1776535077.3111897,162.34,-0.0,-0.03,-0.043,0.022,9.808,-0.01,-0.01,-0.02
1776535077.3212082,162.35,-0.0,-0.02,-0.017,-0.018,9.808,0.0,-0.01,-0.01
1776535077.3312101,162.34,0.0,-0.03,0.008,-0.041,9.808,0.0,-0.01,-0.01
1776535077.3412077,162.33,0.01,-0.04,0.032,-0.051,9.808,-0.01,-0.01,0.0
1776535077.35119,162.31,0.02,-0.04,0.046,-0.03,9.808,-0.01,-0.01,0.01
1776535077.3611677,162.3,0.02,-0.04,0.04,-0.01,9.808,-0.01,-0.01,0.01
1776535077.3711896,162.29,0.02,-0.04,0.037,-0.005,9.808,-0.01,-0.01,0.0
1776535077.381207,162.3,0.02,-0.04,0.032,0.008,9.808,-0.01,0.0,0.0
1776535077.3912108,162.3,0.02,-0.04,0.011,-0.013,9.809,-0.01,-0.01,-0.01
1776535077.4011674,162.31,0.02,-0.05,0.0,-0.02,9.808,-0.01,-0.01,-0.01
1776535077.4111798,162.31,0.01,-0.05,-0.012,-0.037,9.808,-0.01,-0.01,-0.01
1776535077.4211898,162.3,0.02,-0.05,-0.011,-0.014,9.808,-0.01,-0.01,-0.01
1776535077.4311914,162.3,0.02,-0.05,-0.013,0.0,9.808,-0.01,-0.01,0.0
1776535077.4412222,162.29,0.02,-0.05,-0.011,0.035,9.808,-0.01,-0.01,0.0
1776535077.4511907,162.28,0.02,-0.05,-0.02,0.056,9.808,-0.01,-0.01,0.0
1776535077.4611933,162.28,0.02,-0.04,-0.022,0.084,9.808,-0.01,-0.01,0.0
1776535077.4711232,162.29,0.03,-0.04,0.0,0.087,9.808,-0.01,-0.01,-0.01
1776535077.4811528,162.3,0.03,-0.05,0.004,0.042,9.808,-0.01,-0.01,-0.01
1776535077.491148,162.32,0.03,-0.05,0.006,0.007,9.808,-0.01,-0.01,-0.02
1776535077.5011673,162.33,0.03,-0.06,0.012,-0.025,9.808,-0.01,-0.01,-0.01
1776535077.5111876,162.32,0.03,-0.07,0.019,-0.05,9.808,-0.01,-0.01,-0.01
1776535077.5211687,162.3,0.03,-0.08,0.019,-0.049,9.809,-0.01,0.0,0.0
1776535077.5311658,162.29,0.04,-0.08,0.017,-0.041,9.808,-0.01,0.0,0.01
1776535077.5411983,162.28,0.03,-0.08,-0.001,-0.004,9.808,-0.01,-0.01,0.01
1776535077.5511844,162.28,0.02,-0.07,-0.01,0.036,9.808,0.0,0.0,0.0
1776535077.561171,162.28,0.02,-0.06,-0.017,0.053,9.808,0.0,0.0,-0.01
1776535077.5711687,162.3,0.02,-0.05,-0.025,0.038,9.809,0.0,0.0,-0.02
1776535077.5811372,162.33,0.02,-0.05,-0.019,0.012,9.808,0.0,0.0,-0.02
1776535077.5911725,162.34,0.02,-0.05,-0.016,-0.028,9.808,0.0,-0.01,-0.02
1776535077.6011689,162.34,0.02,-0.06,-0.008,-0.049,9.808,0.0,-0.01,-0.01
1776535077.6112044,162.33,0.02,-0.06,0.008,-0.02,9.808,-0.01,-0.01,0.0
1776535077.6211395,162.31,0.03,-0.05,0.022,0.0,9.808,0.0,-0.01,0.0
1776535077.6311407,162.3,0.02,-0.05,0.028,0.032,9.808,-0.01,0.0,0.01
1776535077.6411366,162.28,0.02,-0.05,0.022,0.05,9.808,-0.01,0.0,0.0
1776535077.651172,162.28,0.02,-0.05,0.023,0.04,9.808,0.0,0.0,0.0
1776535077.6611395,162.29,0.02,-0.04,0.01,0.046,9.808,0.0,0.0,0.0
1776535077.6711497,162.3,0.02,-0.04,0.0,0.046,9.808,-0.01,-0.01,-0.01
1776535077.6811395,162.33,0.01,-0.04,-0.019,0.024,9.808,-0.01,0.0,-0.02
1776535077.6911385,162.34,0.0,-0.04,-0.008,-0.016,9.808,0.0,0.0,-0.02
1776535077.7011418,162.35,0.0,-0.04,-0.028,-0.074,9.808,0.0,0.0,-0.01
1776535077.711141,162.34,0.0,-0.04,-0.007,-0.075,9.808,0.0,0.0,-0.01
1776535077.7211468,162.33,0.0,-0.04,0.011,-0.05,9.808,0.0,0.0,0.0
1776535077.7311273,162.3,-0.0,-0.03,0.018,-0.013,9.809,0.0,0.0,0.01
1776535077.741146,162.29,-0.0,-0.01,0.037,0.03,9.808,0.0,0.0,0.01
1776535077.7510684,162.28,0.0,0.0,0.047,0.046,9.808,0.0,0.0,0.01
1776535077.7611413,162.28,0.0,0.01,0.053,0.075,9.808,0.0,0.0,0.0
1776535077.771142,162.3,-0.01,0.01,0.022,0.101,9.809,-0.01,0.0,-0.01
1776535077.7811425,162.33,-0.02,0.02,0.017,0.065,9.808,-0.01,0.0,-0.02
1776535077.7911096,162.35,-0.02,0.02,-0.007,0.013,9.808,0.0,0.0,-0.02
1776535077.801111,162.37,-0.03,0.01,-0.007,-0.028,9.808,0.0,0.0,-0.02
1776535077.8111103,162.37,-0.03,0.0,-0.017,-0.073,9.808,-0.01,0.0,-0.01
1776535077.8211439,162.35,-0.03,0.0,-0.002,-0.057,9.808,0.0,-0.01,0.0
1776535077.8311427,162.33,-0.03,0.0,0.006,-0.059,9.808,0.0,0.0,0.01
1776535077.8411453,162.31,-0.02,0.0,0.03,-0.008,9.808,0.0,-0.01,0.01
1776535077.8511286,162.3,-0.01,0.0,0.034,0.036,9.808,-0.01,-0.01,0.01
1776535077.8611462,162.32,-0.01,0.01,0.029,0.048,9.808,-0.01,-0.01,0.0
1776535077.871111,162.34,-0.01,0.0,0.029,0.024,9.808,-0.01,0.0,-0.02
1776535077.8811111,162.36,-0.01,0.0,0.011,-0.011,9.808,-0.01,0.0,-0.02
1776535077.8911426,162.37,-0.01,-0.01,-0.005,-0.055,9.808,-0.01,-0.01,-0.02
1776535077.901144,162.37,-0.01,-0.03,-0.017,-0.08,9.808,-0.01,-0.01,-0.01
1776535077.9110968,162.35,-0.01,-0.04,-0.022,-0.068,9.808,-0.01,-0.01,0.0
1776535077.9211159,162.33,-0.0,-0.05,-0.024,-0.032,9.808,-0.01,-0.01,0.01
1776535077.9315348,162.31,0.01,-0.05,-0.019,0.008,9.808,-0.01,-0.01,0.01
1776535077.941155,162.3,0.01,-0.06,-0.012,0.059,9.809,-0.01,-0.01,0.01
1776535077.9512339,162.3,0.02,-0.05,-0.017,0.083,9.809,-0.01,-0.01,0.0
1776535077.9610949,162.31,0.02,-0.05,-0.011,0.083,9.808,-0.01,-0.01,-0.01
1776535077.9710996,162.33,0.03,-0.05,0.005,0.049,9.808,-0.01,-0.01,-0.01
1776535077.9810958,162.35,0.03,-0.05,0.032,0.018,9.808,0.0,-0.01,-0.02
1776535077.9910982,162.35,0.04,-0.06,0.04,-0.005,9.808,-0.01,-0.01,-0.01
1776535078.0011497,162.36,0.04,-0.06,0.044,-0.016,9.808,-0.01,-0.01,-0.01
1776535078.011136,162.35,0.04,-0.07,0.054,-0.031,9.808,-0.01,0.0,-0.01
1776535078.021097,162.34,0.04,-0.07,0.047,-0.035,9.808,0.0,0.0,0.0
1776535078.031111,162.33,0.04,-0.08,0.03,0.001,9.808,-0.01,-0.01,0.01
1776535078.041113,162.32,0.04,-0.08,0.005,0.057,9.808,-0.01,-0.01,0.01
1776535078.051111,162.32,0.03,-0.07,-0.025,0.071,9.808,-0.01,-0.01,0.0
1776535078.061118,162.33,0.03,-0.06,-0.035,0.059,9.808,0.0,0.0,-0.01
1776535078.0702887,162.35,0.02,-0.07,-0.053,0.011,9.808,-0.01,-0.01,-0.01
1776535078.0810819,162.35,0.02,-0.07,-0.057,-0.029,9.809,-0.01,-0.01,-0.01
1776535078.091084,162.35,0.02,-0.07,-0.034,-0.038,9.808,0.0,-0.01,-0.01
1776535078.1010816,162.34,0.03,-0.07,-0.01,-0.032,9.808,0.0,-0.01,0.0
1776535078.1110847,162.32,0.03,-0.06,0.016,-0.025,9.808,0.0,-0.01,0.0
1776535078.121081,162.3,0.04,-0.06,0.041,-0.005,9.809,0.0,-0.01,0.01
1776535078.1310656,162.29,0.04,-0.05,0.049,0.012,9.808,0.0,-0.01,0.01
1776535078.1402476,162.28,0.04,-0.04,0.041,0.047,9.808,0.0,0.0,0.0
1776535078.151079,162.29,0.04,-0.04,0.037,0.057,9.808,0.0,0.0,0.0
1776535078.1602762,162.3,0.04,-0.03,0.012,0.079,9.808,0.0,0.0,-0.01
1776535078.170249,162.31,0.03,-0.01,0.005,0.01,9.808,0.0,0.0,-0.01
1776535078.180245,162.33,0.02,-0.01,0.013,-0.051,9.808,0.01,0.0,-0.02
1776535078.191095,162.32,0.02,-0.02,-0.014,-0.108,9.808,0.0,0.0,-0.01
1776535078.2010932,162.3,0.01,-0.02,-0.004,-0.097,9.809,0.0,0.0,0.0
1776535078.210242,162.28,0.01,-0.0,0.011,-0.095,9.808,0.01,0.0,0.01
1776535078.2202463,162.26,0.0,0.01,0.046,-0.069,9.808,0.01,0.0,0.01
1776535078.2302504,162.25,0.0,0.02,0.051,-0.008,9.808,0.0,0.0,0.01
1776535078.2402427,162.26,0.01,0.04,0.057,0.042,9.808,0.0,0.0,0.0
1776535078.2511058,162.29,0.0,0.06,0.041,0.066,9.808,0.0,0.0,-0.01
1776535078.2602694,162.32,-0.01,0.07,0.041,0.047,9.808,0.0,0.0,-0.02
1776535078.270225,162.35,-0.02,0.07,0.025,0.034,9.808,0.0,0.0,-0.02
1776535078.2802565,162.36,-0.03,0.06,0.025,0.016,9.808,0.0,0.0,-0.02
1776535078.2902238,162.37,-0.03,0.05,0.001,0.007,9.808,-0.01,0.0,-0.02
1776535078.3002658,162.37,-0.04,0.05,-0.007,0.018,9.808,-0.01,0.0,-0.01
1776535078.3102252,162.35,-0.04,0.05,-0.014,0.041,9.808,-0.01,0.0,0.0
1776535078.320251,162.35,-0.04,0.04,-0.013,0.028,9.808,-0.01,0.0,0.0
1776535078.3302295,162.35,-0.04,0.04,-0.018,0.04,9.808,-0.01,0.0,0.0
1776535078.3402236,162.35,-0.04,0.04,-0.032,0.068,9.808,-0.01,0.0,0.0
1776535078.366052,162.35,-0.05,0.04,-0.024,0.01,9.808,-0.01,-0.01,-0.01
1776535078.3796096,162.36,-0.05,0.02,-0.031,-0.02,9.808,0.0,-0.01,-0.01
1776535078.38473,162.37,-0.03,0.01,-0.037,-0.038,9.808,-0.01,-0.01,-0.01
1776535078.3925936,162.38,-0.03,-0.01,-0.047,-0.042,9.808,-0.01,-0.01,-0.01
1776535078.3997786,162.38,-0.03,-0.01,-0.017,-0.062,9.808,-0.01,-0.01,-0.01
1776535078.4062839,162.37,-0.01,-0.03,0.0,-0.114,9.808,0.0,-0.01,0.0
1776535078.41027,162.35,-0.0,-0.05,-0.013,-0.085,9.808,-0.01,-0.01,0.0
1776535078.4209986,162.33,0.01,-0.05,-0.018,-0.053,9.808,-0.02,-0.02,0.01
1776535078.4304323,162.3,0.01,-0.04,0.019,-0.043,9.808,0.0,-0.01,0.02
1776535078.4411266,162.28,0.02,-0.04,0.054,0.004,9.808,0.0,-0.01,0.01
1776535078.4505343,162.29,0.04,-0.04,0.047,0.061,9.808,-0.01,-0.01,0.0
1776535078.4602432,162.3,0.04,-0.03,0.054,0.085,9.808,-0.01,-0.01,-0.01
1776535078.4706407,162.33,0.03,-0.02,0.043,0.072,9.808,0.0,0.0,-0.02
1776535078.4802477,162.35,0.03,-0.01,0.042,0.008,9.808,0.0,0.0,-0.02
1776535078.4902024,162.36,0.03,-0.02,0.05,-0.028,9.808,0.0,0.0,-0.02
1776535078.5002992,162.35,0.02,-0.03,0.034,-0.036,9.808,-0.01,0.0,-0.01
1776535078.5117745,162.33,0.02,-0.03,-0.002,-0.014,9.808,-0.01,-0.01,0.0
1776535078.520559,162.3,0.02,-0.03,-0.014,0.018,9.809,-0.01,0.0,0.01
1776535078.5303414,162.28,0.02,-0.03,-0.02,0.044,9.808,-0.01,0.0,0.01
1776535078.5401967,162.28,0.02,-0.03,-0.03,0.067,9.808,-0.01,-0.01,0.01
1776535078.55137,162.29,0.02,-0.03,-0.05,0.092,9.808,-0.01,-0.01,0.0
1776535078.5602107,162.31,0.01,-0.03,-0.046,0.066,9.808,-0.01,-0.01,-0.02
1776535078.570229,162.34,0.02,-0.04,-0.04,0.035,9.808,-0.01,-0.01,-0.02
1776535078.5815673,162.36,0.01,-0.04,-0.031,-0.035,9.808,-0.01,-0.01,-0.02
1776535078.5912054,162.37,0.02,-0.05,-0.004,-0.093,9.808,0.0,-0.01,-0.02
1776535078.6013303,162.36,0.03,-0.06,0.036,-0.109,9.808,0.0,0.0,-0.01
1776535078.6103582,162.34,0.03,-0.05,0.051,-0.102,9.808,0.0,-0.01,0.0
1776535078.620269,162.32,0.03,-0.05,0.073,-0.069,9.808,0.0,0.0,0.01
1776535078.632044,162.3,0.04,-0.05,0.069,-0.008,9.808,0.0,0.0,0.01
1776535078.6412978,162.29,0.04,-0.04,0.038,0.037,9.808,0.0,-0.01,0.01
1776535078.6505952,162.29,0.02,-0.03,0.028,0.053,9.808,0.0,0.0,0.0
1776535078.6609554,162.3,0.02,-0.02,0.008,0.057,9.809,0.0,0.0,-0.01
1776535078.671567,162.32,0.02,-0.02,-0.01,0.049,9.808,0.0,0.0,-0.01
1776535078.6816084,162.33,0.01,-0.02,-0.035,0.032,9.808,0.0,0.0,-0.02
1776535078.6902087,162.34,0.0,-0.02,-0.035,0.022,9.808,-0.01,0.0,-0.01
1776535078.7003589,162.34,0.0,-0.03,-0.048,-0.017,9.808,-0.01,-0.01,-0.01
1776535078.7115417,162.33,0.0,-0.03,-0.04,-0.019,9.808,-0.01,-0.01,0.0
1776535078.7204788,162.32,0.0,-0.04,-0.04,-0.023,9.808,-0.01,-0.01,0.0
1776535078.7305224,162.3,0.01,-0.04,-0.01,0.002,9.808,-0.01,-0.01,0.0
1776535078.7401705,162.3,0.02,-0.03,0.005,0.023,9.808,0.0,-0.01,0.0
1776535078.750232,162.3,0.01,-0.02,0.03,0.032,9.808,0.0,-0.01,0.0
1776535078.7601733,162.3,0.01,-0.02,0.056,0.026,9.809,0.0,0.0,-0.01
1776535078.7705996,162.31,0.02,-0.02,0.059,0.04,9.808,0.0,0.0,-0.01
1776535078.7801886,162.33,0.02,-0.02,0.031,0.044,9.808,-0.01,0.0,-0.01
1776535078.7901993,162.35,0.0,-0.01,0.022,0.024,9.808,-0.01,0.0,-0.02
1776535078.8001678,162.35,-0.0,-0.01,0.01,-0.023,9.808,0.0,0.0,-0.02
1776535078.810178,162.36,-0.0,-0.01,-0.004,-0.079,9.808,0.0,0.0,-0.01
1776535078.82017,162.35,-0.0,-0.03,-0.001,-0.067,9.808,-0.01,0.0,0.0
1776535078.8304303,162.33,-0.0,-0.03,0.001,-0.051,9.808,-0.01,-0.01,0.0
1776535078.8402805,162.32,-0.0,-0.02,0.012,-0.032,9.808,0.0,0.0,0.01
1776535078.8501592,162.3,-0.0,-0.01,0.019,-0.011,9.808,0.0,-0.01,0.01
1776535078.8601732,162.31,-0.0,-0.01,0.01,0.008,9.808,0.0,0.0,0.0
1776535078.8701715,162.32,-0.0,-0.01,0.006,0.017,9.808,0.0,-0.01,-0.01
1776535078.8801782,162.33,-0.01,0.0,-0.001,0.008,9.808,0.0,0.0,-0.01
1776535078.8901267,162.33,-0.01,0.0,0.006,-0.01,9.808,0.0,0.0,-0.01
1776535078.9078007,162.34,-0.01,0.0,0.004,-0.02,9.808,0.0,0.0,-0.01
1776535078.9281292,162.34,-0.01,0.0,0.006,0.004,9.808,-0.01,-0.01,-0.01
1776535078.934384,162.33,-0.01,0.0,0.012,0.022,9.808,0.0,-0.01,0.0
1776535078.9473498,162.33,-0.01,0.01,0.013,0.025,9.808,0.0,0.0,0.0
1776535078.9528382,162.33,-0.01,0.0,0.012,0.02,9.808,0.0,-0.01,0.0
1776535078.9538052,162.33,-0.0,-0.01,0.002,0.001,9.808,-0.01,0.0,0.0
1776535078.960112,162.33,0.0,-0.01,0.001,-0.081,9.808,-0.01,-0.01,-0.01
1776535078.9701247,162.33,0.01,-0.04,-0.013,-0.04,9.808,-0.01,-0.01,0.0
1776535078.9801114,162.33,0.0,0.03,-0.048,0.126,9.808,-0.01,-0.01,0.0
1776535078.990126,162.33,-0.01,0.11,-0.048,0.079,9.808,0.03,0.0,-0.01
1776535079.0001287,162.33,-0.02,0.14,0.023,0.049,9.808,0.03,0.0,-0.01
1776535079.0101256,162.33,-0.01,0.14,0.029,0.097,9.808,0.01,0.0,0.0
1776535079.0201287,162.33,-0.01,0.13,0.014,0.081,9.808,-0.01,-0.01,0.0
1776535079.0301065,162.33,-0.02,0.1,0.048,0.012,9.808,-0.02,0.0,0.0
1776535079.0401459,162.33,-0.02,0.03,0.073,-0.109,9.808,-0.02,0.01,-0.01
1776535079.0500834,162.33,-0.01,-0.05,0.037,-0.177,9.808,-0.03,-0.01,-0.01
1776535079.0600743,162.33,-0.02,-0.1,0.022,-0.251,9.808,-0.03,-0.01,-0.01
1776535079.0700903,162.33,-0.0,-0.12,0.063,-0.335,9.808,-0.02,0.0,0.0
1776535079.0800834,162.31,-0.0,-0.14,0.03,-0.307,9.808,0.0,-0.01,0.0
1776535079.0900834,162.31,-0.01,-0.13,0.013,-0.198,9.808,0.0,-0.01,0.0
1776535079.1000729,162.32,-0.01,-0.08,0.002,-0.128,9.808,0.01,0.0,0.0
1776535079.1100829,162.33,-0.01,-0.05,-0.05,-0.132,9.808,0.02,-0.01,-0.01
1776535079.1201,162.34,-0.02,-0.04,-0.024,-0.024,9.808,0.02,0.0,-0.01
1776535079.1300702,162.35,-0.01,0.0,-0.022,0.148,9.808,0.0,0.0,-0.01
1776535079.1400816,162.35,-0.01,0.05,-0.04,0.194,9.808,0.01,-0.01,-0.01
1776535079.1500897,162.35,-0.02,0.07,0.025,0.243,9.808,0.01,-0.01,-0.01
1776535079.159243,162.34,-0.0,0.08,0.08,0.293,9.808,-0.01,0.0,0.0
1776535079.1700788,162.33,0.02,0.08,0.066,0.26,9.808,-0.01,-0.01,0.0
1776535079.1800785,162.32,0.02,0.05,0.091,0.174,9.808,-0.02,-0.01,0.0
1776535079.1892047,162.31,0.02,0.01,0.085,0.212,9.808,-0.02,0.0,0.0
1776535079.1992042,162.3,0.02,-0.0,0.024,0.134,9.809,-0.02,-0.01,0.0
1776535079.2100685,162.3,0.01,-0.04,0.024,-0.002,9.809,-0.02,0.0,0.0
1776535079.2200859,162.3,0.01,-0.09,0.001,-0.053,9.808,-0.02,0.0,-0.01
1776535079.2300935,162.31,0.02,-0.13,-0.06,-0.047,9.808,-0.03,-0.01,-0.01
1776535079.2400947,162.32,0.0,-0.13,-0.117,-0.093,9.808,-0.02,-0.01,-0.01
1776535079.2501218,162.33,-0.01,-0.15,-0.086,-0.174,9.808,0.0,0.0,-0.01
1776535079.2600822,162.33,0.01,-0.16,-0.073,-0.216,9.808,0.0,0.0,-0.01
1776535079.2691572,162.33,0.01,-0.18,-0.075,-0.217,9.808,-0.01,-0.02,-0.01
1776535079.2792194,162.32,0.02,-0.18,-0.025,-0.157,9.808,-0.01,-0.01,0.0
1776535079.2891567,162.31,0.03,-0.17,-0.008,-0.049,9.808,0.0,-0.01,0.0
1776535079.3000796,162.31,0.04,-0.15,-0.002,-0.068,9.808,0.0,-0.01,0.0
1776535079.3091924,162.32,0.03,-0.17,0.023,-0.042,9.808,0.0,-0.01,-0.01
1776535079.3196821,162.34,0.05,-0.19,0.041,0.08,9.808,-0.02,0.0,-0.01
1776535079.3298197,162.37,0.05,-0.18,0.014,0.157,9.808,-0.02,-0.01,-0.02
1776535079.3395584,162.4,0.06,-0.16,0.032,0.148,9.808,-0.01,-0.01,-0.02
1776535079.3506324,162.41,0.06,-0.16,0.073,0.078,9.808,-0.01,-0.01,-0.02
1776535079.3599234,162.4,0.08,-0.18,0.096,0.074,9.809,-0.01,0.0,-0.01
1776535079.3692863,162.35,0.08,-0.19,0.071,0.077,9.809,-0.01,-0.01,0.01
1776535079.3800755,162.29,0.08,-0.18,0.091,0.103,9.808,-0.01,-0.01,0.02
1776535079.3892303,162.23,0.08,-0.17,0.079,0.153,9.808,0.0,0.0,0.03
1776535079.3992004,162.2,0.06,-0.14,0.026,0.225,9.808,0.0,0.0,0.02
1776535079.409208,162.19,0.04,-0.11,-0.006,0.277,9.808,0.0,0.01,0.02
1776535079.4191582,162.22,0.01,-0.09,-0.026,0.254,9.808,0.0,0.01,-0.01
1776535079.429195,162.28,0.0,-0.07,-0.066,0.186,9.808,0.0,0.01,-0.02
1776535079.4391963,162.35,-0.01,-0.09,-0.095,0.046,9.809,0.0,0.0,-0.04
1776535079.449208,162.4,-0.02,-0.14,-0.087,-0.046,9.808,-0.01,0.0,-0.04
1776535079.4591672,162.43,-0.02,-0.2,-0.074,-0.15,9.808,-0.02,0.0,-0.03
1776535079.4691803,162.43,-0.01,-0.27,-0.062,-0.071,9.808,-0.04,-0.01,-0.02
1776535079.47921,162.43,0.0,-0.32,-0.037,0.114,9.808,-0.05,-0.01,-0.01
1776535079.489197,162.43,0.01,-0.31,0.013,0.249,9.808,-0.03,-0.01,0.0
1776535079.4991539,162.46,0.02,-0.32,0.032,0.341,9.808,-0.02,-0.01,-0.01
1776535079.5092022,162.5,0.02,-0.32,0.029,0.369,9.808,-0.02,-0.01,-0.02
1776535079.5191863,162.54,0.03,-0.27,-0.024,0.329,9.809,-0.02,0.0,-0.03
1776535079.5291572,162.55,0.01,-0.2,-0.012,0.02,9.808,0.02,-0.01,-0.02
1776535079.5391414,162.53,-0.0,-0.19,0.024,-0.26,9.809,0.04,0.01,-0.01
1776535079.5492752,162.49,-0.0,-0.2,0.069,-0.396,9.808,0.02,0.0,0.01
1776535079.5591338,162.43,0.02,-0.21,0.038,-0.369,9.808,0.02,0.0,0.02
1776535079.569164,162.38,0.01,-0.18,0.074,-0.284,9.808,0.01,-0.02,0.03
1776535079.5792513,162.33,0.02,-0.14,0.05,-0.17,9.808,0.02,0.0,0.02
1776535079.5891235,162.31,0.01,-0.11,0.083,-0.065,9.808,0.02,0.0,0.02
1776535079.5991616,162.31,0.02,-0.09,0.087,0.054,9.808,0.01,0.0,0.01
1776535079.609157,162.33,0.02,-0.07,0.041,0.092,9.808,0.0,-0.01,-0.01
1776535079.619181,162.35,0.01,-0.07,-0.012,0.147,9.808,-0.01,-0.01,-0.02
1776535079.6291363,162.4,0.01,-0.09,-0.014,0.14,9.809,-0.01,0.0,-0.02
1776535079.6392033,162.44,0.01,-0.11,-0.065,0.175,9.808,-0.02,-0.01,-0.03
1776535079.6491747,162.48,0.01,-0.14,-0.061,0.2,9.808,-0.02,-0.01,-0.03
1776535079.65923,162.5,0.02,-0.15,-0.056,0.154,9.808,-0.02,-0.01,-0.02
1776535079.669196,162.49,0.03,-0.17,-0.026,0.147,9.808,-0.02,-0.01,-0.02
1776535079.67919,162.45,0.05,-0.16,0.0,0.2,9.808,-0.02,-0.01,0.01
1776535079.6891322,162.4,0.04,-0.13,0.013,0.226,9.808,0.0,-0.01,0.02
1776535079.6991696,162.36,0.04,-0.08,0.06,0.232,9.808,0.01,0.0,0.02
1776535079.7091746,162.34,0.04,-0.04,0.081,0.262,9.808,0.02,0.0,0.02
1776535079.7191584,162.35,0.04,-0.01,0.049,0.202,9.809,0.01,0.0,0.0
1776535079.7291126,162.38,0.03,-0.02,0.024,0.087,9.808,0.0,0.0,-0.02
1776535079.7391539,162.41,0.02,-0.05,-0.007,0.043,9.808,-0.01,0.0,-0.02
1776535079.7491226,162.44,0.02,-0.06,-0.031,-0.024,9.808,-0.02,0.0,-0.02
1776535079.7591848,162.45,0.02,-0.08,-0.077,-0.17,9.808,-0.01,-0.01,-0.02
1776535079.7691312,162.42,0.01,-0.11,-0.046,-0.183,9.808,-0.01,0.0,0.0
1776535079.7791317,162.4,0.03,-0.14,-0.006,-0.207,9.809,-0.01,-0.01,0.01
1776535079.789114,162.37,0.04,-0.18,-0.041,-0.181,9.808,-0.02,-0.02,0.02
1776535079.7991483,162.37,0.05,-0.21,-0.02,-0.057,9.808,-0.02,-0.01,0.01
1776535079.8092132,162.38,0.05,-0.2,-0.025,0.037,9.808,-0.02,-0.01,-0.01
1776535079.819161,162.42,0.06,-0.17,0.005,0.066,9.808,0.0,-0.01,-0.02
1776535079.8291702,162.45,0.07,-0.14,0.031,0.081,9.809,0.01,0.0,-0.02
1776535079.839174,162.45,0.07,-0.11,0.023,0.055,9.808,0.02,-0.01,-0.02
1776535079.8491728,162.45,0.07,-0.07,0.029,0.096,9.808,0.02,0.0,-0.01
1776535079.8591619,162.43,0.07,-0.02,0.03,0.134,9.808,0.02,0.0,0.0
1776535079.869158,162.4,0.07,0.02,0.028,0.114,9.808,0.02,-0.01,0.01
1776535079.879108,162.38,0.07,0.02,0.065,0.151,9.808,0.01,0.0,0.01
1776535079.8891566,162.37,0.07,0.02,0.04,0.201,9.808,-0.01,0.0,0.01
1776535079.8991058,162.37,0.07,0.02,0.02,0.166,9.808,-0.01,-0.01,0.0
1776535079.9091454,162.37,0.06,-0.0,0.031,0.12,9.808,-0.01,0.0,0.0
1776535079.9191535,162.37,0.06,-0.03,-0.012,0.09,9.808,-0.02,0.0,-0.01
1776535079.9291449,162.37,0.05,-0.05,-0.034,0.059,9.808,-0.02,-0.01,-0.01
1776535079.9391649,162.38,0.04,-0.07,-0.05,0.02,9.808,-0.02,0.0,-0.01
1776535079.9491212,162.39,0.04,-0.09,-0.074,0.002,9.808,-0.02,0.0,-0.01
1776535079.9591544,162.4,0.03,-0.1,-0.085,0.002,9.808,-0.01,-0.01,-0.01
1776535079.969144,162.43,0.03,-0.09,-0.098,0.02,9.808,-0.01,-0.01,-0.02
1776535079.9791937,162.45,0.02,-0.07,-0.08,-0.004,9.808,0.0,-0.01,-0.02
1776535079.9891639,162.47,0.03,-0.05,-0.059,-0.065,9.808,0.01,-0.01,-0.02
1776535079.99914,162.47,0.04,-0.04,-0.005,-0.078,9.808,0.01,-0.01,-0.01
1776535080.0091317,162.44,0.05,-0.02,0.014,-0.044,9.808,0.01,-0.01,0.0
1776535080.0191505,162.41,0.06,0.01,0.057,-0.005,9.808,0.01,-0.01,0.01
1776535080.0291364,162.37,0.07,0.02,0.103,0.008,9.808,0.01,0.0,0.02
1776535080.0391636,162.35,0.07,0.02,0.117,0.048,9.808,0.0,0.0,0.02
1776535080.049086,162.33,0.07,0.0,0.107,0.122,9.808,-0.02,0.0,0.02
1776535080.059116,162.32,0.07,-0.0,0.079,0.128,9.808,-0.02,0.0,0.01
1776535080.0691316,162.33,0.05,-0.02,0.022,0.143,9.808,-0.02,0.0,0.0
1776535080.0791473,162.35,0.04,-0.04,-0.012,0.132,9.808,-0.02,0.0,-0.02
1776535080.089097,162.38,0.03,-0.04,-0.097,0.078,9.808,-0.02,0.0,-0.02
1776535080.0991259,162.4,0.01,-0.04,-0.145,0.025,9.808,-0.01,0.0,-0.02
1776535080.1091146,162.42,0.0,-0.03,-0.164,0.047,9.808,0.0,0.0,-0.02
1776535080.1191232,162.44,-0.0,-0.01,-0.153,0.022,9.808,0.01,-0.01,-0.02
1776535080.1290944,162.45,0.01,-0.0,-0.089,0.044,9.808,0.01,-0.01,-0.01
1776535080.1391065,162.45,0.02,0.02,-0.024,0.056,9.808,0.0,-0.01,-0.01
1776535080.1491876,162.45,0.03,0.04,0.011,0.018,9.808,0.0,-0.01,-0.01
1776535080.1591065,162.44,0.04,0.03,0.086,-0.012,9.808,0.0,-0.01,0.0
1776535080.1691008,162.41,0.05,0.03,0.138,-0.023,9.808,0.0,0.0,0.01
1776535080.179108,162.37,0.06,0.01,0.126,0.028,9.808,-0.01,-0.01,0.02
1776535080.1891134,162.35,0.06,0.01,0.114,0.023,9.808,-0.01,0.0,0.02
1776535080.1982586,162.35,0.05,-0.0,0.087,0.04,9.808,-0.01,0.0,0.01
1776535080.2091444,162.35,0.03,-0.01,0.044,0.038,9.808,-0.01,0.0,0.0
1776535080.2191494,162.37,0.03,-0.02,-0.022,0.025,9.808,-0.01,0.0,-0.01
1776535080.2291024,162.39,0.0,-0.03,-0.068,0.01,9.808,-0.01,0.0,-0.02
1776535080.239082,162.4,-0.01,-0.03,-0.098,-0.049,9.808,-0.01,0.0,-0.02
1776535080.2491195,162.41,-0.01,-0.05,-0.111,-0.063,9.808,-0.01,0.0,-0.01
1776535080.2591875,162.41,-0.01,-0.05,-0.128,-0.013,9.808,-0.01,-0.01,-0.01
1776535080.2691202,162.4,-0.01,-0.03,-0.134,0.029,9.808,0.0,-0.01,0.0
1776535080.2790956,162.41,-0.01,0.01,-0.098,0.062,9.808,0.01,-0.01,0.0
1776535080.2882414,162.41,0.01,0.05,-0.044,0.05,9.808,0.02,-0.01,-0.01
1776535080.2981887,162.42,0.02,0.07,0.017,0.055,9.808,0.02,-0.01,-0.01
1776535080.3082309,162.41,0.03,0.07,0.079,0.092,9.808,0.0,-0.01,-0.01
1776535080.3190813,162.4,0.05,0.08,0.107,0.116,9.808,0.0,-0.01,0.0
1776535080.3291295,162.4,0.05,0.08,0.135,0.097,9.809,-0.01,-0.01,0.0
1776535080.339081,162.39,0.05,0.08,0.139,0.067,9.808,-0.01,0.0,0.0
1776535080.3482113,162.37,0.04,0.06,0.116,0.06,9.808,-0.01,0.0,0.0
1776535080.3591251,162.37,0.03,0.03,0.089,0.056,9.808,-0.02,0.0,0.0
1776535080.369088,162.37,0.02,0.02,0.026,0.047,9.808,-0.02,0.0,0.0
1776535080.3782346,162.37,0.01,-0.0,-0.028,0.017,9.808,-0.02,0.0,-0.01
1776535080.3882437,162.39,-0.0,-0.01,-0.077,-0.025,9.808,-0.01,0.0,-0.01
1776535080.398449,162.4,-0.01,-0.02,-0.102,-0.059,9.808,-0.01,0.0,-0.01
1776535080.4091122,162.41,-0.02,-0.02,-0.129,-0.063,9.808,0.0,-0.01,-0.01
1776535080.4192626,162.42,-0.01,-0.0,-0.123,-0.028,9.808,0.0,-0.01,-0.01
1776535080.4282503,162.42,-0.02,0.03,-0.107,-0.023,9.808,0.01,-0.01,-0.01
1776535080.4382358,162.42,-0.01,0.05,-0.046,-0.04,9.808,0.02,-0.01,-0.01
1776535080.4482553,162.41,0.02,0.05,0.004,-0.014,9.808,0.01,-0.01,0.0
1776535080.4581695,162.4,0.03,0.06,0.047,0.06,9.808,0.0,-0.01,0.0
1776535080.4683368,162.39,0.03,0.07,0.095,0.069,9.808,-0.01,-0.01,0.0
1776535080.4782174,162.37,0.05,0.07,0.144,0.069,9.808,0.0,0.0,0.0
1776535080.4890816,162.37,0.05,0.06,0.154,0.075,9.808,-0.01,0.0,0.0
1776535080.4981956,162.36,0.05,0.06,0.101,0.111,9.808,-0.02,0.0,0.0
1776535080.508232,162.36,0.03,0.07,0.066,0.091,9.808,-0.01,0.0,0.0
1776535080.5182104,162.37,0.02,0.06,0.019,0.086,9.808,0.0,0.0,-0.01
1776535080.5283027,162.37,0.01,0.08,-0.025,0.077,9.808,0.0,0.0,-0.01
1776535080.5383205,162.37,-0.01,0.09,-0.055,0.013,9.808,0.01,0.0,-0.01
1776535080.5483055,162.38,-0.01,0.09,-0.056,-0.018,9.808,0.0,0.0,-0.01
1776535080.558261,162.38,-0.01,0.07,-0.071,-0.002,9.808,-0.01,0.0,-0.01
1776535080.5681822,162.37,-0.01,0.07,-0.105,0.01,9.808,-0.02,-0.01,0.0
1776535080.5781887,162.37,-0.01,0.07,-0.073,-0.008,9.808,-0.01,-0.01,0.0
1776535080.5882027,162.38,-0.01,0.07,-0.031,-0.041,9.808,0.0,-0.01,0.0
1776535080.5981894,162.39,0.01,0.05,0.01,-0.034,9.808,-0.01,-0.01,-0.01
1776535080.6082778,162.4,0.02,0.04,0.004,-0.007,9.808,-0.01,-0.01,-0.01
1776535080.618185,162.41,0.02,0.04,0.047,0.006,9.808,-0.01,-0.01,-0.01
1776535080.628204,162.42,0.02,0.05,0.059,-0.025,9.808,0.0,0.0,-0.01
1776535080.6381907,162.42,0.04,0.04,0.073,-0.061,9.808,0.0,0.0,-0.01
1776535080.6481895,162.4,0.03,0.04,0.059,0.017,9.808,-0.01,-0.01,0.0
1776535080.6582067,162.39,0.03,0.06,0.042,0.054,9.808,-0.01,0.0,0.0
1776535080.668166,162.37,0.02,0.09,0.041,0.047,9.808,0.01,0.0,0.01
1776535080.6782818,162.35,0.02,0.09,0.063,0.048,9.808,0.01,0.0,0.01
1776535080.6881843,162.33,0.02,0.1,0.029,0.098,9.808,-0.01,0.0,0.01
1776535080.6981857,162.33,0.02,0.1,-0.022,0.126,9.808,-0.01,-0.01,0.0
1776535080.7081757,162.33,-0.0,0.11,-0.035,0.113,9.808,0.0,0.0,0.0
1776535080.7181568,162.35,-0.01,0.1,-0.034,0.09,9.808,0.0,0.0,-0.01
1776535080.7281857,162.37,-0.01,0.09,-0.063,0.069,9.808,-0.01,-0.01,-0.01
1776535080.7381818,162.38,-0.01,0.09,-0.069,0.042,9.808,-0.01,0.0,-0.02
1776535080.748169,162.4,-0.01,0.09,-0.071,0.0,9.808,-0.01,-0.01,-0.02
1776535080.7581604,162.41,-0.02,0.08,-0.044,-0.077,9.808,0.0,0.0,-0.02
1776535080.76819,162.41,-0.0,0.06,-0.03,-0.069,9.808,0.0,-0.01,-0.01
1776535080.778174,162.41,0.0,0.06,-0.02,-0.041,9.808,-0.01,-0.01,-0.01
1776535080.788162,162.41,0.01,0.06,0.004,-0.042,9.808,0.0,-0.01,0.0
1776535080.798233,162.4,0.02,0.07,0.043,-0.043,9.808,0.0,-0.01,0.0
1776535080.8081644,162.4,0.03,0.07,0.06,-0.035,9.808,0.0,-0.01,0.0
1776535080.8181813,162.4,0.02,0.07,0.067,-0.023,9.808,0.0,-0.01,0.0
1776535080.8281891,162.39,0.03,0.08,0.078,0.008,9.808,-0.01,0.0,0.0
1776535080.838199,162.37,0.03,0.09,0.069,0.005,9.808,0.0,0.0,0.0
1776535080.8481386,162.36,0.02,0.09,0.072,0.013,9.808,0.0,0.0,0.01
1776535080.858152,162.35,0.02,0.09,0.04,0.046,9.808,-0.01,0.0,0.01
1776535080.8681483,162.33,0.01,0.1,0.002,0.08,9.808,-0.01,0.0,0.0
1776535080.878221,162.33,-0.01,0.1,-0.02,0.065,9.808,0.0,0.0,0.0
1776535080.8881786,162.33,-0.01,0.09,-0.025,0.044,9.808,-0.01,0.0,0.0
1776535080.898182,162.35,-0.01,0.09,-0.065,0.073,9.808,-0.01,0.0,-0.01
1776535080.9081595,162.36,-0.02,0.1,-0.091,0.046,9.808,-0.01,-0.01,-0.02
1776535080.9182003,162.38,-0.03,0.11,-0.078,0.012,9.808,0.0,0.0,-0.02
1776535080.9281778,162.4,-0.01,0.11,-0.043,-0.023,9.809,0.0,0.0,-0.02
1776535080.9381793,162.4,0.0,0.1,-0.034,-0.012,9.808,0.0,-0.01,-0.02
1776535080.9481387,162.4,0.0,0.1,-0.008,-0.002,9.808,-0.01,-0.01,-0.01
1776535080.9581838,162.4,0.01,0.1,0.044,-0.059,9.809,0.0,-0.01,0.0
1776535080.9681802,162.38,0.03,0.08,0.077,-0.037,9.808,-0.01,-0.01,0.0
1776535080.978159,162.36,0.03,0.09,0.077,0.017,9.808,-0.01,-0.01,0.01
1776535080.9881678,162.35,0.02,0.1,0.06,0.025,9.808,0.0,-0.01,0.01
1776535080.9981635,162.35,0.02,0.11,0.072,0.061,9.808,0.0,0.0,0.0
1776535081.0081768,162.35,0.01,0.12,0.053,0.078,9.808,0.0,0.0,0.0
1776535081.0182087,162.37,0.0,0.12,-0.013,0.091,9.808,-0.01,0.0,-0.01
1776535081.0281584,162.4,-0.02,0.13,-0.04,0.087,9.808,-0.01,0.0,-0.02
1776535081.0381956,162.42,-0.02,0.14,-0.036,0.032,9.808,0.0,0.0,-0.02
1776535081.048151,162.44,-0.02,0.13,-0.048,-0.057,9.808,0.0,-0.01,-0.02
1776535081.0582902,162.43,-0.01,0.1,-0.034,-0.091,9.808,-0.01,-0.01,-0.01
1776535081.0685961,162.42,-0.0,0.08,-0.018,-0.135,9.808,-0.02,-0.01,0.0
1776535081.078134,162.38,0.01,0.06,-0.002,-0.107,9.808,-0.02,-0.01,0.01
1776535081.0881498,162.35,0.02,0.05,0.028,-0.089,9.808,-0.01,-0.01,0.02
1776535081.0981715,162.33,0.02,0.06,0.043,-0.03,9.808,0.0,-0.01,0.02
1776535081.1081707,162.31,0.01,0.08,0.061,0.02,9.808,0.0,0.0,0.01
1776535081.118158,162.31,0.02,0.1,0.048,0.028,9.808,0.01,0.0,0.0
1776535081.1281416,162.33,0.01,0.1,0.019,0.077,9.808,0.0,0.0,-0.01
1776535081.1381717,162.36,-0.0,0.13,-0.028,0.154,9.808,-0.01,0.0,-0.02
1776535081.1481378,162.39,-0.02,0.17,-0.049,0.121,9.808,0.01,0.0,-0.02
1776535081.1581395,162.42,-0.02,0.17,-0.032,0.075,9.808,0.02,0.0,-0.02
1776535081.1681747,162.45,-0.02,0.18,-0.024,0.11,9.808,0.0,0.0,-0.02
1776535081.178136,162.47,-0.02,0.19,-0.037,0.04,9.808,0.0,-0.01,-0.02
1776535081.188183,162.47,-0.02,0.16,-0.011,-0.06,9.808,0.0,-0.01,-0.02
1776535081.198148,162.45,-0.0,0.12,0.06,-0.085,9.809,-0.02,0.0,0.0
1776535081.2081578,162.4,0.03,0.09,0.057,-0.15,9.809,-0.02,-0.02,0.01
1776535081.2181492,162.34,0.03,0.03,0.054,0.026,9.808,-0.02,-0.02,0.02
1776535081.2281563,162.3,0.02,0.05,0.042,0.119,9.809,-0.03,-0.01,0.02
1776535081.2381716,162.3,0.02,0.05,-0.022,0.086,9.808,-0.01,0.0,0.01
1776535081.248148,162.32,-0.02,0.05,-0.034,-0.032,9.808,-0.01,0.0,0.0
1776535081.2581446,162.35,-0.03,0.05,-0.055,-0.132,9.808,0.0,0.01,-0.02
1776535081.2681568,162.38,-0.04,0.03,-0.098,-0.259,9.808,0.01,0.0,-0.02
1776535081.2781992,162.4,-0.03,0.01,-0.104,-0.297,9.808,0.0,-0.01,-0.02
1776535081.288174,162.4,-0.02,0.01,-0.102,-0.244,9.808,0.0,-0.02,-0.02
1776535081.298201,162.4,-0.01,0.03,0.006,-0.125,9.808,0.0,-0.01,-0.01
1776535081.308131,162.38,0.02,0.06,0.035,-0.055,9.808,0.01,-0.01,0.0
1776535081.318131,162.35,0.01,0.08,0.038,-0.013,9.808,0.01,-0.01,0.01
1776535081.3281126,162.33,0.01,0.1,0.029,0.066,9.808,0.0,0.0,0.01
1776535081.3381648,162.31,0.01,0.13,0.007,0.14,9.808,0.0,0.0,0.01
1776535081.348259,162.31,-0.0,0.16,0.012,0.2,9.808,0.01,0.0,0.0
1776535081.3581417,162.33,0.01,0.18,0.047,0.238,9.808,0.01,0.0,-0.01
1776535081.368136,162.37,0.01,0.18,0.059,0.295,9.808,-0.01,0.0,-0.02
1776535081.3781528,162.4,0.01,0.17,0.008,0.244,9.808,-0.02,-0.01,-0.02
1776535081.3881516,162.42,-0.01,0.18,0.01,0.178,9.808,-0.01,0.0,-0.02
1776535081.398154,162.41,-0.02,0.17,0.035,0.038,9.808,0.0,0.01,-0.01
1776535081.4073558,162.38,-0.02,0.14,0.031,-0.091,9.808,0.0,0.0,0.0
1776535081.4173045,162.35,-0.02,0.12,0.0,-0.029,9.808,-0.01,0.0,0.02
1776535081.4272778,162.33,-0.03,0.15,-0.055,0.034,9.808,-0.01,0.0,0.02
1776535081.437318,162.33,-0.04,0.19,-0.06,0.061,9.808,0.01,0.0,0.01
1776535081.4472995,162.33,-0.05,0.23,-0.002,-0.014,9.808,0.02,0.0,0.0
1776535081.4573092,162.35,-0.03,0.22,0.078,-0.048,9.808,0.02,0.0,-0.01
1776535081.4673438,162.38,0.0,0.21,0.077,-0.122,9.808,0.0,-0.01,-0.02
1776535081.4781382,162.41,0.01,0.22,0.057,0.098,9.808,-0.02,-0.02,-0.02
1776535081.488144,162.44,-0.02,0.26,0.041,-0.134,9.809,0.01,0.0,-0.02
1776535081.4981308,162.45,-0.03,0.23,0.102,-0.253,9.808,0.02,0.01,-0.02
1776535081.5072975,162.45,-0.0,0.16,0.107,-0.253,9.808,-0.01,0.01,-0.01
1776535081.517662,162.43,-0.0,0.13,0.011,-0.188,9.808,-0.03,-0.02,0.0
1776535081.527276,162.4,-0.03,0.15,-0.071,-0.151,9.808,-0.02,-0.01,0.01
1776535081.5373082,162.38,-0.05,0.16,-0.014,-0.193,9.808,0.01,0.01,0.02
1776535081.5472767,162.35,-0.02,0.16,0.005,-0.2,9.808,0.01,0.01,0.01
1776535081.5573251,162.35,-0.0,0.13,-0.069,-0.06,9.808,0.0,-0.02,0.01
1776535081.5672874,162.36,-0.02,0.16,-0.085,0.09,9.808,-0.02,-0.02,0.0
1776535081.5773191,162.38,-0.02,0.22,-0.011,0.117,9.808,0.0,0.0,-0.01
1776535081.5872855,162.4,-0.01,0.23,0.016,0.026,9.808,0.02,0.0,-0.02
1776535081.5972838,162.41,-0.01,0.19,0.023,0.018,9.808,0.0,-0.01,-0.02
1776535081.6072826,162.41,-0.0,0.16,0.011,0.087,9.808,-0.02,-0.01,-0.01
1776535081.6172955,162.4,-0.02,0.15,-0.005,0.098,9.809,-0.02,-0.01,0.0
1776535081.6272788,162.38,-0.03,0.15,0.05,0.024,9.808,-0.01,0.0,0.01
1776535081.6372907,162.35,-0.0,0.11,0.096,-0.049,9.808,-0.01,0.0,0.01
1776535081.647276,162.34,0.03,0.03,0.066,-0.04,9.808,-0.02,-0.02,0.01
1776535081.6572971,162.33,0.03,-0.02,-0.014,0.043,9.808,-0.04,-0.02,0.0
1776535081.6672647,162.35,0.02,-0.01,-0.06,0.06,9.808,-0.03,-0.01,-0.01
1776535081.6772935,162.35,-0.02,0.03,-0.132,0.02,9.808,0.0,0.0,-0.01
1776535081.6872559,162.36,-0.05,0.04,-0.051,-0.126,9.808,0.02,0.02,-0.01
1776535081.6972964,162.37,-0.04,0.03,-0.014,-0.224,9.808,0.01,0.0,-0.01
1776535081.7072625,162.37,-0.01,-0.03,-0.047,-0.232,9.808,-0.01,-0.01,-0.01
1776535081.717296,162.37,-0.0,-0.08,-0.066,-0.11,9.808,-0.03,-0.02,-0.01
1776535081.7272575,162.37,-0.01,-0.05,-0.06,-0.019,9.808,-0.02,-0.01,-0.01
1776535081.7373042,162.35,-0.01,-0.01,0.026,0.022,9.808,0.02,0.0,0.0
1776535081.747266,162.33,0.02,0.05,0.075,0.095,9.808,0.02,0.0,0.01
1776535081.757579,162.3,0.02,0.09,0.056,0.117,9.808,0.02,-0.01,0.01
1776535081.7672594,162.3,0.02,0.11,0.069,0.125,9.809,0.01,-0.01,0.01
1776535081.7772248,162.31,0.02,0.11,0.044,0.219,9.808,0.0,0.0,0.0
1776535081.7872338,162.33,0.02,0.11,-0.014,0.17,9.808,-0.01,0.0,-0.01
1776535081.7972474,162.35,-0.0,0.16,-0.101,0.311,9.808,-0.01,-0.01,-0.02
1776535081.807262,162.38,-0.03,0.22,-0.056,0.283,9.808,0.02,0.01,-0.02
1776535081.817224,162.39,-0.04,0.27,-0.022,0.143,9.808,0.02,0.01,-0.02
1776535081.8272958,162.39,-0.04,0.27,0.01,0.032,9.808,0.02,0.0,-0.01
1776535081.837207,162.39,-0.04,0.22,0.018,-0.05,9.808,-0.01,-0.01,-0.01
1776535081.8472362,162.39,-0.04,0.16,0.002,-0.135,9.808,-0.02,-0.01,-0.01
1776535081.8572311,162.38,-0.04,0.11,-0.007,-0.158,9.808,-0.03,0.0,0.0
1776535081.867234,162.37,-0.05,0.08,-0.017,-0.229,9.808,-0.02,0.0,0.0
1776535081.877231,162.37,-0.06,0.04,-0.029,-0.281,9.808,-0.02,0.0,0.0
1776535081.887224,162.37,-0.06,0.02,-0.078,-0.285,9.808,-0.02,0.0,0.0
1776535081.8972318,162.37,-0.07,0.03,-0.032,-0.291,9.808,0.0,-0.01,-0.01
1776535081.907267,162.37,-0.04,0.04,-0.072,-0.326,9.808,0.01,-0.01,-0.01
1776535081.9172132,162.37,-0.03,0.03,-0.016,-0.265,9.808,0.01,-0.02,-0.01
1776535081.9272423,162.38,-0.02,0.07,0.042,-0.146,9.808,0.0,-0.01,-0.01
1776535081.937247,162.38,0.01,0.13,0.087,-0.066,9.808,0.02,-0.01,-0.01
1776535081.9472497,162.38,0.01,0.15,0.128,-0.093,9.808,0.02,-0.01,0.0
1776535081.9572399,162.37,0.01,0.15,0.116,0.046,9.808,0.01,0.0,-0.01
1776535081.9672382,162.37,0.0,0.17,0.085,0.121,9.808,-0.01,0.0,0.0
1776535081.9771864,162.35,-0.01,0.18,0.044,0.162,9.808,-0.01,0.0,0.0
1776535081.987213,162.34,-0.02,0.16,0.012,0.189,9.808,-0.01,0.0,0.01
1776535081.9972024,162.33,-0.03,0.14,-0.004,0.24,9.808,-0.02,0.0,0.0
1776535082.0072048,162.33,-0.03,0.14,-0.077,0.208,9.808,-0.02,-0.01,0.0
1776535082.0172184,162.35,-0.05,0.14,-0.096,0.175,9.808,-0.01,-0.01,-0.01
1776535082.0272186,162.37,-0.05,0.14,-0.04,0.091,9.808,-0.01,0.0,-0.01
1776535082.0372684,162.39,-0.04,0.11,-0.048,-0.08,9.808,0.0,-0.01,-0.02
1776535082.04721,162.41,-0.03,0.07,-0.024,-0.101,9.808,-0.02,-0.01,-0.02
1776535082.057205,162.42,-0.03,0.1,-0.022,-0.079,9.808,-0.01,-0.01,-0.02
1776535082.067191,162.41,-0.03,0.12,0.022,-0.254,9.808,0.02,0.0,-0.01
1776535082.0772085,162.38,-0.02,0.07,0.104,-0.341,9.808,0.02,0.0,0.0
1776535082.0872629,162.35,-0.0,0.02,0.111,-0.143,9.808,-0.02,0.0,0.01
1776535082.0972064,162.33,0.0,0.05,0.017,-0.065,9.808,-0.02,-0.01,0.02
1776535082.1072083,162.31,-0.03,0.06,-0.008,-0.069,9.808,0.01,-0.01,0.01
1776535082.1172097,162.31,-0.02,0.07,0.066,0.026,9.808,0.0,0.01,0.0
1776535082.1272118,162.33,-0.01,0.1,0.013,0.066,9.808,0.0,0.0,-0.01
1776535082.137208,162.35,-0.02,0.12,-0.053,0.113,9.808,0.0,-0.02,-0.02
1776535082.147208,162.38,-0.03,0.14,0.001,0.139,9.808,0.0,0.0,-0.02
1776535082.1572092,162.4,-0.02,0.16,0.007,0.084,9.808,0.01,0.0,-0.02
1776535082.1671796,162.41,-0.02,0.14,-0.005,0.007,9.808,0.0,-0.01,-0.02
1776535082.1771724,162.4,-0.02,0.12,0.031,0.025,9.808,-0.01,0.0,-0.01
1776535082.1872048,162.39,-0.01,0.12,0.043,0.018,9.808,-0.02,0.0,0.0
1776535082.1972094,162.37,-0.02,0.12,0.017,-0.048,9.808,0.0,-0.01,0.01
1776535082.207212,162.35,-0.02,0.09,0.049,-0.049,9.808,-0.01,0.0,0.01
1776535082.217397,162.35,-0.01,0.07,0.02,-0.075,9.808,-0.02,0.0,0.0
1776535082.2272584,162.35,-0.02,0.05,-0.019,-0.096,9.808,-0.02,-0.01,0.0
1776535082.2372112,162.37,-0.03,0.04,0.0,-0.083,9.808,-0.01,0.0,-0.01
1776535082.247212,162.37,-0.02,0.04,0.006,-0.147,9.808,0.0,0.0,-0.01
1776535082.2572188,162.38,-0.02,0.02,0.0,-0.158,9.808,0.0,-0.01,-0.01
1776535082.2672055,162.37,-0.01,0.02,-0.002,-0.099,9.808,-0.01,-0.01,-0.01
1776535082.277212,162.36,-0.01,0.04,-0.014,-0.06,9.808,0.0,-0.01,0.0
1776535082.2876167,162.35,-0.01,0.05,0.034,-0.05,9.808,0.01,-0.01,0.01
1776535082.2971973,162.33,0.0,0.05,0.067,0.018,9.808,0.0,0.0,0.01
1776535082.30716,162.33,0.01,0.06,0.042,0.103,9.808,-0.01,-0.01,0.0
1776535082.317181,162.35,0.0,0.07,0.005,0.14,9.808,-0.01,-0.01,-0.01
1776535082.3271642,162.36,-0.01,0.09,0.018,0.132,9.808,0.0,0.0,-0.02
1776535082.3375561,162.37,-0.01,0.09,0.007,0.073,9.808,0.0,0.0,-0.02
1776535082.3471425,162.39,-0.01,0.07,0.006,0.066,9.808,-0.01,0.0,-0.02
1776535082.357141,162.39,-0.01,0.06,0.0,0.035,9.808,-0.01,0.0,-0.01
1776535082.367191,162.37,-0.01,0.06,0.01,-0.01,9.808,-0.01,0.0,0.0
1776535082.3771906,162.36,-0.01,0.04,0.022,-0.065,9.808,0.0,0.0,0.0
1776535082.38721,162.35,-0.0,0.02,0.012,-0.057,9.808,-0.01,-0.01,0.01
1776535082.3971488,162.34,-0.01,0.02,-0.002,-0.047,9.808,-0.01,-0.01,0.01
1776535082.4071457,162.34,-0.01,0.02,0.007,-0.044,9.808,-0.01,0.0,0.0
1776535082.4171567,162.35,-0.01,0.02,0.013,-0.074,9.808,0.0,0.0,-0.01
1776535082.4271429,162.37,-0.0,0.01,0.007,-0.083,9.808,0.0,-0.01,-0.02
1776535082.4371467,162.38,-0.0,0.01,0.002,-0.08,9.808,0.0,-0.01,-0.02
1776535082.4471588,162.39,-0.0,0.02,0.0,-0.062,9.808,0.0,-0.01,-0.01
1776535082.4571545,162.38,-0.0,0.03,0.013,-0.077,9.808,0.0,-0.01,-0.01
1776535082.467136,162.37,0.0,0.03,0.031,-0.035,9.808,0.0,-0.01,0.0
1776535082.477125,162.35,0.01,0.03,0.041,0.008,9.808,-0.01,-0.01,0.01
1776535082.4863122,162.34,0.01,0.04,0.034,0.046,9.808,0.0,-0.01,0.01
1776535082.4971673,162.33,0.01,0.04,0.028,0.078,9.808,0.0,0.0,0.01
1776535082.507132,162.33,-0.0,0.04,0.008,0.098,9.808,-0.01,0.0,0.0
1776535082.5171452,162.34,-0.0,0.04,-0.013,0.096,9.808,-0.01,0.0,-0.01
1776535082.5271711,162.36,-0.01,0.04,-0.043,0.089,9.808,-0.01,-0.01,-0.02
1776535082.5371501,162.38,-0.02,0.03,-0.034,0.028,9.808,-0.01,0.0,-0.02
1776535082.5471787,162.4,-0.01,0.02,-0.034,-0.025,9.808,-0.01,0.0,-0.02
1776535082.5564003,162.4,-0.01,0.01,-0.02,-0.078,9.808,-0.01,-0.01,-0.01
1776535082.5662673,162.39,0.0,0.0,0.007,-0.102,9.808,-0.01,-0.01,0.0
1776535082.5762947,162.37,0.01,-0.01,0.035,-0.102,9.808,0.0,-0.01,0.0
1776535082.5862913,162.35,0.01,-0.01,0.06,-0.078,9.808,0.0,-0.01,0.01
1776535082.596314,162.33,0.02,-0.0,0.067,-0.048,9.808,0.0,-0.01,0.01
1776535082.606323,162.33,0.01,-0.0,0.056,-0.013,9.808,0.0,0.0,0.0
1776535082.6162891,162.33,0.01,0.0,0.04,0.016,9.808,0.0,0.0,0.0
1776535082.626283,162.35,0.01,0.01,0.014,0.028,9.808,0.0,0.0,-0.01
1776535082.6362863,162.37,0.0,0.01,-0.005,0.031,9.808,0.0,0.0,-0.02
1776535082.6462855,162.38,0.0,0.01,-0.024,0.012,9.808,-0.01,0.0,-0.02
1776535082.656291,162.38,0.0,0.01,-0.031,-0.008,9.808,-0.01,-0.01,-0.01
1776535082.666315,162.37,-0.0,-0.01,-0.025,-0.026,9.808,-0.01,-0.01,-0.01
1776535082.6763144,162.36,-0.0,-0.01,0.0,-0.006,9.808,-0.01,-0.01,0.0
1776535082.6862872,162.34,0.01,-0.0,0.013,-0.002,9.808,-0.01,-0.01,0.01
1776535082.696296,162.33,0.01,-0.01,0.025,0.014,9.808,0.0,-0.01,0.01
1776535082.7062728,162.32,0.01,-0.0,0.03,0.031,9.808,-0.01,-0.01,0.01
1776535082.7162867,162.33,0.01,-0.0,0.029,0.069,9.808,-0.01,-0.01,0.0
1776535082.7262745,162.34,0.02,0.02,0.016,0.08,9.808,0.0,0.0,-0.01
1776535082.7362545,162.36,0.01,0.02,0.006,0.046,9.808,0.0,0.0,-0.02
1776535082.7462811,162.38,0.01,0.02,0.001,0.014,9.808,0.0,0.0,-0.02
1776535082.7562675,162.39,0.01,0.01,-0.005,0.018,9.808,-0.01,0.0,-0.02
1776535082.7662797,162.39,0.0,0.03,-0.007,-0.002,9.808,-0.01,0.0,-0.01
1776535082.776247,162.37,0.0,0.03,0.002,-0.032,9.808,0.0,0.0,0.0
1776535082.7862828,162.35,0.0,0.02,0.034,-0.029,9.808,0.0,0.0,0.01
1776535082.7962906,162.34,0.02,0.01,0.016,0.005,9.808,-0.01,-0.01,0.01
1776535082.8062654,162.33,0.01,0.01,-0.001,0.016,9.808,-0.01,-0.01,0.0
1776535082.816235,162.34,0.0,0.01,0.011,0.006,9.808,0.0,0.0,0.0
1776535082.8262534,162.35,0.01,0.01,0.032,-0.037,9.808,-0.01,0.0,-0.01
1776535082.8365066,162.37,0.01,-0.02,0.018,-0.05,9.808,-0.01,-0.01,-0.02
1776535082.8462589,162.38,0.01,-0.03,-0.004,-0.078,9.808,-0.01,-0.01,-0.02
1776535082.8564804,162.39,0.01,-0.04,-0.012,-0.103,9.808,-0.01,0.0,-0.01
1776535082.8662586,162.38,0.01,-0.04,0.0,-0.12,9.808,0.0,0.0,-0.01
1776535082.8762393,162.37,0.01,-0.05,0.007,-0.109,9.808,0.0,0.0,0.0
1776535082.8863308,162.35,0.02,-0.05,0.0,-0.066,9.808,-0.01,-0.01,0.01
1776535082.896252,162.33,0.02,-0.04,-0.001,-0.022,9.808,0.0,-0.01,0.01
1776535082.9062738,162.31,0.02,-0.03,0.018,0.029,9.808,0.0,-0.01,0.01
1776535082.9162323,162.3,0.03,-0.01,0.002,0.122,9.809,0.0,-0.01,0.01
1776535082.9262366,162.31,0.02,0.02,0.001,0.187,9.808,0.0,-0.01,0.0
1776535082.9362197,162.33,0.02,0.04,-0.008,0.204,9.808,0.0,0.0,-0.01
1776535082.9462657,162.36,0.02,0.05,-0.013,0.184,9.808,0.0,0.0,-0.02
1776535082.9562335,162.38,0.02,0.05,-0.03,0.154,9.808,0.0,0.0,-0.02
1776535082.9662502,162.4,0.01,0.05,-0.026,0.068,9.808,-0.01,0.0,-0.02
1776535082.9762213,162.4,0.01,0.03,0.0,0.01,9.808,-0.01,0.0,-0.01
1776535082.986205,162.38,0.01,0.02,0.031,-0.053,9.808,-0.01,0.0,0.0
1776535082.9962075,162.37,0.02,-0.02,0.043,-0.08,9.808,-0.01,-0.01,0.01
1776535083.0062323,162.35,0.02,-0.04,0.025,-0.08,9.808,-0.02,-0.01,0.01
1776535083.016234,162.34,0.02,-0.06,0.0,-0.09,9.808,-0.02,-0.01,0.01
1776535083.0262353,162.34,0.01,-0.07,0.0,-0.12,9.808,-0.01,0.0,0.0
1776535083.0362604,162.35,0.01,-0.09,0.006,-0.146,9.808,-0.01,0.0,-0.01
1776535083.0462613,162.36,0.02,-0.1,-0.011,-0.139,9.808,-0.01,-0.01,-0.01
1776535083.056247,162.37,0.02,-0.1,-0.031,-0.145,9.808,0.0,-0.01,-0.02
1776535083.0662553,162.38,0.02,-0.08,-0.022,-0.146,9.808,0.0,-0.01,-0.02
1776535083.0762086,162.38,0.02,-0.07,0.002,-0.113,9.808,0.01,-0.01,-0.01
1776535083.0862195,162.37,0.02,-0.04,0.001,-0.044,9.808,0.01,-0.01,0.0
1776535083.0962121,162.35,0.03,-0.0,0.017,0.034,9.808,0.01,-0.01,0.0
1776535083.106223,162.34,0.04,0.02,0.043,0.122,9.808,0.01,-0.01,0.01
1776535083.1162176,162.33,0.04,0.04,0.04,0.211,9.808,0.0,-0.01,0.01
1776535083.1262481,162.33,0.04,0.06,0.011,0.299,9.808,-0.01,-0.01,0.0
1776535083.1362064,162.35,0.02,0.08,0.018,0.279,9.808,-0.01,0.0,-0.01
1776535083.146227,162.36,0.01,0.07,0.02,0.186,9.808,0.0,0.0,-0.02
1776535083.1562529,162.37,0.01,0.04,0.025,0.115,9.808,-0.02,0.0,-0.01
1776535083.1662376,162.38,0.01,0.01,-0.001,0.054,9.808,-0.02,0.0,-0.01
1776535083.1762667,162.37,0.0,-0.02,-0.034,-0.036,9.808,-0.02,-0.01,-0.01
1776535083.1862288,162.37,-0.0,-0.05,-0.007,-0.115,9.808,-0.02,0.0,0.0
1776535083.196228,162.35,0.01,-0.09,-0.004,-0.18,9.809,-0.01,-0.01,0.0
1776535083.206228,162.34,0.02,-0.11,-0.026,-0.18,9.808,-0.02,-0.01,0.01
1776535083.216224,162.33,0.01,-0.11,-0.036,-0.139,9.808,-0.01,-0.01,0.0
1776535083.226225,162.34,0.01,-0.09,-0.037,-0.138,9.808,0.0,0.0,0.0
1776535083.2362232,162.35,0.0,-0.06,-0.026,-0.164,9.808,0.02,0.0,-0.01
1776535083.2462282,162.35,0.01,-0.06,0.0,-0.126,9.809,0.01,-0.01,-0.01
1776535083.2562156,162.36,0.03,-0.04,0.012,-0.032,9.808,0.0,-0.01,-0.01
1776535083.2661943,162.36,0.03,-0.01,0.019,0.049,9.808,0.01,-0.01,-0.01
1776535083.2761912,162.36,0.03,0.03,0.08,0.101,9.808,0.01,-0.01,-0.01
1776535083.2861779,162.35,0.04,0.04,0.11,0.139,9.808,0.01,0.0,0.0
1776535083.29622,162.34,0.04,0.05,0.086,0.183,9.808,0.0,0.0,0.0
1776535083.3062215,162.33,0.04,0.05,0.041,0.211,9.808,-0.01,0.0,0.0
1776535083.3162115,162.33,0.02,0.05,0.02,0.195,9.808,-0.01,0.0,0.0
1776535083.326178,162.33,0.01,0.03,0.011,0.103,9.808,-0.01,0.0,0.0
1776535083.3361733,162.34,0.01,-0.01,-0.012,0.037,9.808,-0.02,0.0,-0.01
1776535083.3461895,162.35,0.01,-0.03,-0.037,0.008,9.808,-0.02,-0.01,-0.01
1776535083.3562255,162.37,0.01,-0.05,-0.053,-0.071,9.808,-0.02,-0.01,-0.01
1776535083.3661804,162.37,0.01,-0.07,-0.042,-0.144,9.808,-0.01,-0.01,-0.01
1776535083.3761914,162.38,0.01,-0.09,-0.044,-0.169,9.808,-0.01,-0.01,-0.01
1776535083.3861868,162.37,0.02,-0.08,-0.049,-0.154,9.808,0.0,-0.01,-0.01
1776535083.3962116,162.37,0.02,-0.07,-0.014,-0.158,9.808,0.01,-0.01,0.0
1776535083.4061966,162.35,0.03,-0.05,0.041,-0.135,9.808,0.01,-0.01,0.0
1776535083.4161928,162.34,0.04,-0.04,0.048,-0.054,9.808,0.0,-0.01,0.0
1776535083.4261816,162.33,0.04,-0.01,0.041,0.051,9.808,0.0,-0.01,0.01
1776535083.4361715,162.33,0.04,0.02,0.057,0.137,9.808,0.01,0.0,0.0
1776535083.4461684,162.33,0.04,0.05,0.071,0.168,9.808,0.01,0.0,0.0
1776535083.4561768,162.35,0.04,0.04,0.037,0.165,9.808,0.0,0.0,-0.01
1776535083.466167,162.35,0.03,0.04,0.005,0.169,9.808,-0.02,0.0,-0.02
1776535083.4761465,162.37,0.02,0.03,-0.004,0.16,9.808,-0.02,0.0,-0.01
1776535083.4861424,162.37,0.02,0.03,-0.005,0.056,9.808,-0.01,0.0,-0.01
1776535083.4953487,162.37,0.02,-0.01,0.002,-0.013,9.808,-0.01,0.0,-0.01
1776535083.5061538,162.37,0.03,-0.05,-0.012,-0.061,9.808,-0.02,-0.01,-0.01
1776535083.516186,162.37,0.03,-0.05,-0.041,-0.072,9.808,-0.02,-0.01,0.0
1776535083.5261805,162.36,0.02,-0.05,-0.024,-0.095,9.808,-0.01,-0.01,0.0
1776535083.536164,162.36,0.02,-0.05,-0.006,-0.126,9.808,0.0,0.0,0.0
1776535083.5461724,162.36,0.03,-0.06,0.01,-0.133,9.808,0.0,-0.01,0.0
1776535083.556169,162.36,0.04,-0.06,0.032,-0.077,9.808,-0.01,-0.01,-0.01
1776535083.566159,162.36,0.05,-0.04,0.011,-0.03,9.808,0.0,-0.01,-0.01
1776535083.5761442,162.36,0.03,-0.02,0.037,-0.005,9.808,0.01,0.0,0.0
1776535083.585365,162.35,0.03,-0.01,0.066,-0.005,9.808,0.01,0.0,0.0
1776535083.5961535,162.35,0.05,-0.01,0.055,0.022,9.808,0.0,0.0,0.0
1776535083.60616,162.35,0.05,-0.01,0.01,0.084,9.808,-0.01,-0.01,0.0
1776535083.6161406,162.35,0.04,0.01,0.001,0.132,9.808,-0.01,-0.01,0.0
1776535083.6253715,162.35,0.03,0.02,0.013,0.109,9.809,0.0,0.0,-0.01
1776535083.635297,162.35,0.02,0.02,0.022,0.068,9.808,0.0,0.0,-0.01
1776535083.645352,162.35,0.03,0.0,0.0,0.05,9.808,-0.01,0.0,-0.01
1776535083.6553273,162.35,0.02,-0.0,-0.029,0.046,9.808,-0.01,-0.01,0.0
1776535083.665345,162.34,0.01,-0.01,-0.031,0.011,9.808,-0.01,0.0,0.0
1776535083.6753051,162.34,0.01,-0.01,-0.01,-0.014,9.808,-0.01,0.0,0.0
1776535083.6853476,162.34,0.02,-0.02,-0.011,-0.016,9.808,-0.01,-0.01,0.0
1776535083.6953206,162.35,0.02,-0.03,-0.024,-0.031,9.808,-0.01,-0.01,-0.01
1776535083.706148,162.36,0.02,-0.04,-0.005,-0.046,9.808,-0.01,-0.01,-0.01
1776535083.715335,162.37,0.02,-0.03,0.0,-0.074,9.808,0.0,0.0,-0.01
1776535083.777957,162.37,0.02,-0.03,0.01,-0.105,9.808,0.0,-0.01,-0.01
1776535083.7795634,162.37,0.03,-0.04,0.031,-0.107,9.808,0.0,-0.01,-0.01
1776535083.7809532,162.37,0.04,-0.04,0.034,-0.078,9.808,0.0,-0.01,0.0
1776535083.7823665,162.35,0.04,-0.03,0.019,-0.022,9.808,0.0,-0.01,0.0
1776535083.783717,162.34,0.03,-0.0,0.032,0.029,9.808,0.0,0.0,0.01
1776535083.7850606,162.33,0.03,0.01,0.05,0.071,9.808,0.0,0.0,0.01
1776535083.7864738,162.33,0.04,0.01,0.023,0.116,9.808,0.0,-0.01,0.0
1776535083.7954843,162.33,0.03,0.01,-0.012,0.148,9.808,-0.01,-0.01,-0.01
1776535083.8511004,162.35,0.03,0.02,-0.019,0.139,9.808,-0.01,0.0,-0.01
1776535083.8729014,162.36,0.02,0.02,-0.01,0.071,9.808,0.0,0.0,-0.02
1776535083.880183,162.37,0.02,0.0,-0.011,0.008,9.808,-0.01,0.0,-0.02
1776535083.8837552,162.37,0.02,-0.02,-0.022,-0.024,9.808,-0.01,-0.01,-0.01
1776535083.8852184,162.37,0.02,-0.02,-0.028,-0.048,9.808,-0.01,-0.01,-0.01
1776535083.887932,162.36,0.02,-0.02,-0.011,-0.091,9.808,0.0,0.0,0.0
1776535083.8905735,162.35,0.02,-0.03,0.01,-0.101,9.808,0.0,0.0,0.0
1776535083.8923256,162.33,0.03,-0.03,0.024,-0.061,9.808,0.0,-0.01,0.01
1776535083.8950005,162.33,0.03,-0.03,0.02,-0.022,9.808,0.0,-0.01,0.0
1776535083.8978167,162.33,0.03,-0.01,0.024,0.007,9.808,0.0,-0.01,0.0
1776535083.9056401,162.33,0.03,-0.0,0.043,0.017,9.808,0.0,0.0,-0.01
1776535083.9153829,162.35,0.03,-0.01,0.031,0.029,9.808,0.0,0.0,-0.01
1776535083.9253314,162.36,0.04,0.0,0.001,0.038,9.808,-0.01,-0.01,-0.01
1776535083.935276,162.37,0.02,0.0,-0.004,0.028,9.808,0.0,0.0,-0.01
1776535083.9455929,162.37,0.02,0.0,-0.001,0.007,9.808,0.0,0.0,-0.01
1776535083.9553473,162.35,0.02,-0.0,-0.006,-0.002,9.808,-0.01,0.0,0.0
1776535083.9653435,162.34,0.02,-0.01,-0.014,0.012,9.808,-0.01,-0.01,0.0
1776535083.9754443,162.33,0.02,-0.01,-0.006,0.042,9.808,-0.01,-0.01,0.01
1776535083.9852877,162.31,0.02,-0.0,0.0,0.041,9.808,-0.01,0.0,0.01
1776535083.9955904,162.32,0.03,-0.0,0.006,0.047,9.808,-0.01,-0.01,0.0
1776535084.0052388,162.33,0.03,-0.0,0.001,0.053,9.808,-0.01,-0.01,-0.01
1776535084.0152576,162.35,0.03,-0.0,0.006,0.023,9.808,-0.01,-0.01,-0.01
1776535084.0253825,162.36,0.02,-0.0,0.004,-0.018,9.808,0.0,0.0,-0.02
1776535084.0352755,162.37,0.02,-0.01,0.013,-0.059,9.808,0.0,0.0,-0.01
1776535084.0453062,162.36,0.03,-0.02,0.0,-0.063,9.808,0.0,0.0,-0.01
1776535084.0552742,162.35,0.03,-0.02,-0.004,-0.061,9.808,-0.01,-0.01,0.0
1776535084.0652761,162.34,0.03,-0.02,0.0,-0.037,9.808,0.0,0.0,0.0
1776535084.0752869,162.33,0.03,-0.01,0.008,-0.01,9.808,0.0,0.0,0.01
1776535084.0853004,162.33,0.03,-0.01,0.0,0.008,9.808,0.0,-0.01,0.0
1776535084.0952768,162.33,0.03,-0.01,0.004,0.031,9.808,-0.01,-0.01,0.0
1776535084.1052992,162.34,0.03,-0.0,-0.004,0.032,9.808,0.0,-0.01,-0.01
1776535084.1152222,162.35,0.02,-0.0,0.0,0.029,9.808,0.0,0.0,-0.01
1776535084.1252894,162.35,0.02,-0.0,-0.006,0.002,9.808,0.0,0.0,-0.01
1776535084.1352792,162.35,0.02,-0.0,0.006,-0.01,9.808,0.0,0.0,-0.01
1776535084.1452804,162.35,0.02,-0.0,0.007,0.006,9.808,0.0,0.0,0.0
1776535084.155222,162.33,0.02,0.0,0.012,0.02,9.808,-0.01,-0.01,0.0
1776535084.1652894,162.33,0.03,0.0,0.012,0.038,9.808,0.0,-0.01,0.0
1776535084.175788,162.33,0.03,0.0,0.016,0.057,9.808,-0.01,-0.01,0.0
1776535084.1852727,162.33,0.03,0.0,0.013,0.049,9.808,-0.01,0.0,-0.01
1776535084.195225,162.35,0.03,0.0,0.019,0.026,9.808,-0.01,-0.01,-0.01
1776535084.2052438,162.36,0.03,-0.0,0.019,-0.018,9.808,-0.01,0.0,-0.02
1776535084.2152407,162.37,0.03,-0.01,0.012,-0.035,9.808,-0.01,-0.01,-0.02
1776535084.2252352,162.37,0.03,-0.02,0.008,-0.061,9.808,-0.01,0.0,-0.01
1776535084.2352254,162.36,0.03,-0.02,0.017,-0.077,9.808,0.0,0.0,0.0
1776535084.245422,162.35,0.02,-0.03,0.019,-0.074,9.808,0.0,0.0,0.0
1776535084.255272,162.33,0.02,-0.03,0.029,-0.032,9.808,0.0,-0.01,0.01
1776535084.2652254,162.31,0.03,-0.01,0.018,0.006,9.808,-0.01,-0.01,0.01
1776535084.2752104,162.3,0.03,-0.0,0.02,0.054,9.809,0.0,-0.01,0.01
1776535084.2852333,162.31,0.03,0.0,0.014,0.072,9.808,0.0,0.0,0.0
1776535084.2952666,162.33,0.03,0.01,-0.007,0.08,9.808,-0.01,-0.01,-0.01
1776535084.3052132,162.35,0.02,0.01,-0.016,0.068,9.809,-0.01,-0.01,-0.02
1776535084.3152416,162.37,0.02,0.01,-0.018,0.044,9.808,-0.01,0.0,-0.02
1776535084.3253212,162.37,0.02,0.0,-0.011,-0.016,9.808,0.0,0.0,-0.02
1776535084.3352287,162.37,0.03,-0.01,-0.013,-0.035,9.808,-0.01,-0.01,-0.01
1776535084.3452325,162.36,0.03,-0.02,-0.001,-0.036,9.808,-0.01,-0.01,0.0
1776535084.3552554,162.34,0.03,-0.02,0.011,-0.024,9.808,-0.01,-0.01,0.01
1776535084.365243,162.33,0.03,-0.02,0.026,-0.024,9.808,0.0,0.0,0.01
1776535084.3752344,162.31,0.03,-0.02,0.041,0.0,9.808,0.0,0.0,0.01
1776535084.38537,162.31,0.03,-0.01,0.031,0.022,9.808,-0.01,-0.01,0.0
1776535084.3957162,162.32,0.03,-0.01,0.026,0.03,9.808,-0.01,-0.01,-0.01
1776535084.4052308,162.33,0.03,-0.0,0.014,0.028,9.808,0.0,0.0,-0.01
1776535084.4151964,162.35,0.03,-0.0,0.0,0.022,9.808,0.0,0.0,-0.02
1776535084.425215,162.36,0.02,0.0,-0.011,-0.001,9.808,0.0,0.0,-0.02
1776535084.435196,162.36,0.02,-0.0,-0.019,-0.017,9.808,0.0,0.0,-0.01
1776535084.4451797,162.35,0.02,-0.0,-0.029,-0.031,9.808,0.0,-0.01,0.0
1776535084.455183,162.34,0.02,-0.01,-0.019,-0.02,9.808,-0.01,-0.01,0.0
1776535084.465231,162.32,0.03,-0.01,-0.004,0.004,9.808,-0.01,-0.01,0.01
1776535084.4751964,162.3,0.03,-0.0,0.002,0.026,9.808,-0.01,-0.01,0.01
1776535084.4851775,162.3,0.03,0.0,0.016,0.048,9.809,0.0,-0.01,0.0
1776535084.4952312,162.31,0.03,0.0,0.029,0.05,9.808,0.0,0.0,0.0
1776535084.5051932,162.33,0.04,0.0,0.026,0.059,9.808,-0.01,-0.01,-0.01
1776535084.5151684,162.34,0.03,0.0,0.018,0.031,9.808,-0.01,0.0,-0.02
1776535084.5251572,162.35,0.03,0.01,0.011,0.005,9.808,0.0,0.0,-0.02
1776535084.5352154,162.36,0.03,0.0,0.012,-0.037,9.808,0.0,0.0,-0.02
1776535084.5452027,162.36,0.03,-0.0,0.0,-0.043,9.808,0.0,-0.01,-0.01
1776535084.5551805,162.35,0.03,-0.0,0.0,-0.048,9.808,-0.01,0.0,0.0
1776535084.5654151,162.33,0.02,-0.0,0.001,-0.012,9.808,0.0,-0.01,0.01
1776535084.5752106,162.31,0.03,-0.0,0.012,0.008,9.808,0.0,-0.01,0.01
1776535084.5843573,162.3,0.03,-0.0,0.0,0.044,9.808,-0.01,-0.01,0.0
1776535084.5943305,162.31,0.03,0.0,0.0,0.065,9.808,-0.01,-0.01,0.0
1776535084.604377,162.33,0.02,0.01,-0.005,0.055,9.808,-0.01,0.0,-0.01
1776535084.614368,162.34,0.02,0.01,-0.001,0.016,9.808,0.0,0.0,-0.02
1776535084.62518,162.35,0.03,0.0,-0.013,0.0,9.808,0.0,0.0,-0.02
1776535084.6345358,162.36,0.03,-0.0,-0.007,-0.012,9.808,-0.01,-0.01,-0.01
1776535084.6443658,162.36,0.03,-0.0,-0.011,-0.038,9.808,0.0,-0.01,-0.01
1776535084.6551933,162.35,0.03,-0.0,0.004,-0.031,9.809,0.0,-0.01,0.0
1776535084.665164,162.34,0.03,-0.01,0.014,-0.022,9.808,0.0,-0.01,0.0
1776535084.6751838,162.33,0.03,-0.01,0.034,0.001,9.808,-0.01,-0.01,0.0
1776535084.684366,162.32,0.04,0.0,0.036,0.02,9.808,0.0,0.0,0.0
1776535084.6943355,162.31,0.04,0.0,0.042,0.04,9.808,-0.01,0.0,0.0
1776535084.705201,162.31,0.04,0.01,0.031,0.046,9.808,0.0,0.0,0.0
1776535084.7151887,162.32,0.03,0.0,0.01,0.042,9.808,-0.01,0.0,-0.01
1776535084.725195,162.33,0.03,0.01,-0.01,0.032,9.808,-0.01,0.0,-0.01
1776535084.7351632,162.34,0.02,0.0,-0.019,0.012,9.808,-0.01,0.0,-0.01
1776535084.7451677,162.35,0.02,0.0,-0.02,-0.017,9.808,0.0,0.0,-0.01
1776535084.7551699,162.35,0.02,-0.0,-0.022,-0.035,9.808,0.0,-0.01,-0.01
1776535084.7651677,162.34,0.03,-0.0,-0.013,-0.019,9.808,-0.01,-0.01,0.0
1776535084.7751796,162.33,0.03,0.0,-0.005,-0.019,9.808,0.0,-0.01,0.0
1776535084.7843757,162.33,0.03,0.0,0.004,0.0,9.808,0.0,-0.01,0.0
1776535084.7946997,162.33,0.03,0.01,0.022,0.014,9.808,0.0,-0.01,0.0
1776535084.804358,162.33,0.04,0.01,0.044,0.018,9.808,0.0,0.0,0.0
1776535084.815363,162.33,0.04,0.01,0.051,0.029,9.808,-0.01,0.0,0.0
1776535084.825473,162.32,0.04,0.01,0.046,0.025,9.808,-0.01,-0.01,0.0
1776535084.8342805,162.32,0.04,0.01,0.04,0.026,9.808,-0.01,0.0,0.0
1776535084.8442457,162.32,0.03,0.01,0.016,0.016,9.808,0.0,0.0,-0.01
1776535084.8542414,162.33,0.03,0.0,-0.006,0.011,9.808,-0.01,0.0,-0.01
1776535084.8642428,162.33,0.02,0.0,-0.026,-0.002,9.808,-0.01,0.0,-0.01
1776535084.8742378,162.33,0.02,0.0,-0.03,-0.019,9.808,0.0,0.0,-0.01
1776535084.8842342,162.34,0.02,0.0,-0.047,-0.03,9.808,0.0,-0.01,-0.01
1776535084.8942401,162.34,0.02,-0.0,-0.036,-0.025,9.808,0.0,-0.01,-0.01
1776535084.904243,162.34,0.02,0.0,-0.024,-0.023,9.808,0.0,-0.01,-0.01
1776535084.9142344,162.34,0.03,0.0,0.005,-0.018,9.808,0.0,-0.01,-0.01
1776535084.9242413,162.33,0.03,0.0,0.029,-0.005,9.808,-0.01,-0.01,0.0
1776535084.934245,162.33,0.04,0.0,0.049,0.005,9.808,0.0,-0.01,0.0
1776535084.944232,162.32,0.04,0.0,0.063,0.016,9.808,-0.01,0.0,0.0
1776535084.9542751,162.31,0.04,0.0,0.05,0.024,9.808,-0.01,0.0,0.0
1776535084.9642348,162.3,0.04,0.0,0.042,0.036,9.808,-0.01,0.0,0.0
1776535084.9742389,162.31,0.03,0.0,0.019,0.031,9.808,-0.01,0.0,0.0
1776535084.9842744,162.32,0.02,0.0,-0.01,0.013,9.808,-0.01,0.0,-0.01
1776535084.99424,162.33,0.02,0.0,-0.035,0.001,9.808,-0.01,0.0,-0.01
1776535085.0046318,162.34,0.01,0.0,-0.05,-0.007,9.808,0.0,-0.01,-0.01
1776535085.0142946,162.35,0.01,0.0,-0.044,-0.026,9.808,0.0,-0.01,-0.01
1776535085.0242436,162.35,0.02,-0.0,-0.034,-0.037,9.808,0.0,-0.01,-0.01
1776535085.03424,162.34,0.02,-0.0,-0.019,-0.014,9.808,-0.01,-0.01,0.0
1776535085.0442798,162.33,0.02,0.0,-0.001,-0.008,9.808,0.0,-0.01,0.0
1776535085.054742,162.33,0.03,0.0,0.029,-0.002,9.808,0.0,-0.01,0.0
1776535085.064228,162.32,0.04,0.0,0.047,0.005,9.808,0.0,-0.01,0.0
1776535085.074237,162.31,0.04,0.01,0.063,0.032,9.808,-0.01,0.0,0.0
1776535085.0842507,162.31,0.04,0.0,0.057,0.028,9.808,-0.01,0.0,0.0
1776535085.0942268,162.31,0.04,0.01,0.037,0.044,9.808,-0.01,0.0,0.0
1776535085.1042874,162.33,0.03,0.01,0.018,0.034,9.808,0.0,0.0,-0.01
1776535085.1142411,162.34,0.02,0.01,-0.004,0.022,9.808,-0.01,0.0,-0.01
1776535085.1242778,162.35,0.02,0.01,-0.038,0.004,9.808,-0.01,0.0,-0.01
1776535085.1342175,162.35,0.01,0.0,-0.05,-0.011,9.808,0.0,-0.01,-0.01
1776535085.1442266,162.35,0.01,0.0,-0.048,-0.035,9.809,0.0,0.0,-0.01
1776535085.1544056,162.34,0.01,0.0,-0.034,-0.041,9.808,0.0,-0.01,0.0
1776535085.1642172,162.33,0.02,0.0,-0.017,-0.023,9.808,-0.01,-0.01,0.0
1776535085.1742218,162.31,0.02,0.0,-0.005,0.0,9.808,-0.01,-0.01,0.01
1776535085.184201,162.3,0.02,0.01,0.022,0.028,9.809,0.0,-0.01,0.0
1776535085.1942854,162.3,0.03,0.01,0.032,0.031,9.808,0.0,-0.01,0.0
1776535085.2044652,162.3,0.03,0.01,0.037,0.044,9.809,-0.01,-0.01,0.0
1776535085.2142224,162.32,0.03,0.01,0.02,0.044,9.808,-0.01,-0.01,-0.01
1776535085.2242296,162.33,0.02,0.01,0.013,0.025,9.808,-0.01,0.0,-0.01
1776535085.2342627,162.35,0.02,0.01,0.002,-0.007,9.808,0.0,0.0,-0.02
1776535085.2443793,162.35,0.02,0.0,-0.008,-0.041,9.808,0.0,0.0,-0.01
1776535085.2542262,162.35,0.02,-0.0,-0.035,-0.029,9.808,-0.01,-0.01,-0.01
1776535085.2648568,162.34,0.01,-0.0,-0.031,-0.023,9.808,-0.01,-0.01,0.0
1776535085.2742493,162.33,0.01,0.0,-0.016,-0.019,9.808,0.0,0.0,0.0
1776535085.284232,162.32,0.01,0.0,-0.001,-0.012,9.808,0.0,0.0,0.0
1776535085.294335,162.31,0.02,0.0,0.013,0.024,9.808,-0.01,-0.01,0.0
1776535085.3044562,162.31,0.03,0.01,0.026,0.03,9.808,-0.01,-0.01,0.0
1776535085.314216,162.31,0.03,0.01,0.03,0.046,9.808,-0.01,-0.01,0.0
1776535085.3242311,162.32,0.03,0.01,0.038,0.022,9.808,0.0,0.0,-0.01
1776535085.3344536,162.33,0.03,0.01,0.03,0.017,9.808,-0.01,0.0,-0.01
1776535085.3442388,162.33,0.03,0.0,0.019,-0.002,9.808,-0.01,0.0,-0.01
1776535085.3542407,162.33,0.02,0.0,0.001,-0.02,9.808,-0.01,-0.01,-0.01
1776535085.364373,162.33,0.02,0.0,-0.005,-0.022,9.808,0.0,0.0,-0.01
1776535085.374236,162.33,0.02,0.0,-0.014,-0.029,9.808,0.0,-0.01,-0.01
1776535085.384344,162.33,0.02,0.0,-0.008,-0.025,9.808,0.0,0.0,0.0
1776535085.3942177,162.33,0.02,0.0,-0.007,-0.01,9.808,0.0,-0.01,0.0
1776535085.4042943,162.32,0.02,0.0,0.007,0.001,9.808,0.0,-0.01,0.0
1776535085.4145496,162.31,0.02,0.01,0.016,0.01,9.808,0.0,-0.01,0.0
1776535085.4242353,162.31,0.03,0.01,0.036,0.032,9.808,0.0,0.0,0.0
1776535085.4343798,162.31,0.03,0.01,0.024,0.035,9.808,-0.01,-0.01,0.0
1776535085.4444191,162.31,0.03,0.01,0.013,0.034,9.808,-0.01,0.0,-0.01
1776535085.4542441,162.32,0.02,0.0,-0.002,0.031,9.808,-0.01,0.0,-0.01
1776535085.464211,162.33,0.02,0.0,-0.01,0.01,9.808,-0.01,0.0,-0.01
1776535085.4744818,162.33,0.01,0.0,-0.014,-0.017,9.808,0.0,0.0,-0.01
1776535085.4845147,162.34,0.01,-0.0,-0.02,-0.046,9.808,0.0,0.0,-0.01
1776535085.4942608,162.34,0.01,-0.01,-0.017,-0.057,9.808,0.0,-0.01,-0.01
1776535085.504242,162.33,0.02,-0.01,-0.014,-0.054,9.808,0.0,-0.01,0.0
1776535085.5142434,162.33,0.01,-0.0,-0.007,-0.047,9.808,0.0,-0.01,0.0
1776535085.5243607,162.32,0.02,-0.0,0.014,-0.017,9.808,0.0,-0.01,0.0
1776535085.5341983,162.31,0.02,0.0,0.03,0.001,9.808,0.0,-0.01,0.0
1776535085.5441747,162.31,0.03,0.0,0.038,0.03,9.808,0.0,-0.01,0.0
1776535085.5542212,162.31,0.03,0.01,0.04,0.047,9.808,-0.01,-0.01,0.0
1776535085.5642836,162.31,0.03,0.01,0.029,0.065,9.808,-0.01,0.0,0.0
1776535085.5742433,162.32,0.02,0.01,0.014,0.047,9.808,-0.01,0.0,-0.01
1776535085.5842423,162.33,0.02,0.0,0.0,0.023,9.808,-0.01,0.0,-0.01
1776535085.5944335,162.33,0.01,-0.0,-0.013,0.0,9.808,-0.01,0.0,-0.01
1776535085.6042566,162.33,0.01,-0.0,-0.028,-0.006,9.808,-0.01,-0.01,-0.01
1776535085.6142478,162.33,0.01,-0.0,-0.036,-0.035,9.808,0.0,-0.01,-0.01
1776535085.6242144,162.33,0.01,-0.01,-0.028,-0.031,9.808,0.0,-0.01,0.0
1776535085.6342585,162.33,0.02,-0.0,-0.016,-0.024,9.808,0.0,-0.01,0.0
1776535085.6441925,162.33,0.02,-0.0,-0.001,-0.016,9.808,0.0,-0.01,0.0
1776535085.6541831,162.33,0.02,0.0,0.016,-0.007,9.808,0.0,0.0,0.0
1776535085.663638,162.32,0.02,0.0,0.037,0.007,9.808,0.0,-0.01,0.0
1776535085.6742158,162.31,0.03,0.0,0.056,0.023,9.808,0.0,0.0,0.0
1776535085.6841884,162.3,0.03,0.01,0.053,0.035,9.809,-0.01,0.0,0.0
1776535085.6939178,162.3,0.03,0.0,0.034,0.053,9.809,-0.01,0.0,0.0
1776535085.7044601,162.3,0.02,0.01,0.011,0.055,9.809,-0.01,0.0,0.0
1776535085.7142074,162.31,0.02,0.01,-0.002,0.028,9.808,-0.01,0.0,-0.01
1776535085.724229,162.32,0.01,0.0,-0.019,0.006,9.808,0.0,0.0,-0.01
1776535085.7341897,162.33,0.01,-0.0,-0.034,-0.011,9.808,-0.01,0.0,-0.01
1776535085.744222,162.33,0.01,-0.0,-0.047,-0.028,9.808,-0.01,-0.01,-0.01
1776535085.7541835,162.33,0.01,-0.0,-0.04,-0.04,9.808,0.0,-0.01,-0.01
1776535085.7641845,162.33,0.01,-0.0,-0.019,-0.038,9.808,0.0,-0.01,0.0
1776535085.7734106,162.32,0.01,0.0,0.0,-0.022,9.808,0.0,-0.01,0.0
1776535085.7833607,162.31,0.02,0.0,0.02,-0.004,9.808,0.0,-0.01,0.0
1776535085.7944975,162.3,0.03,0.0,0.044,0.016,9.808,0.0,-0.01,0.0
1776535085.8034003,162.3,0.03,0.01,0.06,0.023,9.809,0.0,0.0,0.0
1776535085.8133893,162.3,0.03,0.01,0.057,0.032,9.809,-0.01,0.0,0.0
1776535085.8233516,162.3,0.03,0.0,0.046,0.032,9.809,-0.01,0.0,0.0
1776535085.8333457,162.3,0.02,0.0,0.018,0.023,9.808,-0.01,0.0,-0.01
1776535085.8433316,162.31,0.02,-0.0,-0.008,0.017,9.808,-0.01,0.0,-0.01
1776535085.8533814,162.32,0.01,-0.0,-0.035,-0.008,9.808,-0.01,0.0,-0.01
1776535085.864175,162.33,0.01,-0.0,-0.043,-0.031,9.808,0.0,0.0,-0.01
1776535085.8741744,162.33,0.01,-0.01,-0.05,-0.044,9.808,0.0,-0.01,-0.01
1776535085.8842125,162.32,0.01,-0.01,-0.042,-0.035,9.808,0.0,-0.01,0.0
1776535085.8934171,162.32,0.01,-0.0,-0.026,-0.034,9.808,0.0,-0.01,0.0
1776535085.9033282,162.31,0.01,-0.0,0.002,-0.019,9.808,0.0,-0.01,0.0
1776535085.913389,162.3,0.02,0.0,0.028,-0.002,9.809,0.0,-0.01,0.0
1776535085.9233131,162.3,0.03,0.0,0.051,0.017,9.808,0.0,-0.01,0.0
1776535085.9333591,162.3,0.03,0.01,0.054,0.032,9.808,-0.01,-0.01,0.0
1776535085.943331,162.3,0.03,0.01,0.053,0.044,9.809,-0.01,0.0,-0.01
1776535085.9534302,162.31,0.03,0.0,0.037,0.04,9.808,-0.01,0.0,-0.01
1776535085.9633434,162.33,0.02,0.0,0.01,0.032,9.808,-0.01,0.0,-0.01
1776535085.9733567,162.33,0.01,0.0,-0.018,0.018,9.808,-0.01,0.0,-0.01
1776535085.983369,162.34,0.01,0.0,-0.036,-0.008,9.808,0.0,0.0,-0.01
1776535085.993393,162.34,0.01,-0.0,-0.046,-0.013,9.808,0.0,-0.01,-0.01
1776535086.0033545,162.33,0.01,-0.0,-0.042,-0.012,9.808,-0.01,-0.01,0.0
1776535086.0134404,162.32,0.01,0.01,-0.029,-0.011,9.808,0.0,-0.01,0.0
1776535086.0233517,162.31,0.01,0.0,-0.006,-0.008,9.808,0.0,-0.01,0.0
1776535086.0334098,162.3,0.01,0.0,0.024,0.008,9.808,0.0,-0.01,0.0
1776535086.0433054,162.29,0.02,0.0,0.031,0.018,9.808,-0.01,-0.01,0.0
1776535086.0533214,162.29,0.02,0.0,0.037,0.02,9.808,-0.01,-0.01,0.0
1776535086.0633664,162.3,0.02,0.0,0.03,0.002,9.808,0.0,0.0,-0.01
1776535086.073413,162.31,0.02,0.0,0.022,-0.012,9.808,-0.01,0.0,-0.01
1776535086.0833259,162.32,0.02,-0.0,0.008,-0.035,9.808,-0.01,0.0,-0.01
1776535086.093383,162.32,0.02,-0.0,-0.007,-0.035,9.808,-0.01,-0.01,-0.01
1776535086.103344,162.32,0.01,-0.0,-0.022,-0.043,9.808,0.0,0.0,-0.01
1776535086.1133564,162.31,0.01,-0.0,-0.02,-0.034,9.808,0.0,0.0,0.0
1776535086.1233163,162.31,0.01,-0.0,-0.023,-0.004,9.808,0.0,-0.01,0.0
1776535086.1333091,162.3,0.01,0.0,-0.012,0.019,9.809,0.0,-0.01,0.0
1776535086.1433313,162.3,0.02,0.01,-0.007,0.042,9.808,0.0,-0.01,0.0
1776535086.1533172,162.3,0.02,0.02,0.013,0.054,9.808,0.0,-0.01,0.0
1776535086.1634336,162.3,0.02,0.02,0.032,0.051,9.808,0.0,0.0,0.0
1776535086.1733258,162.3,0.02,0.02,0.042,0.05,9.808,-0.01,0.0,0.0
1776535086.18331,162.3,0.02,0.01,0.03,0.048,9.809,-0.01,0.0,-0.01
1776535086.193328,162.31,0.02,0.01,0.024,0.022,9.808,-0.01,0.0,-0.01
1776535086.2033443,162.32,0.01,0.0,0.004,-0.008,9.808,-0.01,0.0,-0.01
1776535086.2135737,162.33,0.01,-0.0,-0.006,-0.041,9.808,-0.01,0.0,-0.01
1776535086.223272,162.33,0.01,-0.01,-0.025,-0.049,9.808,-0.01,-0.01,-0.01
1776535086.2332397,162.33,0.01,-0.01,-0.031,-0.049,9.808,0.0,-0.01,-0.01
1776535086.2432241,162.32,0.01,-0.01,-0.024,-0.051,9.808,0.0,-0.01,0.0
1776535086.2532175,162.32,0.01,-0.01,-0.017,-0.028,9.808,0.0,-0.01,0.0
1776535086.2632127,162.31,0.02,-0.0,0.004,-0.007,9.808,0.0,-0.01,0.0
1776535086.2731907,162.31,0.01,0.0,0.017,0.012,9.808,0.0,-0.01,0.0
1776535086.2832189,162.3,0.02,0.01,0.043,0.022,9.809,0.0,0.0,0.0
1776535086.2931995,162.3,0.03,0.01,0.049,0.037,9.808,0.0,0.0,0.0
1776535086.3032064,162.29,0.03,0.01,0.043,0.059,9.808,-0.01,-0.01,0.0
1776535086.3131952,162.29,0.02,0.01,0.028,0.062,9.808,-0.01,0.0,0.0
1776535086.3231938,162.3,0.02,0.02,0.016,0.044,9.808,-0.01,0.0,-0.01
1776535086.3332021,162.3,0.02,0.01,-0.007,0.02,9.809,-0.01,0.0,-0.01
1776535086.3432417,162.31,0.01,0.01,-0.023,0.0,9.808,-0.01,0.0,-0.01
1776535086.3532016,162.32,0.01,-0.0,-0.034,-0.016,9.808,-0.01,-0.01,-0.01
1776535086.3631964,162.32,0.01,0.01,-0.032,-0.031,9.808,0.0,-0.01,-0.01
1776535086.3732057,162.32,0.01,-0.0,-0.026,-0.043,9.808,0.0,-0.01,-0.01
1776535086.3832157,162.32,0.01,-0.0,-0.007,-0.036,9.808,0.0,-0.01,0.0
1776535086.3932016,162.32,0.02,-0.0,0.004,-0.034,9.808,0.0,-0.01,0.0
1776535086.4032636,162.31,0.02,0.0,0.032,-0.007,9.808,-0.01,-0.01,0.0
1776535086.4132,162.3,0.03,0.0,0.044,0.004,9.809,0.0,0.0,0.0
1776535086.4232242,162.3,0.03,0.01,0.067,0.03,9.808,0.0,0.0,0.0
1776535086.4333398,162.3,0.03,0.01,0.053,0.03,9.808,-0.01,0.0,0.0
1776535086.4432135,162.3,0.03,0.01,0.031,0.051,9.808,-0.01,0.0,0.0
1776535086.4531953,162.3,0.02,0.01,0.002,0.047,9.809,-0.01,0.0,-0.01
1776535086.4632018,162.31,0.02,0.01,-0.013,0.017,9.808,0.0,0.0,-0.01
1776535086.4732413,162.32,0.01,0.0,-0.037,-0.004,9.808,0.0,0.0,-0.01
1776535086.483192,162.32,0.01,-0.0,-0.046,-0.016,9.808,-0.01,-0.01,-0.01
1776535086.4931996,162.33,0.01,0.01,-0.046,-0.019,9.808,-0.01,-0.01,-0.01
1776535086.5032687,162.33,0.01,0.01,-0.034,-0.042,9.808,0.0,-0.01,-0.01
1776535086.5132127,162.32,0.01,-0.0,-0.008,-0.028,9.808,0.0,-0.01,0.0
1776535086.5232036,162.31,0.02,-0.0,0.012,-0.019,9.808,-0.01,-0.01,0.0
1776535086.5331914,162.3,0.02,-0.0,0.042,-0.005,9.808,-0.01,-0.01,0.0
1776535086.5432303,162.3,0.03,0.0,0.054,-0.004,9.808,0.0,0.0,0.0
1776535086.5532181,162.29,0.03,0.0,0.061,0.004,9.808,-0.01,0.0,0.0
1776535086.5632117,162.29,0.03,-0.01,0.04,0.012,9.808,-0.01,0.0,0.0
1776535086.573219,162.3,0.02,-0.0,0.014,0.038,9.808,-0.01,-0.01,0.0
1776535086.5831954,162.3,0.01,0.0,0.031,-0.005,9.809,0.0,0.0,-0.01
1776535086.593208,162.31,0.01,-0.0,0.004,-0.034,9.808,0.0,0.0,-0.01
1776535086.6032343,162.32,0.01,-0.01,-0.028,-0.018,9.808,-0.01,-0.01,-0.01
1776535086.6132073,162.32,0.01,-0.0,-0.044,-0.005,9.808,-0.01,-0.01,-0.01
1776535086.623195,162.32,0.01,0.01,-0.044,-0.004,9.808,0.0,0.0,-0.01
1776535086.633183,162.31,0.01,0.01,-0.041,0.005,9.808,0.0,-0.01,0.0
1776535086.6432014,162.31,0.01,0.0,-0.005,0.035,9.808,-0.01,-0.01,0.0
1776535086.653192,162.31,0.01,0.0,0.022,0.055,9.808,-0.01,-0.01,0.0
1776535086.6631856,162.31,0.02,0.01,0.056,0.056,9.808,-0.01,0.0,-0.01
1776535086.6732223,162.31,0.02,0.01,0.092,0.03,9.808,0.0,0.0,0.0
1776535086.6832275,162.31,0.02,-0.0,0.085,0.023,9.808,-0.01,0.0,0.0
1776535086.6932411,162.31,0.02,-0.01,0.046,0.01,9.808,-0.01,0.0,0.0
1776535086.7031918,162.3,0.01,-0.01,0.004,-0.007,9.808,-0.01,0.0,0.0
1776535086.7132127,162.3,-0.0,-0.01,-0.012,-0.04,9.808,0.0,0.0,0.0
1776535086.7232952,162.31,-0.0,-0.01,-0.037,-0.051,9.808,0.0,0.0,-0.01
1776535086.73321,162.31,-0.0,-0.02,-0.068,-0.049,9.808,0.0,-0.01,-0.01
1776535086.74317,162.31,-0.01,-0.01,-0.073,-0.031,9.808,-0.01,-0.01,-0.01
1776535086.7531793,162.32,-0.01,-0.01,-0.056,-0.034,9.808,0.0,-0.01,-0.01
1776535086.7632077,162.32,-0.0,-0.01,-0.029,-0.022,9.808,0.0,-0.01,-0.01
1776535086.7731946,162.32,0.01,-0.01,-0.002,-0.006,9.808,0.0,-0.01,-0.01
1776535086.7831979,162.32,0.02,-0.01,0.026,0.013,9.808,-0.01,-0.01,-0.01
1776535086.79318,162.32,0.03,-0.0,0.053,0.023,9.808,-0.01,-0.01,-0.01
1776535086.8031738,162.31,0.03,0.0,0.083,0.017,9.808,0.0,0.0,0.0
1776535086.8122733,162.3,0.03,-0.01,0.093,0.023,9.809,-0.01,0.0,0.0
1776535086.8223622,162.29,0.03,-0.01,0.08,0.034,9.808,-0.01,0.0,0.0
1776535086.8331854,162.28,0.03,-0.0,0.067,0.043,9.808,-0.01,0.0,0.0
1776535086.8422818,162.28,0.02,-0.0,0.034,0.04,9.808,-0.01,0.0,0.0
1776535086.8525624,162.28,0.01,-0.0,0.001,0.043,9.808,-0.01,0.0,0.0
1776535086.8631928,162.3,0.01,-0.0,-0.036,0.042,9.808,-0.01,0.0,-0.01
1776535086.8731794,162.31,-0.01,0.0,-0.056,0.018,9.808,-0.01,0.0,-0.01
1776535086.8823001,162.32,-0.01,0.0,-0.063,-0.008,9.808,0.0,0.0,-0.01
1776535086.893164,162.33,-0.01,-0.01,-0.051,-0.041,9.808,0.0,-0.01,-0.01
1776535086.9022982,162.33,-0.0,-0.01,-0.038,-0.047,9.808,0.0,-0.01,-0.01
1776535086.9122782,162.33,0.01,-0.01,-0.008,-0.047,9.808,0.0,-0.01,0.0
1776535086.9223022,162.33,0.02,-0.01,0.017,-0.029,9.808,0.0,-0.01,0.0
1776535086.9322836,162.32,0.03,-0.01,0.035,-0.024,9.808,-0.01,-0.01,0.0
1776535086.9422681,162.32,0.03,-0.01,0.056,0.011,9.808,-0.01,-0.01,0.0
1776535086.9523158,162.32,0.03,-0.01,0.072,0.011,9.808,0.0,0.0,0.0
1776535086.9623265,162.31,0.03,-0.01,0.079,0.016,9.808,0.0,0.0,0.0
1776535086.972299,162.31,0.03,-0.0,0.061,0.016,9.808,0.0,0.0,0.0
1776535086.9823823,162.3,0.03,-0.0,0.036,0.026,9.809,-0.01,0.0,0.0
1776535086.992273,162.3,0.02,0.0,0.004,0.031,9.809,0.0,0.0,0.0
1776535087.002295,162.3,0.01,0.0,-0.018,0.032,9.809,0.0,0.0,0.0
1776535087.0122867,162.31,0.01,0.01,-0.04,0.034,9.808,0.0,0.0,-0.01
1776535087.0222793,162.32,0.01,0.01,-0.056,0.025,9.808,-0.01,-0.01,-0.01
1776535087.0322537,162.33,0.0,0.01,-0.059,0.012,9.808,-0.01,-0.01,-0.01
1776535087.0422733,162.33,0.01,0.01,-0.037,-0.018,9.808,0.0,-0.01,-0.01
1776535087.0522723,162.33,0.01,-0.01,-0.012,-0.04,9.808,-0.01,-0.01,-0.01
1776535087.0623007,162.33,0.02,-0.01,0.01,-0.042,9.808,-0.01,-0.01,0.0
1776535087.0722687,162.32,0.02,-0.02,0.031,-0.044,9.808,-0.01,-0.01,0.0
1776535087.0822663,162.3,0.03,-0.02,0.06,-0.041,9.808,0.0,0.0,0.0
1776535087.0923612,162.3,0.03,-0.02,0.065,-0.025,9.808,0.0,0.0,0.0
1776535087.102311,162.29,0.03,-0.02,0.057,0.0,9.808,-0.01,0.0,0.0
1776535087.1122916,162.29,0.03,-0.01,0.036,0.013,9.808,-0.01,0.0,0.0
1776535087.1222517,162.3,0.02,-0.0,0.017,0.023,9.808,0.0,0.0,-0.01
1776535087.132287,162.3,0.01,-0.0,-0.007,0.013,9.808,0.0,0.0,-0.01
1776535087.142292,162.32,0.01,-0.0,-0.036,0.017,9.808,0.0,0.0,-0.01
1776535087.152275,162.32,0.01,0.01,-0.049,0.029,9.808,-0.01,-0.01,-0.01
1776535087.1622791,162.33,0.0,0.01,-0.047,0.022,9.808,0.0,-0.01,-0.01
1776535087.1722722,162.32,0.01,0.01,-0.035,0.006,9.808,0.0,-0.01,-0.01
1776535087.182278,162.32,0.01,-0.0,-0.008,0.0,9.808,-0.01,-0.01,0.0
1776535087.1922631,162.31,0.02,-0.0,0.013,0.007,9.808,-0.01,-0.01,0.0
1776535087.2022593,162.3,0.02,-0.0,0.038,0.011,9.809,-0.01,-0.01,0.0
1776535087.212248,162.3,0.03,-0.0,0.055,0.011,9.808,-0.01,-0.01,0.0
1776535087.2222567,162.3,0.03,-0.01,0.059,0.01,9.808,-0.01,-0.01,0.0
1776535087.2322767,162.3,0.03,-0.01,0.047,0.008,9.809,-0.01,-0.01,-0.01
1776535087.2422554,162.31,0.03,-0.0,0.032,-0.001,9.808,0.0,0.0,-0.01
1776535087.2523067,162.32,0.02,-0.0,0.016,-0.018,9.808,0.0,0.0,-0.01
1776535087.2624319,162.32,0.02,-0.01,-0.007,-0.023,9.808,0.0,0.0,-0.01
1776535087.2723403,162.33,0.01,-0.01,-0.036,-0.011,9.808,-0.01,-0.01,-0.01
1776535087.2897062,162.32,0.01,-0.0,-0.047,0.0,9.808,0.0,-0.01,-0.01
1776535087.292227,162.32,0.01,-0.0,-0.04,0.001,9.808,0.0,-0.01,0.0
1776535087.3022742,162.31,0.01,-0.0,-0.02,0.008,9.808,0.0,-0.01,0.0
1776535087.3122568,162.3,0.02,-0.0,0.0,0.022,9.809,-0.01,-0.01,0.0
1776535087.3222518,162.3,0.02,-0.0,0.018,0.032,9.808,-0.01,-0.01,0.0
1776535087.3322167,162.29,0.02,-0.0,0.038,0.031,9.808,-0.01,0.0,0.0
1776535087.342245,162.29,0.03,-0.0,0.048,0.026,9.808,-0.01,0.0,0.0
1776535087.352238,162.3,0.03,-0.0,0.044,0.026,9.808,-0.01,0.0,0.0
1776535087.3622181,162.3,0.03,-0.0,0.034,0.024,9.809,-0.01,0.0,-0.01
1776535087.3722227,162.31,0.03,-0.0,0.02,0.008,9.808,-0.01,0.0,-0.01
1776535087.3822348,162.32,0.02,-0.0,0.001,0.0,9.808,0.0,0.0,-0.01
1776535087.392212,162.33,0.02,-0.0,-0.008,-0.014,9.808,0.0,0.0,-0.01
1776535087.4022386,162.32,0.01,-0.0,-0.019,-0.023,9.808,0.0,0.0,-0.01
1776535087.41226,162.32,0.01,-0.0,-0.022,-0.023,9.808,0.0,-0.01,0.0
1776535087.422391,162.31,0.02,-0.0,-0.016,-0.019,9.808,0.0,-0.01,0.0
1776535087.4322562,162.3,0.02,-0.0,0.006,-0.013,9.809,0.0,-0.01,0.0
1776535087.4422517,162.3,0.02,-0.0,0.023,0.0,9.808,0.0,-0.01,0.0
1776535087.452286,162.29,0.03,-0.0,0.038,0.007,9.808,0.0,-0.01,0.0
1776535087.4623117,162.28,0.03,0.0,0.042,0.024,9.808,-0.01,-0.01,0.0
1776535087.4723077,162.28,0.03,0.0,0.042,0.029,9.808,0.0,0.0,0.0
1776535087.4823747,162.29,0.03,0.0,0.03,0.036,9.808,-0.01,0.0,-0.01
1776535087.4922554,162.3,0.03,0.0,0.023,0.034,9.808,0.0,0.0,-0.01
1776535087.5022504,162.3,0.02,0.0,0.002,0.026,9.808,-0.01,0.0,-0.01
1776535087.51234,162.32,0.02,0.0,-0.008,0.018,9.808,-0.01,0.0,-0.01
1776535087.5222514,162.33,0.02,0.01,-0.02,0.0,9.808,0.0,0.0,-0.01
1776535087.5322711,162.33,0.02,0.01,-0.012,-0.012,9.808,0.0,0.0,-0.01
1776535087.5422957,162.32,0.01,0.0,-0.014,-0.022,9.808,0.0,-0.01,-0.01
1776535087.552314,162.31,0.02,0.0,0.0,-0.007,9.808,-0.01,-0.01,0.0
1776535087.5622857,162.3,0.02,0.0,0.017,-0.008,9.809,-0.01,-0.01,0.0
1776535087.5723088,162.29,0.02,0.0,0.038,0.004,9.808,0.0,0.0,0.0
1776535087.582574,162.28,0.03,0.0,0.042,0.017,9.808,-0.01,0.0,0.0
1776535087.592244,162.28,0.03,0.0,0.04,0.026,9.808,-0.01,-0.01,0.0
1776535087.6023188,162.29,0.03,0.0,0.026,0.034,9.808,-0.01,0.0,-0.01
1776535087.6122804,162.3,0.02,0.0,0.02,0.018,9.809,0.0,0.0,-0.01
1776535087.6225893,162.32,0.02,0.0,0.006,-0.002,9.808,0.0,0.0,-0.01
1776535087.6323705,162.32,0.02,-0.0,-0.011,-0.022,9.808,0.0,0.0,-0.01
1776535087.642244,162.32,0.01,-0.0,-0.023,-0.022,9.808,-0.01,-0.01,-0.01
1776535087.6522357,162.31,0.01,0.0,-0.022,-0.023,9.808,0.0,-0.01,0.0
1776535087.662233,162.3,0.01,0.0,-0.01,-0.017,9.808,0.0,-0.01,0.0
1776535087.6722343,162.3,0.02,0.0,0.001,-0.006,9.809,0.0,-0.01,0.0
1776535087.6822507,162.3,0.02,0.0,0.002,0.028,9.808,-0.01,-0.01,0.0
1776535087.6922061,162.3,0.02,0.01,0.022,0.025,9.808,-0.01,-0.01,0.0
1776535087.7022536,162.3,0.03,0.01,0.042,0.018,9.808,0.0,0.0,0.0
1776535087.7122302,162.3,0.03,0.0,0.042,0.011,9.808,0.0,0.0,0.0
1776535087.7222202,162.3,0.03,0.0,0.034,0.018,9.808,-0.01,0.0,0.0
1776535087.7322192,162.3,0.03,0.0,0.019,0.011,9.808,-0.01,0.0,-0.01
1776535087.7422173,162.3,0.02,0.0,-0.002,0.001,9.809,-0.01,0.0,-0.01
1776535087.7522073,162.31,0.02,-0.0,-0.011,-0.007,9.808,0.0,0.0,-0.01
1776535087.7621999,162.31,0.02,-0.0,-0.018,-0.016,9.808,0.0,-0.01,-0.01
1776535087.772205,162.31,0.02,-0.0,-0.03,-0.017,9.808,0.0,-0.01,-0.01
1776535087.7822082,162.31,0.01,0.0,-0.023,-0.02,9.808,0.0,-0.01,0.0
1776535087.79224,162.3,0.02,0.0,-0.016,-0.016,9.809,0.0,-0.01,0.0
1776535087.802234,162.3,0.02,0.0,0.005,-0.005,9.809,0.0,-0.01,0.0
1776535087.8121762,162.3,0.03,0.0,0.019,0.018,9.808,-0.01,-0.01,0.0
1776535087.8213005,162.29,0.03,0.01,0.047,0.025,9.808,-0.01,-0.01,0.0
1776535087.8321877,162.29,0.04,0.01,0.044,0.043,9.808,-0.01,-0.01,0.0
1776535087.8422093,162.29,0.03,0.01,0.046,0.042,9.808,-0.01,0.0,0.0
1776535087.8522096,162.29,0.03,0.01,0.038,0.04,9.808,-0.01,0.0,-0.01
1776535087.8622332,162.3,0.03,0.01,0.024,0.014,9.808,0.0,0.0,-0.01
1776535087.8721979,162.3,0.02,0.0,0.0,0.002,9.809,-0.01,0.0,-0.01
1776535087.8822062,162.31,0.02,0.0,-0.014,-0.008,9.808,-0.01,0.0,-0.01
1776535087.8922043,162.31,0.02,0.0,-0.026,-0.025,9.808,0.0,-0.01,-0.01
1776535087.9022036,162.31,0.02,0.0,-0.023,-0.032,9.808,0.0,0.0,-0.01
1776535087.911307,162.3,0.02,-0.0,-0.014,-0.034,9.809,0.0,-0.01,0.0
1776535087.9214041,162.3,0.03,-0.0,-0.005,-0.024,9.808,0.0,-0.01,0.0
1776535087.93222,162.3,0.03,0.0,0.018,-0.011,9.808,0.0,-0.01,0.0
1776535087.9422224,162.29,0.03,0.0,0.038,-0.004,9.808,0.0,0.0,0.0
1776535087.9521794,162.28,0.04,0.0,0.056,0.028,9.808,-0.01,-0.01,0.0
1776535087.961299,162.28,0.04,0.01,0.05,0.035,9.808,-0.01,0.0,0.0
1776535087.9714506,162.29,0.04,0.01,0.043,0.04,9.808,-0.01,0.0,-0.01
1776535087.9813545,162.3,0.03,0.01,0.028,0.018,9.809,-0.01,0.0,-0.01
1776535087.991348,162.31,0.02,0.0,0.007,0.002,9.808,-0.01,0.0,-0.01
1776535088.00222,162.32,0.02,0.0,-0.013,-0.018,9.808,-0.01,0.0,-0.01
1776535088.0113206,162.32,0.01,-0.0,-0.028,-0.025,9.808,0.0,0.0,-0.01
1776535088.0213926,162.31,0.01,-0.0,-0.032,-0.035,9.808,0.0,-0.01,0.0
1776535088.0313628,162.3,0.02,-0.0,-0.032,-0.007,9.808,0.0,-0.01,0.0
1776535088.0422275,162.3,0.02,0.0,-0.028,-0.005,9.809,0.0,-0.01,0.0
1776535088.0513303,162.3,0.02,0.0,-0.004,0.023,9.809,0.0,-0.01,0.0
1776535088.0613546,162.3,0.03,0.0,0.019,0.014,9.809,0.0,-0.01,0.0
1776535088.0712998,162.3,0.03,0.01,0.049,0.025,9.809,-0.01,-0.01,0.0
1776535088.0813222,162.3,0.04,0.0,0.05,0.023,9.808,-0.01,0.0,0.0
1776535088.0940454,162.3,0.04,0.01,0.05,0.018,9.808,-0.01,0.0,0.0
1776535088.1014125,162.3,0.04,0.0,0.032,0.004,9.809,-0.01,0.0,0.0
1776535088.111396,162.3,0.03,-0.0,0.014,0.0,9.809,-0.01,0.0,-0.01
1776535088.1215105,162.3,0.03,-0.0,-0.017,-0.01,9.808,-0.01,0.0,-0.01
1776535088.131281,162.31,0.02,-0.0,-0.028,-0.02,9.808,0.0,0.0,-0.01
1776535088.1413598,162.31,0.01,-0.0,-0.04,-0.031,9.808,0.0,0.0,-0.01
1776535088.1513953,162.31,0.01,-0.0,-0.029,-0.032,9.808,0.0,-0.01,-0.01
1776535088.1613624,162.3,0.02,-0.0,-0.022,-0.023,9.808,0.0,-0.01,0.0
1776535088.1713486,162.3,0.02,0.0,-0.008,-0.011,9.808,0.0,-0.01,0.0
1776535088.1813035,162.29,0.02,0.0,0.018,0.011,9.808,0.0,-0.01,0.0
1776535088.1913757,162.29,0.03,0.01,0.029,0.01,9.808,0.0,-0.01,0.0
1776535088.2013206,162.29,0.04,0.0,0.031,0.036,9.808,-0.01,-0.01,0.0
1776535088.211288,162.29,0.03,0.01,0.031,0.047,9.808,-0.01,-0.01,-0.01
1776535088.2212808,162.3,0.03,0.01,0.026,0.028,9.809,-0.01,0.0,-0.01
1776535088.2312765,162.31,0.03,0.0,0.024,0.008,9.808,-0.01,0.0,-0.01
1776535088.2412846,162.32,0.03,-0.0,0.008,-0.013,9.808,-0.01,0.0,-0.01
1776535088.2512698,162.32,0.03,-0.0,-0.004,-0.034,9.808,-0.01,0.0,-0.01
1776535088.261527,162.31,0.02,-0.0,-0.008,-0.044,9.808,0.0,0.0,0.0
1776535088.2715368,162.3,0.02,-0.0,0.0,-0.042,9.808,0.0,0.0,0.0
1776535088.2812722,162.28,0.03,-0.01,0.0,-0.014,9.808,0.0,-0.01,0.0
1776535088.2912579,162.28,0.03,-0.0,0.006,0.014,9.808,-0.01,-0.01,0.0
1776535088.3015406,162.28,0.03,0.0,0.0,0.038,9.808,0.0,-0.01,0.0
1776535088.3112965,162.28,0.02,0.01,0.008,0.035,9.808,0.0,0.0,-0.01
1776535088.3212771,162.3,0.03,0.01,0.0,0.026,9.808,0.0,-0.01,-0.01
1776535088.331263,162.31,0.03,0.0,0.0,0.001,9.808,-0.01,-0.01,-0.01
1776535088.3412802,162.32,0.03,0.0,-0.006,0.0,9.808,-0.01,-0.01,-0.01
1776535088.3512626,162.32,0.03,-0.0,0.002,-0.034,9.808,-0.01,-0.01,-0.01
1776535088.3612678,162.32,0.03,-0.0,0.002,-0.043,9.808,0.0,0.0,0.0
1776535088.3712463,162.3,0.03,-0.01,0.012,-0.04,9.809,-0.01,0.0,0.0
1776535088.3812728,162.29,0.03,-0.01,0.011,-0.019,9.808,-0.01,-0.01,0.0
1776535088.3912566,162.28,0.03,-0.01,-0.075,-0.004,9.808,0.0,-0.01,0.0
1776535088.4012642,162.3,0.02,-0.02,-0.416,0.057,9.808,-0.01,-0.01,0.0
1776535088.4112654,162.33,-0.1,-0.06,-0.627,0.09,9.776,-0.02,-0.01,-0.02
1776535088.4213014,162.4,-0.17,-0.06,-0.313,-0.492,9.785,-0.03,0.02,-0.02
1776535088.4312634,162.47,-0.15,-0.1,-0.442,0.529,9.791,0.0,0.01,-0.06
1776535088.4412756,162.56,0.27,0.65,1.182,-0.283,9.796,0.09,-0.06,-0.02
1776535088.4512928,162.69,0.88,0.69,-0.061,-0.554,9.8,0.29,-0.15,-0.06
1776535088.4612644,162.87,0.82,0.78,-0.176,-0.122,9.341,0.08,-0.23,-0.09
1776535088.4712749,163.03,0.9,0.63,-0.304,-0.348,6.906,0.03,-0.07,-0.11
1776535088.4812922,163.2,0.94,0.6,-0.406,0.053,6.211,-0.06,-0.05,-0.08
1776535088.4912906,163.33,0.78,0.6,-0.178,0.0,7.165,-0.02,-0.05,-0.11
1776535088.5012786,163.33,0.67,0.56,0.425,0.08,7.866,0.01,0.07,-0.05
1776535088.5112586,163.33,0.65,0.69,0.129,-0.232,8.381,-0.02,0.08,0.0
1776535088.5212944,163.29,0.49,0.68,-0.011,-0.219,8.76,0.07,0.05,-0.01
1776535088.5312872,163.24,0.38,0.74,0.277,-0.429,9.038,0.02,0.06,0.02
1776535088.5413096,163.19,0.42,0.66,0.09,-0.592,9.108,0.03,0.05,0.02
1776535088.551321,163.12,0.34,0.52,-0.002,-0.547,9.012,-0.02,-0.02,0.02
1776535088.5613325,163.03,0.32,0.46,-0.487,-0.303,8.941,-0.06,0.0,0.05
1776535088.5712616,162.98,0.19,0.45,-0.217,-0.145,9.105,-0.03,0.01,0.04
1776535088.5813017,162.93,0.22,0.42,-0.214,-0.046,9.291,-0.02,0.03,0.02
1776535088.5913148,162.91,0.24,0.33,-0.53,-0.156,9.428,-0.02,-0.01,0.02
1776535088.601298,162.9,0.11,0.3,-0.485,-0.174,9.529,-0.05,-0.02,0.0
1776535088.6112728,162.92,0.11,0.23,-0.342,-0.342,9.487,-0.02,0.03,0.01
1776535088.62132,162.96,0.12,0.14,-0.414,-0.622,9.541,-0.03,0.0,-0.02
1776535088.6312728,162.97,0.1,0.06,-0.406,-0.616,9.611,-0.04,-0.02,-0.02
1776535088.6412883,162.96,0.13,0.04,-0.159,-0.672,9.664,-0.01,-0.01,-0.01
1776535088.6513205,162.96,0.24,0.01,-0.297,-0.622,9.702,0.01,-0.03,0.0
1776535088.6612864,162.95,0.23,0.05,-0.578,-0.544,9.73,0.0,-0.06,-0.01
1776535088.6712725,162.94,0.18,0.09,-0.222,-0.347,9.66,0.03,-0.02,0.01
1776535088.6812892,162.95,0.23,0.15,-0.032,-0.119,9.621,0.02,0.01,0.0
1776535088.691283,162.99,0.27,0.23,-0.051,0.072,9.67,0.02,-0.02,-0.02
1776535088.701748,163.01,0.29,0.35,-0.043,0.187,9.707,0.03,-0.02,-0.02
1776535088.7112615,163.03,0.29,0.45,-0.105,0.177,9.733,0.05,-0.02,-0.02
1776535088.7213054,163.07,0.25,0.51,-0.069,0.134,9.753,0.05,-0.01,-0.02
1776535088.731285,163.11,0.24,0.49,0.002,0.144,9.768,0.02,0.01,-0.03
1776535088.7413042,163.12,0.24,0.46,0.081,0.19,9.778,-0.02,0.01,-0.02
1776535088.7512352,163.12,0.26,0.41,0.038,0.212,9.786,-0.03,-0.01,-0.01
1776535088.7613037,163.1,0.23,0.36,-0.061,0.078,9.793,-0.03,-0.01,0.0
1776535088.7712374,163.05,0.18,0.29,-0.048,0.032,9.796,-0.03,0.01,0.02
1776535088.7812421,163.01,0.16,0.23,-0.04,-0.053,9.799,-0.03,0.02,0.02
1776535088.791259,162.99,0.14,0.15,-0.038,-0.146,9.802,-0.03,0.01,0.02
1776535088.8012807,162.97,0.12,0.07,-0.138,-0.24,9.803,-0.04,0.0,0.01
1776535088.811271,162.95,0.09,0.01,-0.21,-0.323,9.804,-0.03,0.0,0.01
1776535088.8213048,162.93,0.05,-0.02,-0.193,-0.342,9.805,-0.02,0.01,0.01
1776535088.8312888,162.91,0.05,-0.02,-0.18,-0.337,9.805,0.0,0.0,0.01
1776535088.8412688,162.92,0.06,-0.0,-0.206,-0.338,9.806,0.01,-0.01,0.0
1776535088.8512492,162.94,0.05,0.02,-0.243,-0.31,9.806,0.02,-0.02,-0.01
1776535088.8612983,162.97,0.04,0.06,-0.207,-0.247,9.806,0.02,-0.01,-0.02
1776535088.8712335,163.0,0.05,0.1,-0.171,-0.182,9.808,0.02,-0.01,-0.02
1776535088.881234,163.03,0.06,0.15,-0.104,-0.238,9.808,0.02,-0.01,-0.02
1776535088.8912518,163.01,0.1,0.17,-0.169,0.237,9.808,0.02,-0.02,-0.02
1776535088.9012678,162.94,0.04,0.19,-0.201,0.061,9.808,0.02,-0.02,0.02
1776535088.9112492,162.88,0.07,0.14,-0.069,0.205,9.808,-0.02,0.01,0.05
1776535088.9211998,162.88,0.09,0.06,-0.123,0.128,9.808,-0.05,-0.02,0.02
1776535088.9312189,162.91,0.07,0.03,-0.115,0.028,9.808,-0.04,-0.02,-0.01
1776535088.9412494,162.91,0.06,-0.02,-0.036,-0.187,9.808,-0.02,0.01,-0.02
1776535088.951233,162.91,0.05,-0.06,0.103,-0.295,9.809,-0.01,0.0,0.0
1776535088.9612346,162.93,0.06,-0.08,0.054,-0.255,9.808,-0.01,0.01,0.0
1776535088.970412,162.98,0.07,-0.06,0.032,-0.248,9.808,-0.01,-0.01,-0.03
1776535088.981225,163.05,0.05,-0.02,-0.035,-0.316,9.809,0.02,-0.01,-0.03
1776535088.9912393,163.11,0.02,0.02,-0.109,-0.376,9.808,0.03,0.01,-0.04
1776535089.0012429,163.15,-0.02,0.03,-0.111,-0.337,9.808,0.02,0.01,-0.04
1776535089.0104308,163.15,-0.01,0.09,-0.074,-0.193,9.808,0.02,0.01,-0.02
1776535089.020416,163.14,0.01,0.15,-0.151,-0.09,9.808,0.03,-0.01,0.0
1776535089.030443,163.12,-0.01,0.18,-0.274,-0.019,9.808,0.02,-0.02,0.01
1776535089.0403798,163.09,-0.04,0.18,-0.2,0.105,9.808,0.0,-0.01,0.01
1776535089.0503838,163.05,-0.02,0.17,-0.138,0.229,9.808,-0.02,0.0,0.02
1776535089.0604134,163.02,-0.02,0.17,-0.115,0.238,9.808,-0.02,-0.01,0.02
1776535089.0712187,162.99,-0.0,0.16,-0.097,0.241,9.808,-0.02,-0.01,0.02
1776535089.0812278,162.98,-0.01,0.12,-0.114,0.186,9.808,-0.02,-0.01,0.02
1776535089.0912216,162.98,-0.02,0.07,-0.098,0.135,9.808,-0.03,0.0,0.0
1776535089.1003833,162.98,-0.02,0.02,-0.053,0.046,9.808,-0.03,0.0,-0.01
1776535089.110367,163.0,-0.02,-0.03,-0.038,-0.02,9.808,-0.03,0.0,-0.01
1776535089.1204042,163.0,-0.02,-0.04,-0.006,-0.101,9.808,-0.02,-0.01,-0.01
1776535089.1304128,163.0,-0.02,-0.05,-0.018,-0.253,9.808,-0.01,-0.01,-0.01
1776535089.1412177,162.99,-0.02,-0.07,-0.016,-0.37,9.808,0.01,-0.01,0.0
1776535089.151221,162.98,-0.03,-0.08,-0.011,-0.376,9.808,0.01,0.0,0.0
1776535089.16122,162.95,-0.03,-0.08,-0.023,-0.371,9.808,0.01,0.0,0.01
1776535089.1703818,162.95,-0.04,-0.08,-0.046,-0.295,9.808,0.01,0.0,0.01
1776535089.1803622,162.95,-0.05,-0.06,-0.083,-0.219,9.808,0.0,0.0,0.0
1776535089.1903503,162.96,-0.06,-0.05,-0.108,-0.168,9.808,0.01,0.0,-0.01
1776535089.2003498,162.98,-0.07,-0.05,-0.108,-0.133,9.808,0.0,0.0,-0.02
1776535089.210351,163.01,-0.07,-0.05,-0.132,-0.114,9.808,0.0,-0.01,-0.02
1776535089.22121,163.03,-0.08,-0.06,-0.162,-0.125,9.808,-0.01,-0.01,-0.02
1776535089.230378,163.05,-0.09,-0.07,-0.144,-0.14,9.808,0.0,-0.01,-0.02
1776535089.2403688,163.05,-0.08,-0.08,-0.122,-0.134,9.808,-0.01,-0.01,-0.02
1776535089.2503486,163.04,-0.07,-0.09,-0.089,-0.109,9.808,-0.01,-0.01,0.0
1776535089.2603815,163.02,-0.05,-0.08,-0.079,-0.062,9.808,-0.01,-0.01,0.01
1776535089.2703507,162.99,-0.05,-0.08,-0.053,0.017,9.808,0.0,-0.01,0.01
1776535089.280369,162.97,-0.05,-0.05,-0.025,0.073,9.808,0.0,-0.01,0.01
1776535089.2903404,162.96,-0.05,-0.02,-0.006,0.113,9.808,0.01,-0.01,0.01
1776535089.300368,162.97,-0.05,-0.01,-0.002,0.131,9.808,0.0,0.0,0.0
1776535089.3103468,162.99,-0.06,0.0,-0.01,0.123,9.808,0.0,0.0,-0.01
1776535089.320484,163.01,-0.06,0.0,-0.018,0.072,9.808,0.0,0.0,-0.02
1776535089.330367,163.03,-0.07,-0.02,-0.035,-0.007,9.808,-0.01,0.0,-0.02
1776535089.3404994,163.04,-0.08,-0.04,-0.042,-0.102,9.808,-0.01,0.0,-0.02
1776535089.3503556,163.04,-0.1,-0.08,-0.059,-0.183,9.808,-0.02,0.0,-0.01
1776535089.3603292,163.02,-0.1,-0.12,-0.074,-0.249,9.808,-0.02,0.0,0.0
1776535089.3703387,162.99,-0.11,-0.15,-0.065,-0.292,9.808,-0.02,0.0,0.01
1776535089.3804579,162.96,-0.12,-0.17,-0.061,-0.275,9.808,-0.02,0.0,0.02
1776535089.3903096,162.94,-0.12,-0.17,-0.06,-0.268,9.808,-0.01,0.0,0.02
1776535089.4003494,162.94,-0.13,-0.16,-0.078,-0.204,9.808,0.0,0.0,0.01
1776535089.4103196,162.95,-0.14,-0.15,-0.127,-0.193,9.808,0.01,0.0,-0.01
1776535089.4204214,162.96,-0.14,-0.14,-0.114,-0.134,9.808,0.01,0.0,-0.01
1776535089.4304605,162.99,-0.13,-0.13,-0.16,-0.084,9.808,0.0,-0.01,-0.02
1776535089.4403613,163.02,-0.14,-0.12,-0.183,-0.02,9.808,0.0,-0.02,-0.02
1776535089.4503334,163.03,-0.13,-0.09,-0.119,0.0,9.808,0.0,-0.01,-0.02
1776535089.4604301,163.05,-0.11,-0.05,-0.114,-0.011,9.809,0.01,-0.01,-0.02
1776535089.470404,163.05,-0.11,-0.05,-0.176,-0.072,9.808,0.02,-0.02,-0.01
1776535089.4804606,163.04,-0.13,-0.08,-0.025,-0.004,9.808,-0.01,0.0,-0.01
1776535089.4903238,163.01,-0.1,-0.11,0.013,0.054,9.808,-0.02,-0.01,0.01
1776535089.500316,162.99,-0.07,-0.08,-0.104,-0.038,9.808,-0.02,-0.02,0.01
1776535089.5103307,162.94,-0.12,-0.03,-0.006,-0.066,9.808,0.01,-0.02,0.01
1776535089.5203428,162.91,-0.12,-0.03,-0.154,-0.177,9.808,0.02,0.02,0.02
1776535089.5303345,162.91,-0.15,-0.08,-0.186,-0.245,9.809,0.02,0.01,0.01
1776535089.5403214,162.88,-0.15,-0.08,-0.138,-0.466,9.808,-0.02,0.0,0.0
1776535089.5503085,162.86,-0.15,-0.06,-0.047,-0.477,9.809,0.02,0.01,0.01
1776535089.5603313,162.82,-0.12,-0.05,-0.036,-0.559,9.808,0.02,0.0,0.02
1776535089.570358,162.79,-0.13,-0.04,-0.026,-0.492,9.808,0.02,-0.02,0.02
1776535089.5802908,162.75,-0.1,-0.03,0.03,-0.303,9.808,0.01,0.0,0.02
1776535089.5902936,162.72,-0.09,0.02,0.007,-0.079,9.808,0.01,-0.02,0.02
1776535089.6002896,162.71,-0.09,0.08,0.029,0.095,9.808,0.02,-0.01,0.01
1776535089.610295,162.72,-0.1,0.11,-0.019,0.218,9.808,0.01,0.0,0.0
1776535089.6202943,162.74,-0.11,0.14,-0.022,0.297,9.808,0.0,0.0,-0.01
1776535089.6302865,162.76,-0.12,0.14,-0.048,0.268,9.808,-0.01,0.0,-0.02
1776535089.6402855,162.76,-0.14,0.13,-0.059,0.186,9.809,-0.01,0.0,-0.02
1776535089.6503088,162.76,-0.15,0.11,-0.077,0.067,9.809,-0.01,0.0,-0.01
1776535089.6603007,162.76,-0.15,0.09,-0.099,-0.046,9.809,-0.01,0.0,0.0
1776535089.6705165,162.76,-0.15,0.05,-0.134,-0.139,9.808,-0.01,-0.01,0.0
1776535089.6803308,162.76,-0.16,0.03,-0.154,-0.22,9.808,-0.01,-0.01,0.0
1776535089.6903126,162.76,-0.16,0.02,-0.127,-0.263,9.808,0.0,-0.01,-0.01
1776535089.7003262,162.76,-0.15,0.01,-0.087,-0.271,9.809,0.0,-0.01,-0.01
1776535089.7102923,162.76,-0.15,0.01,-0.034,-0.278,9.808,0.0,-0.01,-0.01
1776535089.7202914,162.77,-0.14,0.01,-0.007,-0.26,9.808,0.0,-0.01,-0.01
1776535089.7302644,162.76,-0.13,-0.0,0.012,-0.214,9.809,0.0,0.0,0.0
1776535089.7402916,162.76,-0.13,-0.0,0.017,-0.145,9.808,0.0,0.0,0.0
1776535089.7503,162.75,-0.13,-0.0,-0.001,-0.083,9.808,-0.01,0.0,0.0
1776535089.7602985,162.75,-0.14,-0.01,-0.036,-0.053,9.808,-0.01,0.0,0.0
1776535089.7703009,162.75,-0.15,-0.01,-0.062,-0.079,9.808,-0.01,0.0,-0.01
1776535089.7802927,162.76,-0.16,-0.03,-0.086,-0.123,9.808,-0.01,0.0,-0.01
1776535089.7902992,162.76,-0.17,-0.05,-0.105,-0.164,9.808,-0.01,0.0,-0.01
1776535089.800299,162.76,-0.17,-0.05,-0.107,-0.183,9.808,-0.01,-0.01,-0.01
1776535089.810293,162.76,-0.16,-0.06,-0.101,-0.166,9.808,0.0,-0.01,0.0
1776535089.8203015,162.76,-0.16,-0.05,-0.086,-0.141,9.808,0.0,-0.01,-0.01
1776535089.8302953,162.76,-0.16,-0.05,-0.051,-0.116,9.808,0.0,-0.01,-0.01
1776535089.8402905,162.76,-0.16,-0.05,-0.034,-0.097,9.808,0.0,-0.01,0.0
1776535089.8503149,162.75,-0.16,-0.05,-0.016,-0.079,9.808,0.0,-0.01,0.0
1776535089.8602626,162.75,-0.16,-0.05,-0.019,-0.073,9.808,0.0,0.0,0.0
1776535089.8702962,162.76,-0.16,-0.07,-0.004,-0.113,9.808,-0.01,0.0,-0.01
1776535089.880297,162.81,-0.16,-0.06,-0.19,0.02,9.808,-0.01,0.0,-0.01
1776535089.890295,162.91,-0.18,0.03,-0.125,-0.588,9.809,0.0,-0.01,-0.05
1776535089.9002588,162.99,-0.17,0.04,-0.056,-1.232,9.772,0.06,0.0,-0.05
1776535089.910249,163.06,-0.15,0.06,0.198,-1.65,9.732,0.07,0.0,-0.05
1776535089.9202595,163.16,-0.12,0.1,1.335,-1.571,9.753,0.08,0.0,-0.05
1776535089.9302998,163.22,0.07,0.11,1.31,-1.132,9.684,0.05,0.05,-0.06
1776535089.9402494,163.13,0.11,0.16,0.914,-1.443,9.717,0.02,-0.02,-0.02
1776535089.9502664,162.98,-0.03,0.1,0.65,-1.557,9.741,0.05,-0.02,0.06
1776535089.9602704,162.92,-0.07,0.22,1.043,-0.806,9.211,0.06,0.08,0.08
1776535089.9702907,162.87,-0.0,0.33,0.456,0.134,9.369,0.05,0.03,0.02
1776535089.9802377,162.78,-0.12,0.5,-0.051,1.249,9.485,-0.01,-0.03,0.04
1776535089.9902506,162.77,-0.23,0.59,-0.175,1.368,9.573,-0.02,0.05,0.04
1776535090.00025,162.82,-0.28,0.62,-0.301,1.095,9.635,0.0,0.01,-0.02
1776535090.010279,162.89,-0.34,0.59,-0.357,1.348,9.681,-0.02,0.01,-0.02
1776535090.0194068,163.02,-0.38,0.61,-0.263,1.151,9.715,-0.05,0.02,-0.05
1776535090.0302331,163.1,-0.32,0.54,-0.034,0.636,9.739,-0.04,0.02,-0.08
1776535090.0402532,163.04,-0.29,0.45,-0.471,0.163,9.759,-0.03,-0.03,-0.03
1776535090.0502841,162.88,-0.34,0.38,-0.416,-0.102,9.77,-0.02,-0.03,0.05
1776535090.0602329,162.71,-0.27,0.36,-0.183,-0.17,9.78,-0.01,-0.01,0.09
1776535090.070251,162.6,-0.21,0.32,-0.005,-0.115,9.787,-0.01,-0.03,0.08
1776535090.0802674,162.59,-0.16,0.33,0.211,-0.044,9.793,-0.02,-0.02,0.05
1776535090.0894494,162.67,-0.11,0.36,0.423,-0.174,9.797,0.0,-0.02,-0.02
1776535090.1002383,162.79,-0.05,0.34,0.538,-0.402,9.799,0.02,-0.01,-0.05
1776535090.1102536,162.89,-0.04,0.31,0.564,-0.695,9.802,0.01,-0.01,-0.07
1776535090.1194124,162.92,-0.04,0.24,0.523,-0.96,9.803,0.01,0.01,-0.05
1776535090.1294365,162.86,-0.06,0.16,0.37,-0.995,9.804,0.0,0.02,-0.01
1776535090.1394253,162.76,-0.11,0.12,0.192,-0.717,9.806,-0.01,0.01,0.04
1776535090.150375,162.7,-0.13,0.15,0.034,-0.356,9.806,-0.01,0.02,0.05
1776535090.1603734,162.68,-0.16,0.18,-0.139,-0.11,9.806,0.0,0.0,0.02
1776535090.1694634,162.71,-0.2,0.19,-0.226,0.06,9.806,0.0,0.0,0.0
1776535090.1794276,162.78,-0.22,0.2,-0.327,0.125,9.806,-0.02,0.0,-0.02
1776535090.1903737,162.84,-0.23,0.2,-0.351,-0.031,9.808,-0.01,-0.01,-0.05
1776535090.199375,162.86,-0.22,0.18,-0.251,-0.163,9.809,0.0,-0.01,-0.03
1776535090.2094057,162.83,-0.19,0.15,-0.144,-0.225,9.808,0.0,-0.02,-0.01
